subID,trialType,trialNum,cntBalance,correct,rt,rwdType,tgtCol,tgtDir,tgtPos,colPos,colMatch,
7ll,VDACtrain,0,g,null,null,2,g,v,0,,,
7ll,VDACtrain,0,g,null,null,2,g,h,5,,,
7ll,VDACtrain,0,g,null,null,1,r,h,0,,,
7ll,VDACtrain,0,g,true,729.7000000476837,2,g,v,5,,,
7ll,VDACtrain,0,g,null,null,2,g,v,2,,,
7ll,VDACtrain,0,g,true,893.5,1,r,v,4,,,
7ll,VDACtrain,0,g,true,695.3999998569489,1,r,h,2,,,
7ll,VDACtrain,0,g,true,968.0999999046326,1,r,h,1,,,
7ll,VDACtrain,0,g,true,616.9000000953674,1,r,v,3,,,
7ll,VDACtrain,0,g,true,895.5999999046326,2,g,h,3,,,
7ll,VDACtest,1,g,true,521.7000000476837,1,r,h,3,,,
7ll,VDACtest,2,g,true,518.7000000476837,2,g,v,3,,,
7ll,VDACtest,3,g,true,856,2,g,h,1,,,
7ll,VDACtest,4,g,false,711.9000000953674,1,r,v,1,,,
7ll,VDACtest,5,g,null,null,1,r,h,5,,,
7ll,VDACtest,6,g,true,758.3999998569489,2,g,h,2,,,
7ll,VDACtest,7,g,true,808.7000000476837,1,r,h,5,,,
7ll,VDACtest,8,g,true,673.3999998569489,2,g,h,1,,,
7ll,VDACtest,9,g,true,959.5,1,r,v,3,,,
7ll,VDACtest,10,g,true,688.7999999523163,1,r,v,5,,,
7ll,VDACtest,11,g,true,496.7999999523163,1,r,v,4,,,
7ll,VDACtest,12,g,true,863.1000001430511,2,g,h,0,,,
7ll,VDACtest,13,g,true,848.1000001430511,1,r,h,2,,,
7ll,VDACtest,14,g,true,569,2,g,v,4,,,
7ll,VDACtest,15,g,false,760.5,2,g,v,1,,,
7ll,VDACtest,16,g,false,751.1000001430511,2,g,v,1,,,
7ll,VDACtest,17,g,true,776.7999999523163,1,r,v,4,,,
7ll,VDACtest,18,g,null,null,1,r,v,3,,,
7ll,VDACtest,19,g,true,773.1999998092651,2,g,v,1,,,
7ll,VDACtest,20,g,true,945.5,2,g,v,5,,,
7ll,VDACtest,21,g,null,null,1,r,v,3,,,
7ll,VDACtest,22,g,true,641.2000000476837,2,g,h,4,,,
7ll,VDACtest,23,g,null,null,1,r,v,4,,,
7ll,VDACtest,24,g,true,992.7000000476837,1,r,v,3,,,
7ll,VDACtest,25,g,null,null,1,r,v,5,,,
7ll,VDACtest,26,g,true,784.3000001907349,2,g,v,3,,,
7ll,VDACtest,27,g,true,512.7000000476837,2,g,h,4,,,
7ll,VDACtest,28,g,false,830.7000000476837,1,r,v,2,,,
7ll,VDACtest,29,g,true,648,2,g,v,1,,,
7ll,VDACtest,30,g,true,872.6999998092651,1,r,v,1,,,
7ll,VDACtest,31,g,true,663.7999999523163,2,g,h,2,,,
7ll,VDACtest,32,g,false,689.2999999523163,1,r,h,3,,,
7ll,VDACtest,33,g,true,775.2999999523163,2,g,h,2,,,
7ll,VDACtest,34,g,false,641.2000000476837,2,g,v,4,,,
7ll,VDACtest,35,g,null,null,2,g,v,0,,,
7ll,VDACtest,36,g,true,560.4000000953674,1,r,h,4,,,
7ll,VDACtest,37,g,true,834,2,g,h,2,,,
7ll,VDACtest,38,g,null,null,1,r,h,3,,,
7ll,VDACtest,39,g,true,570,1,r,h,4,,,
7ll,VDACtest,40,g,true,905.8999998569489,1,r,v,0,,,
7ll,VDACtest,41,g,true,809.7999999523163,2,g,h,1,,,
7ll,VDACtest,42,g,true,835.2999999523163,1,r,h,3,,,
7ll,VDACtest,43,g,true,769.2000000476837,1,r,h,5,,,
7ll,VDACtest,44,g,false,744.0999999046326,2,g,h,1,,,
7ll,VDACtest,45,g,true,735.7000000476837,1,r,h,0,,,
7ll,VDACtest,46,g,true,520.7000000476837,2,g,h,3,,,
7ll,VDACtest,47,g,true,759.2999999523163,1,r,h,1,,,
7ll,VDACtest,48,g,true,738,1,r,v,1,,,
7ll,VDACtest,49,g,true,744,2,g,v,0,,,
7ll,VDACtest,50,g,true,640.6999998092651,2,g,h,4,,,
brk,brk,brk,brk,brk,brk,brk,brk,brk,brk,brk,brk,
7ll,VDACtest,51,g,true,861.2999999523163,1,r,h,2,,,
7ll,VDACtest,52,g,true,663.0999999046326,2,g,v,1,,,
7ll,VDACtest,53,g,true,568.3999998569489,1,r,h,1,,,
7ll,VDACtest,54,g,true,560.2999999523163,2,g,v,5,,,
7ll,VDACtest,55,g,false,816.2999999523163,2,g,h,0,,,
7ll,VDACtest,56,g,true,633,2,g,v,0,,,
7ll,VDACtest,57,g,false,912.0999999046326,2,g,v,2,,,
7ll,VDACtest,58,g,true,960.6000001430511,1,r,h,3,,,
7ll,VDACtest,59,g,true,960.8000001907349,1,r,h,1,,,
7ll,VDACtest,60,g,true,530.1999998092651,1,r,v,2,,,
7ll,VDACtest,61,g,true,592.5999999046326,1,r,h,4,,,
7ll,VDACtest,62,g,true,672.5999999046326,1,r,v,0,,,
7ll,VDACtest,63,g,true,545.2000000476837,2,g,v,5,,,
7ll,VDACtest,64,g,true,578.1000001430511,1,r,v,2,,,
7ll,VDACtest,65,g,true,640.9000000953674,1,r,h,2,,,
7ll,VDACtest,66,g,true,545.2000000476837,1,r,h,0,,,
7ll,VDACtest,67,g,false,608.8000001907349,2,g,h,4,,,
7ll,VDACtest,68,g,null,null,1,r,v,2,,,
7ll,VDACtest,69,g,true,776.2999999523163,1,r,h,1,,,
7ll,VDACtest,70,g,true,513.6000001430511,2,g,v,4,,,
7ll,VDACtest,71,g,null,null,1,r,v,0,,,
7ll,VDACtest,72,g,true,584.7999999523163,2,g,h,2,,,
7ll,VDACtest,73,g,true,601.3999998569489,2,g,v,5,,,
7ll,VDACtest,74,g,true,616,2,g,v,2,,,
7ll,VDACtest,75,g,true,871,1,r,v,1,,,
7ll,VDACtest,76,g,true,761.2000000476837,1,r,h,5,,,
7ll,VDACtest,77,g,true,719.2999999523163,1,r,h,3,,,
7ll,VDACtest,78,g,true,536.3999998569489,2,g,v,0,,,
7ll,VDACtest,79,g,true,513.2000000476837,2,g,h,5,,,
7ll,VDACtest,80,g,true,560.4000000953674,2,g,h,2,,,
7ll,VDACtest,81,g,false,801.5999999046326,1,r,h,5,,,
7ll,VDACtest,82,g,true,712.1999998092651,2,g,v,4,,,
7ll,VDACtest,83,g,true,608.9000000953674,2,g,v,2,,,
7ll,VDACtest,84,g,true,504.5,1,r,h,5,,,
7ll,VDACtest,85,g,true,718.5,1,r,h,0,,,
7ll,VDACtest,86,g,true,769.2999999523163,1,r,v,4,,,
7ll,VDACtest,87,g,true,936.5999999046326,2,g,v,1,,,
7ll,VDACtest,88,g,true,609.5999999046326,2,g,h,1,,,
7ll,VDACtest,89,g,true,560.2999999523163,1,r,h,2,,,
7ll,VDACtest,90,g,true,535.7000000476837,1,r,h,0,,,
7ll,VDACtest,91,g,true,679.5999999046326,2,g,h,0,,,
7ll,VDACtest,92,g,true,504.09999990463257,2,g,h,5,,,
7ll,VDACtest,93,g,true,543.5,2,g,h,4,,,
7ll,VDACtest,94,g,true,782.9000000953674,1,r,h,3,,,
7ll,VDACtest,95,g,true,687.7999999523163,1,r,v,4,,,
7ll,VDACtest,96,g,true,736.6000001430511,2,g,h,3,,,
7ll,VDACtest,97,g,true,824.5,2,g,v,0,,,
7ll,VDACtest,98,g,true,568.5999999046326,1,r,v,5,,,
7ll,VDACtest,99,g,true,641.5,2,g,h,3,,,
7ll,VDACtest,100,g,true,903.2999999523163,1,r,h,1,,,
brk,brk,brk,brk,brk,brk,brk,brk,brk,brk,brk,brk,
7ll,VDACtest,101,g,true,985.2999999523163,2,g,v,4,,,
7ll,VDACtest,102,g,true,503,2,g,v,4,,,
7ll,VDACtest,103,g,true,878.7000000476837,1,r,v,5,,,
7ll,VDACtest,104,g,true,567.0999999046326,1,r,v,1,,,
7ll,VDACtest,105,g,true,584.5,2,g,h,0,,,
7ll,VDACtest,106,g,true,722.2999999523163,2,g,h,1,,,
7ll,VDACtest,107,g,true,552.4000000953674,2,g,v,5,,,
7ll,VDACtest,108,g,true,487.7999999523163,2,g,h,0,,,
7ll,VDACtest,109,g,true,763.7000000476837,2,g,v,3,,,
7ll,VDACtest,110,g,true,521.6000001430511,2,g,v,5,,,
7ll,VDACtest,111,g,true,759.7999999523163,2,g,v,2,,,
7ll,VDACtest,112,g,true,520.5,2,g,v,4,,,
7ll,VDACtest,113,g,true,682,1,r,v,1,,,
7ll,VDACtest,114,g,true,631.8999998569489,1,r,v,3,,,
7ll,VDACtest,115,g,true,638.1999998092651,1,r,v,1,,,
7ll,VDACtest,116,g,true,840.7000000476837,1,r,h,4,,,
7ll,VDACtest,117,g,true,551.7000000476837,1,r,h,5,,,
7ll,VDACtest,118,g,true,752.6999998092651,1,r,v,2,,,
7ll,VDACtest,119,g,true,617.3000001907349,1,r,v,4,,,
7ll,VDACtest,120,g,true,608.0999999046326,1,r,v,3,,,
7ll,VDACtest,121,g,true,784.9000000953674,2,g,h,5,,,
7ll,VDACtest,122,g,true,672.5,2,g,v,3,,,
7ll,VDACtest,123,g,true,590.2999999523163,1,r,h,1,,,
7ll,VDACtest,124,g,true,927.5,2,g,v,2,,,
7ll,VDACtest,125,g,true,560.7999999523163,2,g,h,0,,,
7ll,VDACtest,126,g,true,567.7999999523163,2,g,v,1,,,
7ll,VDACtest,127,g,true,935.7999999523163,1,r,h,4,,,
7ll,VDACtest,128,g,true,552.7000000476837,2,g,h,0,,,
7ll,VDACtest,129,g,true,848.2000000476837,1,r,v,4,,,
7ll,VDACtest,130,g,true,606.0999999046326,2,g,h,5,,,
7ll,VDACtest,131,g,true,737.6999998092651,1,r,v,0,,,
7ll,VDACtest,132,g,true,847.5,1,r,v,5,,,
7ll,VDACtest,133,g,true,737.2000000476837,2,g,v,1,,,
7ll,VDACtest,134,g,true,768.0999999046326,1,r,h,2,,,
7ll,VDACtest,135,g,true,614.4000000953674,1,r,v,0,,,
7ll,VDACtest,136,g,true,657.0999999046326,1,r,v,3,,,
7ll,VDACtest,137,g,true,897.4000000953674,2,g,v,3,,,
7ll,VDACtest,138,g,true,567.7000000476837,2,g,h,2,,,
7ll,VDACtest,139,g,true,559.0999999046326,2,g,v,5,,,
7ll,VDACtest,140,g,true,624.3999998569489,1,r,h,0,,,
7ll,VDACtest,141,g,true,781.7000000476837,2,g,h,3,,,
7ll,VDACtest,142,g,true,673.1000001430511,2,g,v,0,,,
7ll,VDACtest,143,g,true,904.7000000476837,1,r,v,3,,,
7ll,VDACtest,144,g,true,871.9000000953674,2,g,h,1,,,
7ll,VDACtest,145,g,true,585.2000000476837,2,g,v,4,,,
7ll,VDACtest,146,g,true,664.2999999523163,1,r,v,4,,,
7ll,VDACtest,147,g,true,760.7000000476837,1,r,v,0,,,
7ll,VDACtest,148,g,true,951.8999998569489,1,r,v,1,,,
7ll,VDACtest,149,g,true,704.8000001907349,2,g,h,4,,,
7ll,VDACtest,150,g,true,671.6999998092651,1,r,h,4,,,
brk,brk,brk,brk,brk,brk,brk,brk,brk,brk,brk,brk,
7ll,VDACtest,151,g,null,null,2,g,h,2,,,
7ll,VDACtest,152,g,true,569.4000000953674,2,g,h,4,,,
7ll,VDACtest,153,g,true,592.5,2,g,h,0,,,
7ll,VDACtest,154,g,true,535.2999999523163,1,r,v,4,,,
7ll,VDACtest,155,g,true,567.0999999046326,1,r,v,0,,,
7ll,VDACtest,156,g,true,598,1,r,h,3,,,
7ll,VDACtest,157,g,true,774.8999998569489,2,g,v,2,,,
7ll,VDACtest,158,g,true,917.7999999523163,1,r,h,1,,,
7ll,VDACtest,159,g,true,704.0999999046326,2,g,v,4,,,
7ll,VDACtest,160,g,true,639.7999999523163,1,r,h,2,,,
7ll,VDACtest,161,g,true,631,1,r,v,5,,,
7ll,VDACtest,162,g,true,585.2999999523163,1,r,v,5,,,
7ll,VDACtest,163,g,true,601,2,g,v,5,,,
7ll,VDACtest,164,g,true,647.2999999523163,1,r,h,4,,,
7ll,VDACtest,165,g,true,745,1,r,h,1,,,
7ll,VDACtest,166,g,true,608.2000000476837,1,r,h,2,,,
7ll,VDACtest,167,g,true,860.6000001430511,2,g,v,2,,,
7ll,VDACtest,168,g,true,599.7999999523163,2,g,v,2,,,
7ll,VDACtest,169,g,true,607.7000000476837,2,g,h,3,,,
7ll,VDACtest,170,g,true,558.1999998092651,2,g,h,5,,,
7ll,VDACtest,171,g,true,480,2,g,h,5,,,
7ll,VDACtest,172,g,true,863.6000001430511,1,r,v,2,,,
7ll,VDACtest,173,g,true,734.5,1,r,h,1,,,
7ll,VDACtest,174,g,true,872.8999998569489,1,r,h,0,,,
7ll,VDACtest,175,g,true,807.6000001430511,2,g,h,1,,,
7ll,VDACtest,176,g,true,768.2000000476837,1,r,h,2,,,
7ll,VDACtest,177,g,true,616,2,g,v,1,,,
7ll,VDACtest,178,g,null,null,1,r,v,2,,,
7ll,VDACtest,179,g,true,615.0999999046326,2,g,h,5,,,
7ll,VDACtest,180,g,true,713.6000001430511,2,g,v,3,,,
7ll,VDACtest,181,g,true,856.2999999523163,2,g,h,1,,,
7ll,VDACtest,182,g,true,743.7999999523163,1,r,v,5,,,
7ll,VDACtest,183,g,true,671.6999998092651,2,g,h,4,,,
7ll,VDACtest,184,g,true,733.8999998569489,2,g,v,0,,,
7ll,VDACtest,185,g,true,551.9000000953674,2,g,h,5,,,
7ll,VDACtest,186,g,true,567.5999999046326,2,g,v,3,,,
7ll,VDACtest,187,g,true,576.6000001430511,2,g,v,0,,,
7ll,VDACtest,188,g,true,976.0999999046326,1,r,h,0,,,
7ll,VDACtest,189,g,true,681.3999998569489,2,g,h,3,,,
7ll,VDACtest,190,g,true,713.5,1,r,v,1,,,
7ll,VDACtest,191,g,true,681.6000001430511,1,r,h,4,,,
7ll,VDACtest,192,g,true,487.10000014305115,2,g,h,4,,,
7ll,VDACtest,193,g,true,535.3999998569489,2,g,h,3,,,
7ll,VDACtest,194,g,true,743.5,1,r,v,0,,,
7ll,VDACtest,195,g,true,575.8000001907349,2,g,v,3,,,
7ll,VDACtest,196,g,true,584.7000000476837,2,g,h,3,,,
7ll,VDACtest,197,g,true,674.5999999046326,1,r,h,4,,,
7ll,VDACtest,198,g,true,695.8000001907349,1,r,h,5,,,
7ll,VDACtest,199,g,true,632.7000000476837,1,r,v,2,,,
7ll,VDACtest,200,g,true,633.2000000476837,1,r,h,0,,,
7ll,RSVPtrain,0,g,null,null,2,g,,2,2,2,
7ll,RSVPtrain,0,g,false,1380.2000000476837,0,b,,1,3,0,
7ll,RSVPtrain,0,g,false,1143.4000000953674,1,r,,3,2,1,
7ll,RSVPtrain,0,g,true,810.8999998569489,1,r,,1,1,2,
7ll,RSVPtrain,0,g,true,1000.7999999523163,2,g,,1,0,1,
7ll,RSVPtrain,0,g,true,937.4000000953674,0,b,,3,3,0,
7ll,RSVPtrain,0,g,true,1177.3000001907349,0,b,,0,3,0,
7ll,RSVPtrain,0,g,true,1953.2999999523163,2,g,,3,1,1,
7ll,RSVPtrain,0,g,true,1096.2999999523163,2,g,,3,0,1,
7ll,RSVPtrain,0,g,true,1082.6999998092651,1,r,,0,0,2,
7ll,RSVPtest,1,g,true,969.5,0,b,,3,3,0,
7ll,RSVPtest,2,g,true,1095.2000000476837,0,b,,1,3,0,
7ll,RSVPtest,3,g,true,1013.2000000476837,1,r,,3,0,1,
7ll,RSVPtest,4,g,true,1336.5,1,r,,1,2,1,
7ll,RSVPtest,5,g,false,1160.7999999523163,2,g,,0,1,1,
7ll,RSVPtest,6,g,true,879.0999999046326,2,g,,0,0,2,
7ll,RSVPtest,7,g,false,1776.8999998569489,0,b,,1,3,0,
7ll,RSVPtest,8,g,false,800.2000000476837,0,b,,0,3,0,
7ll,RSVPtest,9,g,true,595.4000000953674,1,r,,0,2,1,
7ll,RSVPtest,10,g,true,1081,1,r,,2,2,2,
7ll,RSVPtest,11,g,false,1192.8999998569489,2,g,,3,0,1,
7ll,RSVPtest,12,g,false,1106.0999999046326,2,g,,3,2,1,
7ll,RSVPtest,13,g,true,731,1,r,,0,2,1,
7ll,RSVPtest,14,g,true,1227.2999999523163,0,b,,3,3,0,
7ll,RSVPtest,15,g,true,971.2000000476837,2,g,,1,0,1,
7ll,RSVPtest,16,g,true,761.2000000476837,0,b,,3,3,0,
7ll,RSVPtest,17,g,true,1147.7999999523163,0,b,,0,3,0,
7ll,RSVPtest,18,g,true,849.2000000476837,2,g,,1,2,1,
7ll,RSVPtest,19,g,true,1042.2999999523163,1,r,,3,1,1,
7ll,RSVPtest,20,g,true,1298.2000000476837,1,r,,3,2,1,
7ll,RSVPtest,21,g,true,888.4000000953674,0,b,,3,3,0,
7ll,RSVPtest,22,g,true,1390.9000000953674,1,r,,0,2,1,
7ll,RSVPtest,23,g,false,1777.6999998092651,1,r,,1,1,2,
7ll,RSVPtest,24,g,true,1567.0999999046326,1,r,,3,1,1,
7ll,RSVPtest,25,g,true,978.1000001430511,0,b,,0,3,0,
7ll,RSVPtest,26,g,true,1185,0,b,,3,3,0,
7ll,RSVPtest,27,g,true,760.5,0,b,,0,3,0,
7ll,RSVPtest,28,g,true,1064.6000001430511,1,r,,3,2,1,
7ll,RSVPtest,29,g,true,1107,2,g,,2,0,1,
7ll,RSVPtest,30,g,true,880,0,b,,3,3,0,
7ll,RSVPtest,31,g,true,864.9000000953674,0,b,,3,3,0,
7ll,RSVPtest,32,g,true,1033.4000000953674,2,g,,1,0,1,
7ll,RSVPtest,33,g,true,1354.2000000476837,1,r,,0,1,1,
7ll,RSVPtest,34,g,true,697,2,g,,3,0,1,
7ll,RSVPtest,35,g,true,858.5,1,r,,3,1,1,
7ll,RSVPtest,36,g,false,1116.8999998569489,2,g,,3,0,1,
7ll,RSVPtest,37,g,false,1066.2000000476837,0,b,,0,3,0,
7ll,RSVPtest,38,g,true,792.7000000476837,0,b,,2,3,0,
7ll,RSVPtest,39,g,true,1658.0999999046326,0,b,,3,3,0,
7ll,RSVPtest,40,g,true,762.2000000476837,2,g,,3,2,1,
7ll,RSVPtest,41,g,true,651.7000000476837,0,b,,2,3,0,
7ll,RSVPtest,42,g,true,682.7000000476837,1,r,,3,0,1,
7ll,RSVPtest,43,g,false,1145.2999999523163,0,b,,0,3,0,
7ll,RSVPtest,44,g,false,1344.5,1,r,,2,0,1,
7ll,RSVPtest,45,g,true,1015.2999999523163,2,g,,3,1,1,
7ll,RSVPtest,46,g,false,1160.7000000476837,0,b,,3,3,0,
7ll,RSVPtest,47,g,false,940.6999998092651,2,g,,3,1,1,
7ll,RSVPtest,48,g,true,1512.4000000953674,1,r,,3,0,1,
7ll,RSVPtest,49,g,true,1002.7000000476837,0,b,,1,3,0,
7ll,RSVPtest,50,g,true,1009,2,g,,2,0,1,
7ll,RSVPtest,51,g,true,838.5999999046326,1,r,,2,1,1,
7ll,RSVPtest,52,g,true,1009.2999999523163,2,g,,3,2,1,
7ll,RSVPtest,53,g,true,1786.2999999523163,0,b,,1,3,0,
7ll,RSVPtest,54,g,true,897.6000001430511,1,r,,0,0,2,
7ll,RSVPtest,55,g,true,1385.8999998569489,2,g,,3,1,1,
7ll,RSVPtest,56,g,false,1298.7000000476837,2,g,,3,2,1,
7ll,RSVPtest,57,g,true,769.9000000953674,2,g,,2,1,1,
7ll,RSVPtest,58,g,true,761.6000001430511,0,b,,1,3,0,
7ll,RSVPtest,59,g,true,856.6000001430511,2,g,,3,2,1,
7ll,RSVPtest,60,g,true,648.2999999523163,1,r,,0,0,2,
brk,brk,brk,brk,brk,brk,brk,brk,brk,brk,brk,brk,
7ll,RSVPtest,61,g,true,1295.0999999046326,1,r,,3,0,1,
7ll,RSVPtest,62,g,true,1409.3000001907349,1,r,,3,2,1,
7ll,RSVPtest,63,g,true,1118.2999999523163,1,r,,2,1,1,
7ll,RSVPtest,64,g,true,1241,1,r,,0,2,1,
7ll,RSVPtest,65,g,true,1043.7999999523163,1,r,,1,2,1,
7ll,RSVPtest,66,g,true,1537.2000000476837,0,b,,3,3,0,
7ll,RSVPtest,67,g,true,1009.1999998092651,1,r,,3,0,1,
7ll,RSVPtest,68,g,true,1112.1000001430511,2,g,,1,0,1,
7ll,RSVPtest,69,g,false,2016.5,2,g,,0,0,2,
7ll,RSVPtest,70,g,true,760.5,0,b,,3,3,0,
7ll,RSVPtest,71,g,true,731.7999999523163,0,b,,3,3,0,
7ll,RSVPtest,72,g,false,897.7000000476837,2,g,,3,1,1,
7ll,RSVPtest,73,g,true,1792.9000000953674,1,r,,3,2,1,
7ll,RSVPtest,74,g,true,1384.2000000476837,0,b,,2,3,0,
7ll,RSVPtest,75,g,true,999.9000000953674,2,g,,3,1,1,
7ll,RSVPtest,76,g,true,1466.6000001430511,1,r,,2,0,1,
7ll,RSVPtest,77,g,true,856.3999998569489,1,r,,3,2,1,
7ll,RSVPtest,78,g,true,894.4000000953674,1,r,,3,2,1,
7ll,RSVPtest,79,g,true,840.5999999046326,0,b,,3,3,0,
7ll,RSVPtest,80,g,true,799.7000000476837,2,g,,1,1,2,
7ll,RSVPtest,81,g,true,985.4000000953674,2,g,,0,0,2,
7ll,RSVPtest,82,g,true,871.9000000953674,0,b,,3,3,0,
7ll,RSVPtest,83,g,true,1058.7000000476837,2,g,,0,1,1,
7ll,RSVPtest,84,g,true,690.9000000953674,2,g,,3,0,1,
7ll,RSVPtest,85,g,true,1241,1,r,,1,0,1,
7ll,RSVPtest,86,g,true,906.9000000953674,2,g,,0,0,2,
7ll,RSVPtest,87,g,true,856.7999999523163,0,b,,2,3,0,
7ll,RSVPtest,88,g,true,993.2000000476837,2,g,,2,1,1,
7ll,RSVPtest,89,g,true,1706.5,2,g,,3,2,1,
7ll,RSVPtest,90,g,true,791.5999999046326,0,b,,3,3,0,
7ll,RSVPtest,91,g,true,1328.8999998569489,1,r,,3,2,1,
7ll,RSVPtest,92,g,true,1346.2000000476837,2,g,,1,1,2,
7ll,RSVPtest,93,g,true,951.9000000953674,0,b,,0,3,0,
7ll,RSVPtest,94,g,true,1001.7000000476837,0,b,,2,3,0,
7ll,RSVPtest,95,g,true,828,1,r,,2,0,1,
7ll,RSVPtest,96,g,null,null,0,b,,3,3,0,
7ll,RSVPtest,97,g,true,1025.2000000476837,2,g,,3,0,1,
7ll,RSVPtest,98,g,false,984,2,g,,0,0,2,
7ll,RSVPtest,99,g,true,776.9000000953674,2,g,,2,1,1,
7ll,RSVPtest,100,g,true,826.2999999523163,0,b,,3,3,0,
7ll,RSVPtest,101,g,true,953.6000001430511,1,r,,1,1,2,
7ll,RSVPtest,102,g,false,913.9000000953674,2,g,,2,2,2,
7ll,RSVPtest,103,g,true,850.4000000953674,1,r,,3,1,1,
7ll,RSVPtest,104,g,true,643.7000000476837,0,b,,1,3,0,
7ll,RSVPtest,105,g,true,1177.5999999046326,2,g,,0,2,1,
7ll,RSVPtest,106,g,true,1001.7000000476837,0,b,,3,3,0,
7ll,RSVPtest,107,g,true,656.3999998569489,2,g,,1,0,1,
7ll,RSVPtest,108,g,true,968.7999999523163,2,g,,3,1,1,
7ll,RSVPtest,109,g,true,662.2999999523163,2,g,,3,2,1,
7ll,RSVPtest,110,g,true,767.9000000953674,2,g,,2,2,2,
7ll,RSVPtest,111,g,true,1242.2000000476837,1,r,,1,2,1,
7ll,RSVPtest,112,g,true,630.7999999523163,0,b,,2,3,0,
7ll,RSVPtest,113,g,true,1024.8999998569489,2,g,,1,1,2,
7ll,RSVPtest,114,g,true,819,2,g,,3,1,1,
7ll,RSVPtest,115,g,true,797.7999999523163,1,r,,3,1,1,
7ll,RSVPtest,116,g,true,696.3999998569489,2,g,,3,2,1,
7ll,RSVPtest,117,g,true,1135.5999999046326,1,r,,3,1,1,
7ll,RSVPtest,118,g,true,1256.7000000476837,2,g,,2,2,2,
7ll,RSVPtest,119,g,true,1377.4000000953674,1,r,,0,1,1,
7ll,RSVPtest,120,g,true,654.2999999523163,1,r,,0,2,1,
brk,brk,brk,brk,brk,brk,brk,brk,brk,brk,brk,brk,
7ll,RSVPtest,121,g,true,843.3000001907349,1,r,,1,1,2,
7ll,RSVPtest,122,g,true,982.6999998092651,2,g,,2,1,1,
7ll,RSVPtest,123,g,true,591.7999999523163,1,r,,3,1,1,
7ll,RSVPtest,124,g,true,802.0999999046326,1,r,,3,1,1,
7ll,RSVPtest,125,g,true,1104.8999998569489,0,b,,0,3,0,
7ll,RSVPtest,126,g,true,601.2000000476837,1,r,,2,0,1,
7ll,RSVPtest,127,g,true,1247.8000001907349,2,g,,0,0,2,
7ll,RSVPtest,128,g,true,960.2999999523163,0,b,,1,3,0,
7ll,RSVPtest,129,g,true,992.7999999523163,2,g,,0,2,1,
7ll,RSVPtest,130,g,true,881.2000000476837,1,r,,1,2,1,
7ll,RSVPtest,131,g,true,823.6999998092651,2,g,,1,1,2,
7ll,RSVPtest,132,g,true,1209.9000000953674,0,b,,3,3,0,
7ll,RSVPtest,133,g,true,887.7999999523163,0,b,,1,3,0,
7ll,RSVPtest,134,g,true,744.7000000476837,1,r,,0,0,2,
7ll,RSVPtest,135,g,true,1432.8999998569489,0,b,,3,3,0,
7ll,RSVPtest,136,g,true,732.8999998569489,1,r,,2,0,1,
7ll,RSVPtest,137,g,true,682.5999999046326,2,g,,2,2,2,
7ll,RSVPtest,138,g,false,1445.5,2,g,,3,0,1,
7ll,RSVPtest,139,g,true,1464.4000000953674,1,r,,3,0,1,
7ll,RSVPtest,140,g,true,694.8999998569489,1,r,,1,2,1,
7ll,RSVPtest,141,g,true,895.8000001907349,2,g,,2,1,1,
7ll,RSVPtest,142,g,true,880.7000000476837,2,g,,3,0,1,
7ll,RSVPtest,143,g,true,976,2,g,,1,0,1,
7ll,RSVPtest,144,g,true,1552,2,g,,2,2,2,
7ll,RSVPtest,145,g,false,822.2000000476837,2,g,,3,1,1,
7ll,RSVPtest,146,g,true,1687.8999998569489,0,b,,2,3,0,
7ll,RSVPtest,147,g,true,807.7999999523163,2,g,,2,0,1,
7ll,RSVPtest,148,g,true,991,1,r,,1,1,2,
7ll,RSVPtest,149,g,true,1120.3999998569489,2,g,,1,2,1,
7ll,RSVPtest,150,g,true,1399,2,g,,3,2,1,
7ll,RSVPtest,151,g,true,900,1,r,,3,0,1,
7ll,RSVPtest,152,g,true,1272.7000000476837,1,r,,3,1,1,
7ll,RSVPtest,153,g,true,1111.6000001430511,1,r,,3,2,1,
7ll,RSVPtest,154,g,false,1134.7999999523163,1,r,,1,0,1,
7ll,RSVPtest,155,g,true,1183.4000000953674,2,g,,1,1,2,
7ll,RSVPtest,156,g,true,651.4000000953674,2,g,,1,2,1,
7ll,RSVPtest,157,g,true,593.1999998092651,1,r,,1,0,1,
7ll,RSVPtest,158,g,true,855.4000000953674,2,g,,0,2,1,
7ll,RSVPtest,159,g,true,928.1000001430511,0,b,,2,3,0,
7ll,RSVPtest,160,g,true,928.8000001907349,0,b,,0,3,0,
7ll,RSVPtest,161,g,true,783.2999999523163,0,b,,2,3,0,
7ll,RSVPtest,162,g,true,1110.7999999523163,1,r,,0,0,2,
7ll,RSVPtest,163,g,false,1135.2999999523163,2,g,,3,2,1,
7ll,RSVPtest,164,g,false,1247.5999999046326,1,r,,0,2,1,
7ll,RSVPtest,165,g,true,941.7999999523163,2,g,,3,0,1,
7ll,RSVPtest,166,g,true,912.4000000953674,2,g,,1,2,1,
7ll,RSVPtest,167,g,true,751,2,g,,1,2,1,
7ll,RSVPtest,168,g,true,1296.0999999046326,1,r,,2,2,2,
7ll,RSVPtest,169,g,true,911.6000001430511,1,r,,1,1,2,
7ll,RSVPtest,170,g,true,1102.9000000953674,2,g,,2,0,1,
7ll,RSVPtest,171,g,true,1005,1,r,,3,1,1,
7ll,RSVPtest,172,g,true,700.7999999523163,1,r,,2,2,2,
7ll,RSVPtest,173,g,true,722.7000000476837,2,g,,0,2,1,
7ll,RSVPtest,174,g,true,1457.0999999046326,2,g,,3,0,1,
7ll,RSVPtest,175,g,true,705.7999999523163,2,g,,0,1,1,
7ll,RSVPtest,176,g,true,541.8000001907349,2,g,,2,0,1,
7ll,RSVPtest,177,g,true,1271.5,2,g,,0,1,1,
7ll,RSVPtest,178,g,true,606.7000000476837,1,r,,2,0,1,
7ll,RSVPtest,179,g,true,760.0999999046326,1,r,,2,1,1,
7ll,RSVPtest,180,g,false,1095.5,1,r,,2,1,1,
brk,brk,brk,brk,brk,brk,brk,brk,brk,brk,brk,brk,
7ll,RSVPtest,181,g,true,671,0,b,,1,3,0,
7ll,RSVPtest,182,g,true,792.2999999523163,1,r,,2,2,2,
7ll,RSVPtest,183,g,true,1182.7999999523163,1,r,,2,2,2,
7ll,RSVPtest,184,g,true,974,2,g,,2,0,1,
7ll,RSVPtest,185,g,true,799.5,1,r,,0,1,1,
7ll,RSVPtest,186,g,true,982.7999999523163,2,g,,3,0,1,
7ll,RSVPtest,187,g,true,733.7999999523163,1,r,,1,1,2,
7ll,RSVPtest,188,g,true,732.8999998569489,2,g,,0,2,1,
7ll,RSVPtest,189,g,false,998.5,0,b,,0,3,0,
7ll,RSVPtest,190,g,true,1152.5999999046326,0,b,,2,3,0,
7ll,RSVPtest,191,g,true,968.5,2,g,,3,1,1,
7ll,RSVPtest,192,g,true,952.4000000953674,1,r,,3,2,1,
7ll,RSVPtest,193,g,true,694,1,r,,1,0,1,
7ll,RSVPtest,194,g,true,1288.7999999523163,1,r,,3,0,1,
7ll,RSVPtest,195,g,true,753.4000000953674,1,r,,0,0,2,
7ll,RSVPtest,196,g,true,629.9000000953674,0,b,,2,3,0,
7ll,RSVPtest,197,g,true,937,0,b,,3,3,0,
7ll,RSVPtest,198,g,true,1152.2000000476837,1,r,,3,0,1,
7ll,RSVPtest,199,g,true,972.4000000953674,1,r,,3,2,1,
7ll,RSVPtest,200,g,true,878.3999998569489,1,r,,3,0,1,
7ll,RSVPtest,201,g,true,856.1999998092651,1,r,,3,0,1,
7ll,RSVPtest,202,g,true,1540.8000001907349,1,r,,3,0,1,
7ll,RSVPtest,203,g,true,1092.2999999523163,1,r,,1,0,1,
7ll,RSVPtest,204,g,true,829.5,1,r,,3,1,1,
7ll,RSVPtest,205,g,true,1261.5999999046326,1,r,,3,2,1,
7ll,RSVPtest,206,g,true,942,1,r,,1,0,1,
7ll,RSVPtest,207,g,true,1267.9000000953674,1,r,,3,1,1,
7ll,RSVPtest,208,g,true,887.0999999046326,1,r,,0,1,1,
7ll,RSVPtest,209,g,true,1052.9000000953674,2,g,,0,2,1,
7ll,RSVPtest,210,g,true,928.1000001430511,1,r,,1,2,1,
7ll,RSVPtest,211,g,true,720.2999999523163,0,b,,1,3,0,
7ll,RSVPtest,212,g,false,1301.7000000476837,2,g,,3,0,1,
7ll,RSVPtest,213,g,true,765.7000000476837,2,g,,2,2,2,
7ll,RSVPtest,214,g,true,813.8999998569489,0,b,,2,3,0,
7ll,RSVPtest,215,g,true,926.7000000476837,2,g,,3,1,1,
7ll,RSVPtest,216,g,true,1011.0999999046326,1,r,,2,1,1,
7ll,RSVPtest,217,g,true,718.7000000476837,0,b,,0,3,0,
7ll,RSVPtest,218,g,true,806.7999999523163,2,g,,0,1,1,
7ll,RSVPtest,219,g,false,1463.9000000953674,2,g,,3,2,1,
7ll,RSVPtest,220,g,false,1418.6999998092651,1,r,,2,2,2,
7ll,RSVPtest,221,g,true,999.7000000476837,2,g,,2,1,1,
7ll,RSVPtest,222,g,true,1687.9000000953674,2,g,,3,2,1,
7ll,RSVPtest,223,g,true,790,1,r,,0,1,1,
7ll,RSVPtest,224,g,true,678.8000001907349,2,g,,1,2,1,
7ll,RSVPtest,225,g,true,926.4000000953674,2,g,,1,0,1,
7ll,RSVPtest,226,g,true,1359.4000000953674,0,b,,3,3,0,
7ll,RSVPtest,227,g,true,673.7999999523163,0,b,,1,3,0,
7ll,RSVPtest,228,g,true,1110.7000000476837,0,b,,1,3,0,
7ll,RSVPtest,229,g,true,1038.2000000476837,2,g,,3,1,1,
7ll,RSVPtest,230,g,true,1063,0,b,,3,3,0,
7ll,RSVPtest,231,g,true,1182,2,g,,0,1,1,
7ll,RSVPtest,232,g,true,1206.7000000476837,0,b,,3,3,0,
7ll,RSVPtest,233,g,true,855,1,r,,2,1,1,
7ll,RSVPtest,234,g,true,755.7999999523163,0,b,,0,3,0,
7ll,RSVPtest,235,g,true,1496.7000000476837,2,g,,3,1,1,
7ll,RSVPtest,236,g,true,781.1000001430511,1,r,,3,2,1,
7ll,RSVPtest,237,g,true,816.7000000476837,2,g,,1,1,2,
7ll,RSVPtest,238,g,true,991.0999999046326,1,r,,0,0,2,
7ll,RSVPtest,239,g,true,694.2000000476837,1,r,,0,1,1,
7ll,RSVPtest,240,g,true,748.5,2,g,,3,0,1,
