subID,trialType,trialNum,cntBalance,correct,rt,rwdType,tgtCol,tgtDir,tgtPos,colPos,colMatch,
tg9,VDACtrain,0,g,null,null,1,r,h,2,,,
tg9,VDACtrain,0,g,null,null,2,g,v,0,,,
tg9,VDACtrain,0,g,null,null,1,r,v,3,,,
tg9,VDACtrain,0,g,null,null,1,r,h,1,,,
tg9,VDACtrain,0,g,true,632.2999999523163,2,g,v,2,,,
tg9,VDACtrain,0,g,false,600.1000000238419,2,g,h,5,,,
tg9,VDACtrain,0,g,true,598.8999999761581,2,g,v,5,,,
tg9,VDACtrain,0,g,true,583.6000000238419,2,g,h,3,,,
tg9,VDACtrain,0,g,true,808,1,r,h,0,,,
tg9,VDACtrain,0,g,true,791.6000000238419,1,r,v,4,,,
tg9,VDACtest,1,g,true,570.8000000715256,2,g,h,3,,,
tg9,VDACtest,2,g,true,695.8999999761581,2,g,h,4,,,
tg9,VDACtest,3,g,true,662.2000000476837,2,g,h,2,,,
tg9,VDACtest,4,g,true,455,1,r,h,3,,,
tg9,VDACtest,5,g,false,742.7000000476837,1,r,h,0,,,
tg9,VDACtest,6,g,true,870,2,g,h,5,,,
tg9,VDACtest,7,g,false,888.1000000238419,2,g,h,1,,,
tg9,VDACtest,8,g,true,903.6999999284744,1,r,h,5,,,
tg9,VDACtest,9,g,true,772.7000000476837,2,g,v,1,,,
tg9,VDACtest,10,g,true,662.0999999046326,1,r,v,5,,,
tg9,VDACtest,11,g,true,600.3999999761581,2,g,h,5,,,
tg9,VDACtest,12,g,false,903.7000000476837,1,r,v,3,,,
tg9,VDACtest,13,g,true,615.7000000476837,2,g,h,2,,,
tg9,VDACtest,14,g,true,550.7000000476837,1,r,h,2,,,
tg9,VDACtest,15,g,false,516.9000000953674,2,g,v,3,,,
tg9,VDACtest,16,g,true,822.6000000238419,1,r,v,1,,,
tg9,VDACtest,17,g,true,632,1,r,v,2,,,
tg9,VDACtest,18,g,true,486.7000000476837,1,r,v,2,,,
tg9,VDACtest,19,g,true,709.4000000953674,1,r,v,4,,,
tg9,VDACtest,20,g,true,648.2999999523163,1,r,h,5,,,
tg9,VDACtest,21,g,true,934.9000000953674,2,g,v,1,,,
tg9,VDACtest,22,g,true,599.1000000238419,2,g,v,4,,,
tg9,VDACtest,23,g,true,648,1,r,v,1,,,
tg9,VDACtest,24,g,true,726.9000000953674,1,r,v,3,,,
tg9,VDACtest,25,g,true,568.1000000238419,2,g,v,1,,,
tg9,VDACtest,26,g,true,504.60000002384186,2,g,v,5,,,
tg9,VDACtest,27,g,false,824,1,r,h,4,,,
tg9,VDACtest,28,g,true,822.1000000238419,1,r,v,0,,,
tg9,VDACtest,29,g,true,807.6999999284744,1,r,v,3,,,
tg9,VDACtest,30,g,true,710.4000000953674,1,r,h,0,,,
tg9,VDACtest,31,g,true,567.9000000953674,1,r,v,1,,,
tg9,VDACtest,32,g,true,614.8999999761581,2,g,v,4,,,
tg9,VDACtest,33,g,true,501.6999999284744,2,g,v,0,,,
tg9,VDACtest,34,g,true,647.6999999284744,1,r,h,3,,,
tg9,VDACtest,35,g,false,664.3999999761581,2,g,v,2,,,
tg9,VDACtest,36,g,false,517.8999999761581,1,r,h,0,,,
tg9,VDACtest,37,g,true,536.0999999046326,1,r,v,5,,,
tg9,VDACtest,38,g,false,920.1000000238419,1,r,v,4,,,
tg9,VDACtest,39,g,true,727.4000000953674,2,g,v,5,,,
tg9,VDACtest,40,g,true,645.6000000238419,2,g,v,1,,,
tg9,VDACtest,41,g,true,503.5,2,g,v,1,,,
tg9,VDACtest,42,g,false,775,2,g,h,5,,,
tg9,VDACtest,43,g,true,647.6999999284744,2,g,h,0,,,
tg9,VDACtest,44,g,true,726.8999999761581,2,g,v,2,,,
tg9,VDACtest,45,g,true,727.3999999761581,2,g,h,1,,,
tg9,VDACtest,46,g,true,727.2999999523163,2,g,v,2,,,
tg9,VDACtest,47,g,true,584.6000000238419,1,r,h,5,,,
tg9,VDACtest,48,g,true,693.6000000238419,2,g,v,3,,,
tg9,VDACtest,49,g,true,615.6000000238419,2,g,h,2,,,
tg9,VDACtest,50,g,true,760,2,g,v,4,,,
brk,brk,brk,brk,brk,brk,brk,brk,brk,brk,brk,brk,
tg9,VDACtest,51,g,true,676.4000000953674,1,r,v,3,,,
tg9,VDACtest,52,g,true,533.1999999284744,1,r,v,5,,,
tg9,VDACtest,53,g,true,695.2999999523163,1,r,h,4,,,
tg9,VDACtest,54,g,true,551.5,1,r,v,0,,,
tg9,VDACtest,55,g,true,535.1999999284744,1,r,v,2,,,
tg9,VDACtest,56,g,true,568.0999999046326,2,g,h,2,,,
tg9,VDACtest,57,g,true,552.1000000238419,1,r,h,2,,,
tg9,VDACtest,58,g,false,454.39999997615814,1,r,v,2,,,
tg9,VDACtest,59,g,true,534.5,1,r,v,0,,,
tg9,VDACtest,60,g,true,664.2000000476837,1,r,h,4,,,
tg9,VDACtest,61,g,true,597.1999999284744,2,g,v,0,,,
tg9,VDACtest,62,g,true,535.6999999284744,2,g,h,2,,,
tg9,VDACtest,63,g,false,552.1000000238419,2,g,h,4,,,
tg9,VDACtest,64,g,false,743,1,r,h,1,,,
tg9,VDACtest,65,g,true,935.1000000238419,1,r,v,3,,,
tg9,VDACtest,66,g,true,552.3000000715256,1,r,h,3,,,
tg9,VDACtest,67,g,true,983.2999999523163,2,g,v,1,,,
tg9,VDACtest,68,g,true,774.6000000238419,2,g,v,0,,,
tg9,VDACtest,69,g,true,568.5,1,r,h,2,,,
tg9,VDACtest,70,g,true,710.2999999523163,2,g,v,5,,,
tg9,VDACtest,71,g,true,597.2999999523163,2,g,h,4,,,
tg9,VDACtest,72,g,true,727.8999999761581,2,g,v,1,,,
tg9,VDACtest,73,g,true,565.2000000476837,2,g,h,3,,,
tg9,VDACtest,74,g,true,567.3999999761581,2,g,h,3,,,
tg9,VDACtest,75,g,true,647.3000000715256,1,r,h,5,,,
tg9,VDACtest,76,g,true,839.2000000476837,2,g,v,2,,,
tg9,VDACtest,77,g,true,839.5,1,r,h,3,,,
tg9,VDACtest,78,g,true,645.2000000476837,2,g,h,1,,,
tg9,VDACtest,79,g,true,470.1999999284744,2,g,h,1,,,
tg9,VDACtest,80,g,true,759.7999999523163,1,r,v,4,,,
tg9,VDACtest,81,g,true,614.8999999761581,1,r,v,1,,,
tg9,VDACtest,82,g,true,550.2999999523163,1,r,v,1,,,
tg9,VDACtest,83,g,true,550.7999999523163,2,g,v,0,,,
tg9,VDACtest,84,g,true,632.3999999761581,1,r,v,0,,,
tg9,VDACtest,85,g,true,499.89999997615814,1,r,v,0,,,
tg9,VDACtest,86,g,true,759.2999999523163,2,g,v,3,,,
tg9,VDACtest,87,g,true,567.7000000476837,1,r,h,1,,,
tg9,VDACtest,88,g,true,485.7999999523163,1,r,h,1,,,
tg9,VDACtest,89,g,true,517.6999999284744,1,r,h,0,,,
tg9,VDACtest,90,g,true,486,1,r,h,2,,,
tg9,VDACtest,91,g,true,680.2000000476837,1,r,v,2,,,
tg9,VDACtest,92,g,true,518.7999999523163,1,r,v,5,,,
tg9,VDACtest,93,g,true,742.5999999046326,2,g,h,1,,,
tg9,VDACtest,94,g,true,677.8999999761581,1,r,h,1,,,
tg9,VDACtest,95,g,true,774.8999999761581,1,r,v,2,,,
tg9,VDACtest,96,g,true,791.8999999761581,2,g,v,0,,,
tg9,VDACtest,97,g,true,694.2999999523163,1,r,v,2,,,
tg9,VDACtest,98,g,true,679.5,2,g,h,4,,,
tg9,VDACtest,99,g,true,519.6999999284744,1,r,h,0,,,
tg9,VDACtest,100,g,true,517.6000000238419,2,g,h,2,,,
brk,brk,brk,brk,brk,brk,brk,brk,brk,brk,brk,brk,
tg9,VDACtest,101,g,true,641.1999999284744,2,g,h,0,,,
tg9,VDACtest,102,g,true,565.7000000476837,2,g,h,5,,,
tg9,VDACtest,103,g,true,614,2,g,h,1,,,
tg9,VDACtest,104,g,true,503.2999999523163,2,g,h,0,,,
tg9,VDACtest,105,g,true,517.5,2,g,v,4,,,
tg9,VDACtest,106,g,null,null,1,r,h,3,,,
tg9,VDACtest,107,g,true,660.5999999046326,2,g,v,4,,,
tg9,VDACtest,108,g,true,758.6000000238419,2,g,v,1,,,
tg9,VDACtest,109,g,false,680.3999999761581,2,g,h,5,,,
tg9,VDACtest,110,g,true,518.7999999523163,2,g,h,4,,,
tg9,VDACtest,111,g,false,470.5,2,g,v,2,,,
tg9,VDACtest,112,g,false,615.6000000238419,2,g,v,2,,,
tg9,VDACtest,113,g,true,807.6000000238419,1,r,v,0,,,
tg9,VDACtest,114,g,true,694,1,r,h,5,,,
tg9,VDACtest,115,g,true,648.8000000715256,2,g,h,3,,,
tg9,VDACtest,116,g,true,519.1999999284744,2,g,h,3,,,
tg9,VDACtest,117,g,true,661.2000000476837,1,r,v,3,,,
tg9,VDACtest,118,g,true,599.3000000715256,1,r,h,1,,,
tg9,VDACtest,119,g,true,695.3999999761581,2,g,v,0,,,
tg9,VDACtest,120,g,true,644.8999999761581,2,g,v,0,,,
tg9,VDACtest,121,g,true,631.3999999761581,2,g,h,4,,,
tg9,VDACtest,122,g,true,536.1000000238419,2,g,v,4,,,
tg9,VDACtest,123,g,true,517.6000000238419,1,r,h,0,,,
tg9,VDACtest,124,g,true,486.60000002384186,1,r,h,4,,,
tg9,VDACtest,125,g,true,614.8999999761581,1,r,v,1,,,
tg9,VDACtest,126,g,true,565.5,1,r,v,2,,,
tg9,VDACtest,127,g,true,680.1999999284744,2,g,h,1,,,
tg9,VDACtest,128,g,true,551.8999999761581,2,g,h,0,,,
tg9,VDACtest,129,g,true,613,2,g,v,0,,,
tg9,VDACtest,130,g,true,615.9000000953674,1,r,h,2,,,
tg9,VDACtest,131,g,true,536.2999999523163,1,r,h,1,,,
tg9,VDACtest,132,g,true,646.6000000238419,2,g,v,5,,,
tg9,VDACtest,133,g,true,742,1,r,h,5,,,
tg9,VDACtest,134,g,true,583.5,1,r,v,5,,,
tg9,VDACtest,135,g,true,551.6000000238419,2,g,h,5,,,
tg9,VDACtest,136,g,true,742.2000000476837,1,r,v,4,,,
tg9,VDACtest,137,g,true,631.8999999761581,2,g,v,4,,,
tg9,VDACtest,138,g,true,584,1,r,v,1,,,
tg9,VDACtest,139,g,false,455.7000000476837,2,g,v,3,,,
tg9,VDACtest,140,g,true,646.6999999284744,1,r,v,1,,,
tg9,VDACtest,141,g,true,502.5,1,r,h,3,,,
tg9,VDACtest,142,g,true,502.60000002384186,1,r,h,2,,,
tg9,VDACtest,143,g,true,487.1999999284744,1,r,h,1,,,
tg9,VDACtest,144,g,true,501.7999999523163,2,g,h,1,,,
tg9,VDACtest,145,g,true,549.8999999761581,1,r,h,0,,,
tg9,VDACtest,146,g,true,568.3999999761581,1,r,v,4,,,
tg9,VDACtest,147,g,true,469.1999999284744,2,g,h,5,,,
tg9,VDACtest,148,g,true,502.8000000715256,2,g,h,2,,,
tg9,VDACtest,149,g,true,565.2999999523163,1,r,h,0,,,
tg9,VDACtest,150,g,true,550.2000000476837,2,g,h,0,,,
brk,brk,brk,brk,brk,brk,brk,brk,brk,brk,brk,brk,
tg9,VDACtest,151,g,true,579.7000000476837,2,g,v,2,,,
tg9,VDACtest,152,g,true,453.3000000715256,2,g,v,5,,,
tg9,VDACtest,153,g,true,518.8999999761581,1,r,v,4,,,
tg9,VDACtest,154,g,true,568.2999999523163,1,r,h,1,,,
tg9,VDACtest,155,g,true,518.9000000953674,1,r,v,3,,,
tg9,VDACtest,156,g,true,519,1,r,v,5,,,
tg9,VDACtest,157,g,false,646.3000000715256,2,g,h,4,,,
tg9,VDACtest,158,g,true,503.5,2,g,h,3,,,
tg9,VDACtest,159,g,true,549.9000000953674,1,r,h,4,,,
tg9,VDACtest,160,g,true,504.3000000715256,2,g,v,4,,,
tg9,VDACtest,161,g,true,598.0999999046326,2,g,v,4,,,
tg9,VDACtest,162,g,true,549.1000000238419,2,g,h,5,,,
tg9,VDACtest,163,g,true,581.7000000476837,2,g,v,3,,,
tg9,VDACtest,164,g,true,743.6999999284744,1,r,v,4,,,
tg9,VDACtest,165,g,true,502.6999999284744,1,r,h,4,,,
tg9,VDACtest,166,g,true,613.6000000238419,1,r,v,3,,,
tg9,VDACtest,167,g,true,518.3999999761581,1,r,h,2,,,
tg9,VDACtest,168,g,true,679.0999999046326,2,g,v,2,,,
tg9,VDACtest,169,g,true,519.9000000953674,1,r,h,2,,,
tg9,VDACtest,170,g,true,551.5,2,g,h,1,,,
tg9,VDACtest,171,g,true,534.2999999523163,1,r,h,4,,,
tg9,VDACtest,172,g,true,470.2000000476837,2,g,h,0,,,
tg9,VDACtest,173,g,true,597.6000000238419,2,g,v,3,,,
tg9,VDACtest,174,g,true,968,1,r,h,5,,,
tg9,VDACtest,175,g,true,437.89999997615814,2,g,v,5,,,
tg9,VDACtest,176,g,true,534.5,2,g,h,4,,,
tg9,VDACtest,177,g,true,584.2999999523163,2,g,v,1,,,
tg9,VDACtest,178,g,false,631.7000000476837,1,r,v,4,,,
tg9,VDACtest,179,g,true,565.7000000476837,2,g,h,0,,,
tg9,VDACtest,180,g,true,583.5999999046326,2,g,h,3,,,
tg9,VDACtest,181,g,true,791.3000000715256,1,r,h,3,,,
tg9,VDACtest,182,g,true,836.8999999761581,1,r,v,4,,,
tg9,VDACtest,183,g,true,504.10000002384186,1,r,v,0,,,
tg9,VDACtest,184,g,true,644.2000000476837,1,r,v,5,,,
tg9,VDACtest,185,g,true,485.59999990463257,1,r,h,4,,,
tg9,VDACtest,186,g,true,518.7999999523163,2,g,v,5,,,
tg9,VDACtest,187,g,true,872,1,r,h,3,,,
tg9,VDACtest,188,g,true,566.1000000238419,2,g,h,3,,,
tg9,VDACtest,189,g,false,854.6999999284744,1,r,h,1,,,
tg9,VDACtest,190,g,true,809.3000000715256,1,r,v,1,,,
tg9,VDACtest,191,g,true,533.6000000238419,2,g,h,0,,,
tg9,VDACtest,192,g,true,454.5,2,g,h,2,,,
tg9,VDACtest,193,g,true,693.5,2,g,v,3,,,
tg9,VDACtest,194,g,true,533.0999999046326,1,r,h,5,,,
tg9,VDACtest,195,g,true,566.1999999284744,2,g,v,3,,,
tg9,VDACtest,196,g,true,535.2000000476837,2,g,v,5,,,
tg9,VDACtest,197,g,true,534.2999999523163,1,r,v,5,,,
tg9,VDACtest,198,g,true,775.2999999523163,1,r,v,0,,,
tg9,VDACtest,199,g,true,520.1999999284744,2,g,h,4,,,
tg9,VDACtest,200,g,true,533.6000000238419,1,r,h,4,,,
tg9,RSVPtrain,0,g,false,426.7999999523163,0,b,,0,3,0,
tg9,RSVPtrain,0,g,true,887.4000000953674,1,r,,1,1,2,
tg9,RSVPtrain,0,g,true,826.5,2,g,,3,1,1,
tg9,RSVPtrain,0,g,true,761.2000000476837,2,g,,3,0,1,
tg9,RSVPtrain,0,g,false,1547.3999999761581,2,g,,1,0,1,
tg9,RSVPtrain,0,g,true,828.5,0,b,,3,3,0,
tg9,RSVPtrain,0,g,false,936.5,2,g,,2,2,2,
tg9,RSVPtrain,0,g,true,1610.5,1,r,,0,0,2,
tg9,RSVPtrain,0,g,false,970.1000000238419,0,b,,1,3,0,
tg9,RSVPtrain,0,g,true,1386.3999999761581,1,r,,3,2,1,
tg9,RSVPtest,1,g,false,958.5,1,r,,3,2,1,
tg9,RSVPtest,2,g,false,1257.8000000715256,1,r,,2,0,1,
tg9,RSVPtest,3,g,true,1035.0999999046326,2,g,,3,1,1,
tg9,RSVPtest,4,g,true,920.8999999761581,2,g,,0,1,1,
tg9,RSVPtest,5,g,true,1082,2,g,,3,0,1,
tg9,RSVPtest,6,g,false,713.8000000715256,2,g,,0,0,2,
tg9,RSVPtest,7,g,true,1260.1999999284744,1,r,,0,2,1,
tg9,RSVPtest,8,g,true,855.3999999761581,2,g,,0,1,1,
tg9,RSVPtest,9,g,true,1433.2000000476837,2,g,,2,2,2,
tg9,RSVPtest,10,g,true,922.5,2,g,,3,0,1,
tg9,RSVPtest,11,g,true,952.2999999523163,1,r,,3,0,1,
tg9,RSVPtest,12,g,true,874.6000000238419,1,r,,1,0,1,
tg9,RSVPtest,13,g,true,748.0999999046326,1,r,,2,1,1,
tg9,RSVPtest,14,g,false,1561.3000000715256,0,b,,0,3,0,
tg9,RSVPtest,15,g,true,665.8999999761581,2,g,,3,0,1,
tg9,RSVPtest,16,g,true,922.6000000238419,2,g,,0,1,1,
tg9,RSVPtest,17,g,true,617.5,1,r,,0,1,1,
tg9,RSVPtest,18,g,true,743,2,g,,1,1,2,
tg9,RSVPtest,19,g,true,1257.7999999523163,1,r,,0,1,1,
tg9,RSVPtest,20,g,true,793.0999999046326,2,g,,3,0,1,
tg9,RSVPtest,21,g,false,809.3999999761581,2,g,,0,0,2,
tg9,RSVPtest,22,g,true,537.9000000953674,1,r,,0,0,2,
tg9,RSVPtest,23,g,true,1053.6000000238419,0,b,,0,3,0,
tg9,RSVPtest,24,g,true,715.5,2,g,,3,2,1,
tg9,RSVPtest,25,g,false,753.5999999046326,0,b,,3,3,0,
tg9,RSVPtest,26,g,true,720.2000000476837,0,b,,0,3,0,
tg9,RSVPtest,27,g,true,684.5,1,r,,3,0,1,
tg9,RSVPtest,28,g,true,504.7000000476837,1,r,,1,1,2,
tg9,RSVPtest,29,g,true,504.60000002384186,0,b,,0,3,0,
tg9,RSVPtest,30,g,true,678.4000000953674,2,g,,3,2,1,
tg9,RSVPtest,31,g,true,519,2,g,,2,0,1,
tg9,RSVPtest,32,g,true,697.7000000476837,0,b,,3,3,0,
tg9,RSVPtest,33,g,true,667.1000000238419,2,g,,3,0,1,
tg9,RSVPtest,34,g,false,872.8000000715256,1,r,,0,0,2,
tg9,RSVPtest,35,g,true,1225.6000000238419,1,r,,3,2,1,
tg9,RSVPtest,36,g,true,873.7999999523163,0,b,,3,3,0,
tg9,RSVPtest,37,g,true,569.2999999523163,2,g,,1,2,1,
tg9,RSVPtest,38,g,true,682.2999999523163,0,b,,2,3,0,
tg9,RSVPtest,39,g,true,728.3999999761581,0,b,,0,3,0,
tg9,RSVPtest,40,g,false,1273.3999999761581,1,r,,3,1,1,
tg9,RSVPtest,41,g,true,664.3999999761581,2,g,,1,0,1,
tg9,RSVPtest,42,g,true,760.8000000715256,1,r,,2,0,1,
tg9,RSVPtest,43,g,false,1802.1000000238419,2,g,,2,1,1,
tg9,RSVPtest,44,g,true,758.1999999284744,1,r,,3,0,1,
tg9,RSVPtest,45,g,false,872.1000000238419,1,r,,1,1,2,
tg9,RSVPtest,46,g,true,725.8999999761581,0,b,,0,3,0,
tg9,RSVPtest,47,g,true,889.8000000715256,1,r,,3,2,1,
tg9,RSVPtest,48,g,true,792.2999999523163,1,r,,3,2,1,
tg9,RSVPtest,49,g,true,791.5,2,g,,3,1,1,
tg9,RSVPtest,50,g,true,680.0999999046326,1,r,,1,2,1,
tg9,RSVPtest,51,g,true,678.2000000476837,1,r,,3,2,1,
tg9,RSVPtest,52,g,true,696.8999999761581,2,g,,1,0,1,
tg9,RSVPtest,53,g,true,728.6000000238419,1,r,,3,1,1,
tg9,RSVPtest,54,g,true,680.6999999284744,1,r,,2,0,1,
tg9,RSVPtest,55,g,true,1064.6000000238419,2,g,,2,0,1,
tg9,RSVPtest,56,g,true,649.5,2,g,,3,1,1,
tg9,RSVPtest,57,g,true,791.3999999761581,2,g,,1,2,1,
tg9,RSVPtest,58,g,true,667.1999999284744,0,b,,3,3,0,
tg9,RSVPtest,59,g,true,667.8000000715256,2,g,,3,0,1,
tg9,RSVPtest,60,g,false,666.5,0,b,,2,3,0,
brk,brk,brk,brk,brk,brk,brk,brk,brk,brk,brk,brk,
tg9,RSVPtest,61,g,true,618.3000000715256,2,g,,3,1,1,
tg9,RSVPtest,62,g,false,1302.2999999523163,1,r,,3,0,1,
tg9,RSVPtest,63,g,false,839.1000000238419,2,g,,1,1,2,
tg9,RSVPtest,64,g,true,712.2999999523163,0,b,,2,3,0,
tg9,RSVPtest,65,g,true,679.8000000715256,0,b,,2,3,0,
tg9,RSVPtest,66,g,true,680.6999999284744,1,r,,1,0,1,
tg9,RSVPtest,67,g,true,713.3000000715256,0,b,,3,3,0,
tg9,RSVPtest,68,g,true,1144.6000000238419,2,g,,2,1,1,
tg9,RSVPtest,69,g,true,807.2999999523163,2,g,,0,1,1,
tg9,RSVPtest,70,g,true,761.5,1,r,,3,1,1,
tg9,RSVPtest,71,g,true,538.0999999046326,2,g,,1,1,2,
tg9,RSVPtest,72,g,true,614.7999999523163,0,b,,1,3,0,
tg9,RSVPtest,73,g,true,632.7999999523163,0,b,,3,3,0,
tg9,RSVPtest,74,g,true,729.3999999761581,1,r,,3,2,1,
tg9,RSVPtest,75,g,false,969,0,b,,3,3,0,
tg9,RSVPtest,76,g,true,647,1,r,,1,2,1,
tg9,RSVPtest,77,g,false,759.6000000238419,2,g,,1,2,1,
tg9,RSVPtest,78,g,true,616.2999999523163,0,b,,1,3,0,
tg9,RSVPtest,79,g,false,809.0999999046326,2,g,,0,1,1,
tg9,RSVPtest,80,g,false,902.3999999761581,0,b,,2,3,0,
tg9,RSVPtest,81,g,false,649.0999999046326,0,b,,3,3,0,
tg9,RSVPtest,82,g,true,1624.1000000238419,1,r,,0,1,1,
tg9,RSVPtest,83,g,true,793.5,1,r,,2,2,2,
tg9,RSVPtest,84,g,true,886.3999999761581,1,r,,3,1,1,
tg9,RSVPtest,85,g,false,1015.6999999284744,2,g,,3,1,1,
tg9,RSVPtest,86,g,true,776.2000000476837,0,b,,3,3,0,
tg9,RSVPtest,87,g,true,599.5999999046326,0,b,,0,3,0,
tg9,RSVPtest,88,g,true,744.3999999761581,2,g,,2,1,1,
tg9,RSVPtest,89,g,false,826,2,g,,1,0,1,
tg9,RSVPtest,90,g,true,709.5,0,b,,0,3,0,
tg9,RSVPtest,91,g,true,824.6999999284744,1,r,,3,2,1,
tg9,RSVPtest,92,g,true,1016.5,2,g,,1,2,1,
tg9,RSVPtest,93,g,true,838.3999999761581,1,r,,3,0,1,
tg9,RSVPtest,94,g,true,999.1000000238419,2,g,,2,1,1,
tg9,RSVPtest,95,g,true,648.0999999046326,0,b,,2,3,0,
tg9,RSVPtest,96,g,false,744.3000000715256,2,g,,1,1,2,
tg9,RSVPtest,97,g,true,649.1999999284744,1,r,,0,1,1,
tg9,RSVPtest,98,g,true,710.8000000715256,0,b,,3,3,0,
tg9,RSVPtest,99,g,true,728.6999999284744,0,b,,1,3,0,
tg9,RSVPtest,100,g,true,1079.4000000953674,2,g,,0,1,1,
tg9,RSVPtest,101,g,true,1112.5,0,b,,1,3,0,
tg9,RSVPtest,102,g,true,661.6000000238419,2,g,,3,2,1,
tg9,RSVPtest,103,g,true,871.1000000238419,1,r,,0,2,1,
tg9,RSVPtest,104,g,true,759,2,g,,0,2,1,
tg9,RSVPtest,105,g,true,776.6999999284744,1,r,,3,1,1,
tg9,RSVPtest,106,g,false,1239.5,1,r,,1,1,2,
tg9,RSVPtest,107,g,false,1369.8999999761581,1,r,,3,0,1,
tg9,RSVPtest,108,g,true,759.1000000238419,1,r,,3,1,1,
tg9,RSVPtest,109,g,true,760,1,r,,3,0,1,
tg9,RSVPtest,110,g,true,1381.7000000476837,1,r,,3,2,1,
tg9,RSVPtest,111,g,true,1049.2999999523163,2,g,,0,0,2,
tg9,RSVPtest,112,g,true,584.3999999761581,0,b,,2,3,0,
tg9,RSVPtest,113,g,true,697.3999999761581,1,r,,0,2,1,
tg9,RSVPtest,114,g,true,889.1000000238419,2,g,,1,1,2,
tg9,RSVPtest,115,g,true,646.2999999523163,0,b,,0,3,0,
tg9,RSVPtest,116,g,false,967.2000000476837,1,r,,2,1,1,
tg9,RSVPtest,117,g,true,791,0,b,,2,3,0,
tg9,RSVPtest,118,g,false,1480.8000000715256,0,b,,1,3,0,
tg9,RSVPtest,119,g,false,1046.8999999761581,1,r,,0,1,1,
tg9,RSVPtest,120,g,true,743.3000000715256,0,b,,3,3,0,
brk,brk,brk,brk,brk,brk,brk,brk,brk,brk,brk,brk,
tg9,RSVPtest,121,g,true,431.89999997615814,1,r,,1,0,1,
tg9,RSVPtest,122,g,true,456.09999990463257,1,r,,0,2,1,
tg9,RSVPtest,123,g,true,711.2999999523163,0,b,,3,3,0,
tg9,RSVPtest,124,g,true,725.0999999046326,2,g,,3,2,1,
tg9,RSVPtest,125,g,false,854.6000000238419,2,g,,3,0,1,
tg9,RSVPtest,126,g,false,1351.3999999761581,1,r,,2,0,1,
tg9,RSVPtest,127,g,true,1414.7000000476837,2,g,,3,2,1,
tg9,RSVPtest,128,g,true,710.2000000476837,2,g,,0,2,1,
tg9,RSVPtest,129,g,true,1175.1000000238419,2,g,,0,0,2,
tg9,RSVPtest,130,g,true,2086.6999999284744,1,r,,2,2,2,
tg9,RSVPtest,131,g,true,820.6000000238419,1,r,,3,0,1,
tg9,RSVPtest,132,g,true,666.2000000476837,1,r,,0,0,2,
tg9,RSVPtest,133,g,true,790.8000000715256,2,g,,3,1,1,
tg9,RSVPtest,134,g,true,2024.7999999523163,2,g,,3,0,1,
tg9,RSVPtest,135,g,true,1287.2999999523163,2,g,,3,1,1,
tg9,RSVPtest,136,g,false,2486.6999999284744,2,g,,3,0,1,
tg9,RSVPtest,137,g,true,819.5,0,b,,2,3,0,
tg9,RSVPtest,138,g,true,1000.7999999523163,1,r,,0,0,2,
tg9,RSVPtest,139,g,true,742.3999999761581,0,b,,3,3,0,
tg9,RSVPtest,140,g,true,1463.3999999761581,2,g,,3,2,1,
tg9,RSVPtest,141,g,true,724.8999999761581,2,g,,3,2,1,
tg9,RSVPtest,142,g,true,806.7999999523163,2,g,,1,0,1,
tg9,RSVPtest,143,g,true,533.7000000476837,1,r,,2,2,2,
tg9,RSVPtest,144,g,false,1142.2999999523163,0,b,,1,3,0,
tg9,RSVPtest,145,g,true,534.6000000238419,2,g,,1,0,1,
tg9,RSVPtest,146,g,true,647.3999999761581,2,g,,1,2,1,
tg9,RSVPtest,147,g,true,473.2000000476837,2,g,,0,0,2,
tg9,RSVPtest,148,g,true,661.5,0,b,,3,3,0,
tg9,RSVPtest,149,g,true,1799.5,2,g,,3,0,1,
tg9,RSVPtest,150,g,true,1493.5,2,g,,2,0,1,
tg9,RSVPtest,151,g,null,null,1,r,,3,2,1,
tg9,RSVPtest,152,g,false,695.3999999761581,1,r,,3,1,1,
tg9,RSVPtest,153,g,false,838.7000000476837,2,g,,1,0,1,
tg9,RSVPtest,154,g,true,695.7999999523163,2,g,,0,2,1,
tg9,RSVPtest,155,g,true,742.3999999761581,1,r,,3,0,1,
tg9,RSVPtest,156,g,true,934.8999999761581,1,r,,2,0,1,
tg9,RSVPtest,157,g,true,791.5,0,b,,2,3,0,
tg9,RSVPtest,158,g,true,501.7000000476837,1,r,,1,2,1,
tg9,RSVPtest,159,g,true,534.5999999046326,2,g,,0,2,1,
tg9,RSVPtest,160,g,false,693.7000000476837,2,g,,3,2,1,
tg9,RSVPtest,161,g,false,741.7999999523163,1,r,,3,1,1,
tg9,RSVPtest,162,g,false,790.2000000476837,0,b,,1,3,0,
tg9,RSVPtest,163,g,true,502.8000000715256,0,b,,1,3,0,
tg9,RSVPtest,164,g,false,760,2,g,,2,2,2,
tg9,RSVPtest,165,g,true,726.4000000953674,0,b,,3,3,0,
tg9,RSVPtest,166,g,false,680.3999999761581,1,r,,3,2,1,
tg9,RSVPtest,167,g,true,631.4000000953674,2,g,,1,1,2,
tg9,RSVPtest,168,g,true,454.89999997615814,1,r,,1,1,2,
tg9,RSVPtest,169,g,true,1063.5999999046326,1,r,,1,1,2,
tg9,RSVPtest,170,g,true,806.7000000476837,2,g,,2,0,1,
tg9,RSVPtest,171,g,true,745.2000000476837,1,r,,3,2,1,
tg9,RSVPtest,172,g,true,900.1000000238419,1,r,,1,2,1,
tg9,RSVPtest,173,g,true,927.5,0,b,,3,3,0,
tg9,RSVPtest,174,g,true,471.2000000476837,1,r,,1,2,1,
tg9,RSVPtest,175,g,false,1175,2,g,,3,1,1,
tg9,RSVPtest,176,g,false,579.5,0,b,,3,3,0,
tg9,RSVPtest,177,g,true,1237.9000000953674,0,b,,3,3,0,
tg9,RSVPtest,178,g,true,756.1000000238419,1,r,,2,2,2,
tg9,RSVPtest,179,g,false,1319,2,g,,2,1,1,
tg9,RSVPtest,180,g,true,583,0,b,,0,3,0,
brk,brk,brk,brk,brk,brk,brk,brk,brk,brk,brk,brk,
tg9,RSVPtest,181,g,true,411.7000000476837,1,r,,2,1,1,
tg9,RSVPtest,182,g,true,630.7000000476837,1,r,,0,1,1,
tg9,RSVPtest,183,g,true,1016.0999999046326,0,b,,3,3,0,
tg9,RSVPtest,184,g,false,1140.1000000238419,1,r,,2,1,1,
tg9,RSVPtest,185,g,true,774.1999999284744,1,r,,3,0,1,
tg9,RSVPtest,186,g,true,852.6000000238419,0,b,,3,3,0,
tg9,RSVPtest,187,g,true,693.6000000238419,2,g,,2,2,2,
tg9,RSVPtest,188,g,true,646.7000000476837,0,b,,0,3,0,
tg9,RSVPtest,189,g,true,614.8999999761581,0,b,,0,3,0,
tg9,RSVPtest,190,g,true,611.7000000476837,2,g,,0,0,2,
tg9,RSVPtest,191,g,true,680.2999999523163,2,g,,3,2,1,
tg9,RSVPtest,192,g,true,430.7000000476837,2,g,,2,2,2,
tg9,RSVPtest,193,g,true,821.5,2,g,,3,2,1,
tg9,RSVPtest,194,g,true,727.3000000715256,0,b,,3,3,0,
tg9,RSVPtest,195,g,false,1335.6999999284744,2,g,,0,2,1,
tg9,RSVPtest,196,g,true,1013.1000000238419,0,b,,3,3,0,
tg9,RSVPtest,197,g,true,1447.1999999284744,1,r,,3,0,1,
tg9,RSVPtest,198,g,true,643.8000000715256,0,b,,1,3,0,
tg9,RSVPtest,199,g,false,1799.1000000238419,2,g,,3,0,1,
tg9,RSVPtest,200,g,true,774.6000000238419,2,g,,2,2,2,
tg9,RSVPtest,201,g,true,743,1,r,,3,1,1,
tg9,RSVPtest,202,g,true,1173,2,g,,3,2,1,
tg9,RSVPtest,203,g,true,517.7000000476837,1,r,,2,0,1,
tg9,RSVPtest,204,g,true,725.4000000953674,1,r,,3,0,1,
tg9,RSVPtest,205,g,true,949.3999999761581,0,b,,2,3,0,
tg9,RSVPtest,206,g,true,756.8000000715256,2,g,,3,2,1,
tg9,RSVPtest,207,g,true,582.6000000238419,1,r,,1,2,1,
tg9,RSVPtest,208,g,true,838,2,g,,1,2,1,
tg9,RSVPtest,209,g,true,534.2000000476837,1,r,,2,1,1,
tg9,RSVPtest,210,g,true,756.3000000715256,2,g,,3,0,1,
tg9,RSVPtest,211,g,true,901.1000000238419,0,b,,3,3,0,
tg9,RSVPtest,212,g,false,727.1000000238419,0,b,,3,3,0,
tg9,RSVPtest,213,g,true,582.3999999761581,2,g,,2,1,1,
tg9,RSVPtest,214,g,true,630,1,r,,0,2,1,
tg9,RSVPtest,215,g,true,613.8999999761581,2,g,,0,2,1,
tg9,RSVPtest,216,g,false,1319.5999999046326,0,b,,1,3,0,
tg9,RSVPtest,217,g,true,838.5,1,r,,3,1,1,
tg9,RSVPtest,218,g,false,693.3999999761581,2,g,,3,1,1,
tg9,RSVPtest,219,g,true,579.7000000476837,1,r,,0,0,2,
tg9,RSVPtest,220,g,true,519.7999999523163,1,r,,2,2,2,
tg9,RSVPtest,221,g,true,533.1000000238419,2,g,,2,0,1,
tg9,RSVPtest,222,g,true,661.6999999284744,1,r,,3,1,1,
tg9,RSVPtest,223,g,true,517.3999999761581,1,r,,1,0,1,
tg9,RSVPtest,224,g,true,1189,0,b,,1,3,0,
tg9,RSVPtest,225,g,true,485.3000000715256,1,r,,0,0,2,
tg9,RSVPtest,226,g,true,646.8999999761581,1,r,,3,1,1,
tg9,RSVPtest,227,g,true,533.2999999523163,1,r,,1,0,1,
tg9,RSVPtest,228,g,true,532.1999999284744,2,g,,2,0,1,
tg9,RSVPtest,229,g,false,951.3000000715256,2,g,,3,1,1,
tg9,RSVPtest,230,g,true,595.8000000715256,0,b,,1,3,0,
tg9,RSVPtest,231,g,true,983.2999999523163,1,r,,2,1,1,
tg9,RSVPtest,232,g,true,502.7000000476837,0,b,,2,3,0,
tg9,RSVPtest,233,g,true,567.2000000476837,1,r,,2,2,2,
tg9,RSVPtest,234,g,true,774.6000000238419,1,r,,3,2,1,
tg9,RSVPtest,235,g,false,916.5,2,g,,3,1,1,
tg9,RSVPtest,236,g,true,532.6999999284744,2,g,,2,2,2,
tg9,RSVPtest,237,g,true,593.7000000476837,1,r,,1,0,1,
tg9,RSVPtest,238,g,true,534.6000000238419,1,r,,0,2,1,
tg9,RSVPtest,239,g,true,853.1000000238419,2,g,,3,1,1,
tg9,RSVPtest,240,g,true,789.3999999761581,1,r,,1,1,2,
