subID,trialType,trialNum,cntBalance,correct,rt,rwdType,tgtCol,tgtDir,tgtPos,colPos,colMatch,
bhq,VDACtrain,0,g,null,null,1,r,h,1,,,
bhq,VDACtrain,0,g,true,809,1,r,v,4,,,
bhq,VDACtrain,0,g,null,null,2,g,v,5,,,
bhq,VDACtrain,0,g,false,810.7000000476837,2,g,v,2,,,
bhq,VDACtrain,0,g,true,966,1,r,v,3,,,
bhq,VDACtrain,0,g,null,null,2,g,h,3,,,
bhq,VDACtrain,0,g,null,null,1,r,h,0,,,
bhq,VDACtrain,0,g,true,628.3000001907349,1,r,h,2,,,
bhq,VDACtrain,0,g,true,648.0999999046326,2,g,h,5,,,
bhq,VDACtrain,0,g,true,737.0999999046326,2,g,v,0,,,
bhq,VDACtest,1,g,true,728.8000001907349,2,g,h,4,,,
bhq,VDACtest,2,g,true,908.8999998569489,2,g,v,0,,,
bhq,VDACtest,3,g,null,null,2,g,h,1,,,
bhq,VDACtest,4,g,true,828.0999999046326,2,g,h,1,,,
bhq,VDACtest,5,g,true,813.5,1,r,h,5,,,
bhq,VDACtest,6,g,true,631.5999999046326,1,r,v,1,,,
bhq,VDACtest,7,g,true,720.5999999046326,1,r,h,0,,,
bhq,VDACtest,8,g,true,710.2999999523163,2,g,h,4,,,
bhq,VDACtest,9,g,false,870.8000001907349,1,r,h,2,,,
bhq,VDACtest,10,g,true,616.0999999046326,1,r,h,2,,,
bhq,VDACtest,11,g,true,571.4000000953674,2,g,h,2,,,
bhq,VDACtest,12,g,true,950.8000001907349,2,g,h,4,,,
bhq,VDACtest,13,g,true,542.4000000953674,1,r,v,3,,,
bhq,VDACtest,14,g,true,926,2,g,v,5,,,
bhq,VDACtest,15,g,true,957,1,r,v,1,,,
bhq,VDACtest,16,g,null,null,2,g,h,0,,,
bhq,VDACtest,17,g,true,666.4000000953674,1,r,h,0,,,
bhq,VDACtest,18,g,true,638.6000001430511,2,g,h,5,,,
bhq,VDACtest,19,g,true,575.5,2,g,h,5,,,
bhq,VDACtest,20,g,true,655.2000000476837,1,r,v,2,,,
bhq,VDACtest,21,g,false,614,1,r,v,5,,,
bhq,VDACtest,22,g,true,616.5,1,r,h,5,,,
bhq,VDACtest,23,g,false,613.5,1,r,v,2,,,
bhq,VDACtest,24,g,true,575,2,g,h,2,,,
bhq,VDACtest,25,g,true,894.1000001430511,1,r,h,4,,,
bhq,VDACtest,26,g,true,847.2000000476837,2,g,v,1,,,
bhq,VDACtest,27,g,true,685.4000000953674,2,g,v,3,,,
bhq,VDACtest,28,g,true,742.7000000476837,2,g,h,0,,,
bhq,VDACtest,29,g,false,631.4000000953674,2,g,v,2,,,
bhq,VDACtest,30,g,true,839.2000000476837,1,r,h,4,,,
bhq,VDACtest,31,g,false,558.7999999523163,1,r,h,5,,,
bhq,VDACtest,32,g,true,790.3999998569489,2,g,v,1,,,
bhq,VDACtest,33,g,true,518.5,2,g,h,3,,,
bhq,VDACtest,34,g,true,777.2999999523163,2,g,h,4,,,
bhq,VDACtest,35,g,true,733.7000000476837,1,r,h,1,,,
bhq,VDACtest,36,g,true,643.4000000953674,1,r,v,0,,,
bhq,VDACtest,37,g,true,839.0999999046326,1,r,h,3,,,
bhq,VDACtest,38,g,true,687.2999999523163,1,r,h,4,,,
bhq,VDACtest,39,g,true,590.7999999523163,1,r,v,0,,,
bhq,VDACtest,40,g,null,null,2,g,v,3,,,
bhq,VDACtest,41,g,true,717,2,g,v,0,,,
bhq,VDACtest,42,g,true,879.4000000953674,1,r,v,1,,,
bhq,VDACtest,43,g,true,549,2,g,v,0,,,
bhq,VDACtest,44,g,true,751.0999999046326,2,g,v,2,,,
bhq,VDACtest,45,g,true,927.8999998569489,1,r,v,3,,,
bhq,VDACtest,46,g,true,895.3999998569489,1,r,h,2,,,
bhq,VDACtest,47,g,true,823.3999998569489,2,g,v,4,,,
bhq,VDACtest,48,g,true,566.1999998092651,2,g,v,4,,,
bhq,VDACtest,49,g,true,583.2000000476837,1,r,h,2,,,
bhq,VDACtest,50,g,null,null,1,r,v,5,,,
brk,brk,brk,brk,brk,brk,brk,brk,brk,brk,brk,brk,
bhq,VDACtest,51,g,true,782.5,2,g,h,4,,,
bhq,VDACtest,52,g,true,557.6000001430511,2,g,h,3,,,
bhq,VDACtest,53,g,true,934.9000000953674,2,g,v,1,,,
bhq,VDACtest,54,g,false,535.5,2,g,h,4,,,
bhq,VDACtest,55,g,true,813.5999999046326,1,r,v,0,,,
bhq,VDACtest,56,g,true,527.2999999523163,2,g,h,4,,,
bhq,VDACtest,57,g,true,743.2999999523163,1,r,h,1,,,
bhq,VDACtest,58,g,true,542,2,g,v,4,,,
bhq,VDACtest,59,g,true,782.5999999046326,1,r,v,1,,,
bhq,VDACtest,60,g,true,808.5,1,r,v,3,,,
bhq,VDACtest,61,g,true,542.6999998092651,2,g,h,1,,,
bhq,VDACtest,62,g,true,872.5,1,r,v,0,,,
bhq,VDACtest,63,g,false,542.5,2,g,v,4,,,
bhq,VDACtest,64,g,true,653.2999999523163,1,r,v,3,,,
bhq,VDACtest,65,g,true,575.7999999523163,1,r,v,3,,,
bhq,VDACtest,66,g,true,599.3999998569489,1,r,h,1,,,
bhq,VDACtest,67,g,true,879.2999999523163,1,r,h,0,,,
bhq,VDACtest,68,g,true,576,1,r,v,5,,,
bhq,VDACtest,69,g,true,535.5,1,r,v,3,,,
bhq,VDACtest,70,g,true,589.2000000476837,1,r,h,0,,,
bhq,VDACtest,71,g,false,765.2000000476837,1,r,v,4,,,
bhq,VDACtest,72,g,true,543.7999999523163,1,r,h,0,,,
bhq,VDACtest,73,g,true,526.7999999523163,2,g,v,2,,,
bhq,VDACtest,74,g,null,null,2,g,v,1,,,
bhq,VDACtest,75,g,true,788.2999999523163,1,r,v,1,,,
bhq,VDACtest,76,g,true,584.2000000476837,1,r,h,5,,,
bhq,VDACtest,77,g,true,630.7000000476837,2,g,h,0,,,
bhq,VDACtest,78,g,true,592,1,r,h,4,,,
bhq,VDACtest,79,g,true,509.2999999523163,1,r,v,4,,,
bhq,VDACtest,80,g,true,638.8999998569489,2,g,h,2,,,
bhq,VDACtest,81,g,false,454.09999990463257,1,r,h,0,,,
bhq,VDACtest,82,g,true,534.8999998569489,2,g,v,4,,,
bhq,VDACtest,83,g,true,661.8999998569489,2,g,h,0,,,
bhq,VDACtest,84,g,true,774,2,g,v,5,,,
bhq,VDACtest,85,g,true,901.1000001430511,1,r,h,3,,,
bhq,VDACtest,86,g,true,533.7000000476837,2,g,h,5,,,
bhq,VDACtest,87,g,true,887,1,r,h,1,,,
bhq,VDACtest,88,g,true,557.7000000476837,1,r,h,3,,,
bhq,VDACtest,89,g,true,766.2999999523163,2,g,v,4,,,
bhq,VDACtest,90,g,true,882.5,2,g,v,3,,,
bhq,VDACtest,91,g,true,821.8999998569489,2,g,h,1,,,
bhq,VDACtest,92,g,false,701.6999998092651,1,r,h,1,,,
bhq,VDACtest,93,g,false,568.5,2,g,v,2,,,
bhq,VDACtest,94,g,false,735.4000000953674,1,r,v,4,,,
bhq,VDACtest,95,g,true,589.8999998569489,2,g,h,5,,,
bhq,VDACtest,96,g,true,848.2000000476837,1,r,h,1,,,
bhq,VDACtest,97,g,false,774.3000001907349,2,g,v,3,,,
bhq,VDACtest,98,g,true,543.7999999523163,2,g,h,5,,,
bhq,VDACtest,99,g,true,646,2,g,v,5,,,
bhq,VDACtest,100,g,true,807.1000001430511,1,r,h,4,,,
brk,brk,brk,brk,brk,brk,brk,brk,brk,brk,brk,brk,
bhq,VDACtest,101,g,true,678.3999998569489,1,r,h,5,,,
bhq,VDACtest,102,g,true,527.2999999523163,2,g,v,2,,,
bhq,VDACtest,103,g,true,728,1,r,v,0,,,
bhq,VDACtest,104,g,true,663.3999998569489,2,g,h,3,,,
bhq,VDACtest,105,g,true,749,1,r,v,4,,,
bhq,VDACtest,106,g,true,911.4000000953674,2,g,h,1,,,
bhq,VDACtest,107,g,null,null,2,g,v,3,,,
bhq,VDACtest,108,g,true,564.9000000953674,2,g,v,1,,,
bhq,VDACtest,109,g,true,656.0999999046326,1,r,h,4,,,
bhq,VDACtest,110,g,true,867.5,1,r,v,2,,,
bhq,VDACtest,111,g,true,502.7000000476837,1,r,h,5,,,
bhq,VDACtest,112,g,true,599.1000001430511,2,g,h,2,,,
bhq,VDACtest,113,g,true,510.2999999523163,2,g,h,2,,,
bhq,VDACtest,114,g,true,789.4000000953674,2,g,v,3,,,
bhq,VDACtest,115,g,true,589.2000000476837,1,r,v,2,,,
bhq,VDACtest,116,g,true,741.9000000953674,2,g,h,0,,,
bhq,VDACtest,117,g,true,606.7999999523163,2,g,v,2,,,
bhq,VDACtest,118,g,true,534.8999998569489,1,r,v,0,,,
bhq,VDACtest,119,g,false,551.0999999046326,1,r,h,5,,,
bhq,VDACtest,120,g,false,678.2999999523163,2,g,v,3,,,
bhq,VDACtest,121,g,false,582.2000000476837,2,g,h,0,,,
bhq,VDACtest,122,g,true,671.7999999523163,2,g,h,5,,,
bhq,VDACtest,123,g,true,607,1,r,v,4,,,
bhq,VDACtest,124,g,true,596.4000000953674,2,g,h,3,,,
bhq,VDACtest,125,g,true,654.9000000953674,1,r,h,4,,,
bhq,VDACtest,126,g,true,799.9000000953674,2,g,v,1,,,
bhq,VDACtest,127,g,true,598.5,2,g,v,4,,,
bhq,VDACtest,128,g,false,711.7000000476837,2,g,v,0,,,
bhq,VDACtest,129,g,true,862.1000001430511,1,r,v,3,,,
bhq,VDACtest,130,g,true,645.2999999523163,2,g,h,0,,,
bhq,VDACtest,131,g,true,638.7000000476837,2,g,v,2,,,
bhq,VDACtest,132,g,true,918.1000001430511,1,r,h,0,,,
bhq,VDACtest,133,g,true,637.7999999523163,2,g,v,0,,,
bhq,VDACtest,134,g,true,944.2000000476837,2,g,h,1,,,
bhq,VDACtest,135,g,true,932.4000000953674,1,r,h,2,,,
bhq,VDACtest,136,g,true,597.9000000953674,1,r,v,1,,,
bhq,VDACtest,137,g,true,510.7999999523163,1,r,v,2,,,
bhq,VDACtest,138,g,true,885.4000000953674,2,g,h,5,,,
bhq,VDACtest,139,g,true,743.7000000476837,1,r,v,1,,,
bhq,VDACtest,140,g,true,519.3999998569489,2,g,v,1,,,
bhq,VDACtest,141,g,true,533.7000000476837,2,g,v,1,,,
bhq,VDACtest,142,g,true,638.8000001907349,1,r,h,4,,,
bhq,VDACtest,143,g,true,663.9000000953674,2,g,v,0,,,
bhq,VDACtest,144,g,true,710.5,1,r,h,1,,,
bhq,VDACtest,145,g,true,590.1999998092651,2,g,h,0,,,
bhq,VDACtest,146,g,true,584.7000000476837,2,g,h,2,,,
bhq,VDACtest,147,g,true,613.3999998569489,1,r,v,5,,,
bhq,VDACtest,148,g,true,533.1999998092651,1,r,v,4,,,
bhq,VDACtest,149,g,true,627.8000001907349,2,g,v,0,,,
bhq,VDACtest,150,g,true,694.1000001430511,2,g,v,1,,,
brk,brk,brk,brk,brk,brk,brk,brk,brk,brk,brk,brk,
bhq,VDACtest,151,g,true,958.4000000953674,1,r,v,4,,,
bhq,VDACtest,152,g,true,838.2999999523163,2,g,v,5,,,
bhq,VDACtest,153,g,true,541.8000001907349,1,r,v,5,,,
bhq,VDACtest,154,g,true,637.0999999046326,1,r,v,4,,,
bhq,VDACtest,155,g,true,545,2,g,h,5,,,
bhq,VDACtest,156,g,true,903.0999999046326,2,g,v,5,,,
bhq,VDACtest,157,g,true,613.6999998092651,2,g,v,4,,,
bhq,VDACtest,158,g,true,557.5,1,r,v,0,,,
bhq,VDACtest,159,g,true,751.6000001430511,1,r,v,1,,,
bhq,VDACtest,160,g,true,517.7999999523163,1,r,v,2,,,
bhq,VDACtest,161,g,true,541.3999998569489,1,r,v,4,,,
bhq,VDACtest,162,g,true,711.7999999523163,1,r,h,3,,,
bhq,VDACtest,163,g,true,680.3000001907349,1,r,v,5,,,
bhq,VDACtest,164,g,true,524.8999998569489,2,g,h,2,,,
bhq,VDACtest,165,g,false,742.7999999523163,2,g,v,0,,,
bhq,VDACtest,166,g,true,590.9000000953674,2,g,h,2,,,
bhq,VDACtest,167,g,true,667.2000000476837,1,r,h,3,,,
bhq,VDACtest,168,g,true,765.3999998569489,2,g,h,4,,,
bhq,VDACtest,169,g,true,686.4000000953674,1,r,h,1,,,
bhq,VDACtest,170,g,true,612.5999999046326,1,r,h,5,,,
bhq,VDACtest,171,g,true,591.1000001430511,1,r,h,2,,,
bhq,VDACtest,172,g,true,484.2999999523163,2,g,h,3,,,
bhq,VDACtest,173,g,true,519.2999999523163,2,g,v,5,,,
bhq,VDACtest,174,g,true,662.7999999523163,1,r,h,2,,,
bhq,VDACtest,175,g,true,823.7999999523163,1,r,v,0,,,
bhq,VDACtest,176,g,true,614.0999999046326,2,g,h,1,,,
bhq,VDACtest,177,g,true,590.0999999046326,2,g,v,5,,,
bhq,VDACtest,178,g,true,532.3000001907349,2,g,h,3,,,
bhq,VDACtest,179,g,true,692.9000000953674,2,g,v,4,,,
bhq,VDACtest,180,g,true,622.7000000476837,1,r,h,0,,,
bhq,VDACtest,181,g,true,742.1999998092651,2,g,v,2,,,
bhq,VDACtest,182,g,true,925.4000000953674,2,g,v,5,,,
bhq,VDACtest,183,g,true,621.7000000476837,1,r,h,1,,,
bhq,VDACtest,184,g,true,767.2000000476837,1,r,v,2,,,
bhq,VDACtest,185,g,true,548.7000000476837,2,g,h,3,,,
bhq,VDACtest,186,g,true,647,1,r,v,5,,,
bhq,VDACtest,187,g,true,551,1,r,h,2,,,
bhq,VDACtest,188,g,true,678.2000000476837,2,g,h,4,,,
bhq,VDACtest,189,g,true,566.5999999046326,1,r,v,2,,,
bhq,VDACtest,190,g,true,575.2000000476837,1,r,v,3,,,
bhq,VDACtest,191,g,true,549.3999998569489,1,r,v,5,,,
bhq,VDACtest,192,g,true,497.80000019073486,1,r,h,3,,,
bhq,VDACtest,193,g,true,510.2999999523163,2,g,v,3,,,
bhq,VDACtest,194,g,true,757.2999999523163,2,g,h,1,,,
bhq,VDACtest,195,g,true,671.2999999523163,1,r,h,3,,,
bhq,VDACtest,196,g,true,510.60000014305115,1,r,v,1,,,
bhq,VDACtest,197,g,true,557.3000001907349,1,r,h,3,,,
bhq,VDACtest,198,g,true,589.0999999046326,1,r,h,4,,,
bhq,VDACtest,199,g,true,543.5,2,g,h,1,,,
bhq,VDACtest,200,g,true,659.8000001907349,2,g,h,3,,,
bhq,RSVPtrain,0,g,null,null,1,r,,1,1,2,
bhq,RSVPtrain,0,g,true,1619.6000001430511,0,b,,0,3,0,
bhq,RSVPtrain,0,g,true,1391.8999998569489,0,b,,3,3,0,
bhq,RSVPtrain,0,g,false,1490.2000000476837,2,g,,2,2,2,
bhq,RSVPtrain,0,g,true,863.0999999046326,1,r,,0,0,2,
bhq,RSVPtrain,0,g,true,1593.8000001907349,2,g,,3,0,1,
bhq,RSVPtrain,0,g,true,1538.5,2,g,,3,1,1,
bhq,RSVPtrain,0,g,false,1040.7000000476837,2,g,,1,0,1,
bhq,RSVPtrain,0,g,true,905.4000000953674,0,b,,1,3,0,
bhq,RSVPtrain,0,g,true,1098.5999999046326,1,r,,3,2,1,
bhq,RSVPtest,1,g,true,922.2999999523163,2,g,,3,1,1,
bhq,RSVPtest,2,g,true,1249.5999999046326,2,g,,0,1,1,
bhq,RSVPtest,3,g,true,857.2000000476837,0,b,,0,3,0,
bhq,RSVPtest,4,g,false,919.2999999523163,1,r,,1,0,1,
bhq,RSVPtest,5,g,true,905,2,g,,0,0,2,
bhq,RSVPtest,6,g,true,1006.8999998569489,2,g,,2,1,1,
bhq,RSVPtest,7,g,true,924.7000000476837,0,b,,3,3,0,
bhq,RSVPtest,8,g,true,1185.4000000953674,1,r,,3,0,1,
bhq,RSVPtest,9,g,true,2177.300000190735,0,b,,1,3,0,
bhq,RSVPtest,10,g,false,1006.5,2,g,,0,1,1,
bhq,RSVPtest,11,g,true,1409.3999998569489,0,b,,2,3,0,
bhq,RSVPtest,12,g,true,1454.2000000476837,2,g,,1,1,2,
bhq,RSVPtest,13,g,true,1381.2999999523163,0,b,,3,3,0,
bhq,RSVPtest,14,g,true,1022.9000000953674,0,b,,0,3,0,
bhq,RSVPtest,15,g,false,1282.1999998092651,0,b,,1,3,0,
bhq,RSVPtest,16,g,true,960,1,r,,0,0,2,
bhq,RSVPtest,17,g,false,1591.8999998569489,0,b,,1,3,0,
bhq,RSVPtest,18,g,true,1464.7000000476837,1,r,,1,1,2,
bhq,RSVPtest,19,g,false,1575.0999999046326,1,r,,1,1,2,
bhq,RSVPtest,20,g,false,1425.1999998092651,1,r,,3,2,1,
bhq,RSVPtest,21,g,true,1227.2000000476837,2,g,,3,0,1,
bhq,RSVPtest,22,g,true,1248.4000000953674,0,b,,3,3,0,
bhq,RSVPtest,23,g,true,908.7000000476837,2,g,,3,0,1,
bhq,RSVPtest,24,g,true,1184.7999999523163,0,b,,2,3,0,
bhq,RSVPtest,25,g,true,1265.8999998569489,2,g,,0,2,1,
bhq,RSVPtest,26,g,true,1143,2,g,,3,0,1,
bhq,RSVPtest,27,g,true,1248.9000000953674,1,r,,2,2,2,
bhq,RSVPtest,28,g,true,1536.6000001430511,1,r,,2,1,1,
bhq,RSVPtest,29,g,true,1305.8999998569489,2,g,,3,0,1,
bhq,RSVPtest,30,g,true,1631.2999999523163,0,b,,2,3,0,
bhq,RSVPtest,31,g,true,1530.5999999046326,1,r,,3,1,1,
bhq,RSVPtest,32,g,true,1121.7000000476837,0,b,,3,3,0,
bhq,RSVPtest,33,g,true,1769.4000000953674,2,g,,1,0,1,
bhq,RSVPtest,34,g,true,1535.2000000476837,1,r,,3,0,1,
bhq,RSVPtest,35,g,true,1016.9000000953674,0,b,,3,3,0,
bhq,RSVPtest,36,g,true,1208,0,b,,0,3,0,
bhq,RSVPtest,37,g,false,1174.4000000953674,0,b,,1,3,0,
bhq,RSVPtest,38,g,true,856,2,g,,0,0,2,
bhq,RSVPtest,39,g,true,2143.2999999523163,0,b,,0,3,0,
bhq,RSVPtest,40,g,true,823.5999999046326,1,r,,0,0,2,
bhq,RSVPtest,41,g,true,1049.7000000476837,2,g,,0,2,1,
bhq,RSVPtest,42,g,true,1083.3000001907349,0,b,,3,3,0,
bhq,RSVPtest,43,g,true,1150.5999999046326,2,g,,2,1,1,
bhq,RSVPtest,44,g,true,881.5,2,g,,1,0,1,
bhq,RSVPtest,45,g,true,1234.5,1,r,,1,2,1,
bhq,RSVPtest,46,g,false,1190.6000001430511,0,b,,0,3,0,
bhq,RSVPtest,47,g,true,770.2999999523163,0,b,,0,3,0,
bhq,RSVPtest,48,g,true,955.7000000476837,1,r,,3,2,1,
bhq,RSVPtest,49,g,true,1133.0999999046326,2,g,,0,1,1,
bhq,RSVPtest,50,g,true,1669.7000000476837,1,r,,2,0,1,
bhq,RSVPtest,51,g,true,1214.0999999046326,2,g,,3,1,1,
bhq,RSVPtest,52,g,true,1151,1,r,,1,1,2,
bhq,RSVPtest,53,g,true,1111.9000000953674,1,r,,3,1,1,
bhq,RSVPtest,54,g,true,1128.2999999523163,0,b,,1,3,0,
bhq,RSVPtest,55,g,true,1000.5,1,r,,1,0,1,
bhq,RSVPtest,56,g,false,1081.2999999523163,0,b,,2,3,0,
bhq,RSVPtest,57,g,true,1982.9000000953674,2,g,,3,2,1,
bhq,RSVPtest,58,g,false,1726.9000000953674,2,g,,2,1,1,
bhq,RSVPtest,59,g,true,1039.2000000476837,2,g,,1,1,2,
bhq,RSVPtest,60,g,true,960.5999999046326,0,b,,3,3,0,
brk,brk,brk,brk,brk,brk,brk,brk,brk,brk,brk,brk,
bhq,RSVPtest,61,g,null,null,0,b,,3,3,0,
bhq,RSVPtest,62,g,true,1523.4000000953674,2,g,,1,2,1,
bhq,RSVPtest,63,g,true,978.9000000953674,2,g,,2,0,1,
bhq,RSVPtest,64,g,true,1177.6999998092651,0,b,,2,3,0,
bhq,RSVPtest,65,g,true,999.8999998569489,2,g,,3,2,1,
bhq,RSVPtest,66,g,true,985.5,0,b,,1,3,0,
bhq,RSVPtest,67,g,true,1495.8999998569489,2,g,,2,0,1,
bhq,RSVPtest,68,g,true,1367.6000001430511,2,g,,3,1,1,
bhq,RSVPtest,69,g,true,928.6000001430511,1,r,,3,2,1,
bhq,RSVPtest,70,g,true,878.3000001907349,2,g,,3,2,1,
bhq,RSVPtest,71,g,true,1160.7999999523163,2,g,,3,0,1,
bhq,RSVPtest,72,g,true,855.7999999523163,0,b,,2,3,0,
bhq,RSVPtest,73,g,true,2006.7999999523163,1,r,,2,0,1,
bhq,RSVPtest,74,g,false,1461.7000000476837,2,g,,3,0,1,
bhq,RSVPtest,75,g,true,890,2,g,,3,2,1,
bhq,RSVPtest,76,g,true,900.2999999523163,2,g,,3,1,1,
bhq,RSVPtest,77,g,true,800.7999999523163,0,b,,3,3,0,
bhq,RSVPtest,78,g,true,1998.5,2,g,,1,1,2,
bhq,RSVPtest,79,g,true,991.5999999046326,1,r,,0,2,1,
bhq,RSVPtest,80,g,true,951.6000001430511,0,b,,0,3,0,
bhq,RSVPtest,81,g,true,1001,2,g,,3,2,1,
bhq,RSVPtest,82,g,false,1072.8999998569489,2,g,,3,2,1,
bhq,RSVPtest,83,g,true,989,2,g,,1,2,1,
bhq,RSVPtest,84,g,true,997.4000000953674,0,b,,2,3,0,
bhq,RSVPtest,85,g,true,849.6999998092651,1,r,,2,0,1,
bhq,RSVPtest,86,g,true,897.2000000476837,1,r,,3,1,1,
bhq,RSVPtest,87,g,true,1328.5999999046326,2,g,,2,1,1,
bhq,RSVPtest,88,g,true,655.2999999523163,2,g,,3,0,1,
bhq,RSVPtest,89,g,true,1039.2999999523163,0,b,,0,3,0,
bhq,RSVPtest,90,g,true,806.1000001430511,1,r,,1,0,1,
bhq,RSVPtest,91,g,true,1305,2,g,,3,1,1,
bhq,RSVPtest,92,g,true,807.1000001430511,2,g,,3,2,1,
bhq,RSVPtest,93,g,true,791.5999999046326,1,r,,2,2,2,
bhq,RSVPtest,94,g,true,784.7999999523163,1,r,,3,2,1,
bhq,RSVPtest,95,g,true,1214.2999999523163,1,r,,0,2,1,
bhq,RSVPtest,96,g,true,950.8999998569489,2,g,,2,2,2,
bhq,RSVPtest,97,g,false,1350.9000000953674,1,r,,1,2,1,
bhq,RSVPtest,98,g,false,781.9000000953674,2,g,,2,2,2,
bhq,RSVPtest,99,g,true,1230.3999998569489,1,r,,3,1,1,
bhq,RSVPtest,100,g,true,1102.3999998569489,1,r,,3,1,1,
bhq,RSVPtest,101,g,true,911.8999998569489,2,g,,1,1,2,
bhq,RSVPtest,102,g,true,1198.2999999523163,2,g,,0,0,2,
bhq,RSVPtest,103,g,true,927.5999999046326,1,r,,0,2,1,
bhq,RSVPtest,104,g,true,1277.5999999046326,2,g,,1,2,1,
bhq,RSVPtest,105,g,false,983.3000001907349,0,b,,1,3,0,
bhq,RSVPtest,106,g,true,920.2999999523163,1,r,,3,0,1,
bhq,RSVPtest,107,g,true,915.5999999046326,1,r,,1,1,2,
bhq,RSVPtest,108,g,true,870.5999999046326,2,g,,0,2,1,
bhq,RSVPtest,109,g,true,841.5,1,r,,3,2,1,
bhq,RSVPtest,110,g,false,942.5,2,g,,0,2,1,
bhq,RSVPtest,111,g,true,823.1000001430511,1,r,,3,2,1,
bhq,RSVPtest,112,g,true,825.2999999523163,2,g,,0,2,1,
bhq,RSVPtest,113,g,true,806.0999999046326,2,g,,3,1,1,
bhq,RSVPtest,114,g,true,1318.3999998569489,1,r,,2,2,2,
bhq,RSVPtest,115,g,true,982.7000000476837,2,g,,2,2,2,
bhq,RSVPtest,116,g,true,686.8000001907349,1,r,,3,2,1,
bhq,RSVPtest,117,g,true,844.5999999046326,2,g,,3,2,1,
bhq,RSVPtest,118,g,true,778.7000000476837,2,g,,3,2,1,
bhq,RSVPtest,119,g,false,884.3999998569489,2,g,,2,1,1,
bhq,RSVPtest,120,g,true,996,1,r,,0,0,2,
brk,brk,brk,brk,brk,brk,brk,brk,brk,brk,brk,brk,
bhq,RSVPtest,121,g,true,736.5999999046326,0,b,,3,3,0,
bhq,RSVPtest,122,g,true,1332.7999999523163,0,b,,2,3,0,
bhq,RSVPtest,123,g,true,889,1,r,,1,2,1,
bhq,RSVPtest,124,g,true,606.2000000476837,0,b,,3,3,0,
bhq,RSVPtest,125,g,true,723.8999998569489,2,g,,0,1,1,
bhq,RSVPtest,126,g,true,886.5,1,r,,3,2,1,
bhq,RSVPtest,127,g,true,1039.4000000953674,0,b,,3,3,0,
bhq,RSVPtest,128,g,true,844.3999998569489,1,r,,3,2,1,
bhq,RSVPtest,129,g,false,800,1,r,,1,1,2,
bhq,RSVPtest,130,g,true,893.5999999046326,2,g,,0,2,1,
bhq,RSVPtest,131,g,true,1126.6999998092651,2,g,,3,0,1,
bhq,RSVPtest,132,g,true,1175.7000000476837,2,g,,0,0,2,
bhq,RSVPtest,133,g,false,926.7999999523163,1,r,,3,0,1,
bhq,RSVPtest,134,g,true,1294.1000001430511,0,b,,1,3,0,
bhq,RSVPtest,135,g,true,1179.1000001430511,0,b,,3,3,0,
bhq,RSVPtest,136,g,false,919.2000000476837,1,r,,1,0,1,
bhq,RSVPtest,137,g,true,749.0999999046326,2,g,,0,1,1,
bhq,RSVPtest,138,g,true,823.1000001430511,2,g,,3,1,1,
bhq,RSVPtest,139,g,true,958,2,g,,1,2,1,
bhq,RSVPtest,140,g,true,1003.9000000953674,0,b,,0,3,0,
bhq,RSVPtest,141,g,false,1669.9000000953674,1,r,,3,0,1,
bhq,RSVPtest,142,g,false,933.9000000953674,2,g,,2,2,2,
bhq,RSVPtest,143,g,true,1462.2999999523163,1,r,,1,2,1,
bhq,RSVPtest,144,g,true,817.5,1,r,,0,2,1,
bhq,RSVPtest,145,g,true,715.8999998569489,2,g,,1,1,2,
bhq,RSVPtest,146,g,false,798.5,2,g,,3,0,1,
bhq,RSVPtest,147,g,false,2252.5999999046326,2,g,,2,1,1,
bhq,RSVPtest,148,g,true,774.0999999046326,2,g,,3,1,1,
bhq,RSVPtest,149,g,true,1215.9000000953674,0,b,,3,3,0,
bhq,RSVPtest,150,g,true,846.4000000953674,1,r,,3,1,1,
bhq,RSVPtest,151,g,false,1494.0999999046326,2,g,,3,0,1,
bhq,RSVPtest,152,g,true,1566.2999999523163,1,r,,3,1,1,
bhq,RSVPtest,153,g,true,1997.7000000476837,1,r,,0,0,2,
bhq,RSVPtest,154,g,true,1894.8999998569489,1,r,,2,1,1,
bhq,RSVPtest,155,g,true,1158,2,g,,1,0,1,
bhq,RSVPtest,156,g,true,1174.0999999046326,0,b,,3,3,0,
bhq,RSVPtest,157,g,true,1463.3999998569489,1,r,,3,0,1,
bhq,RSVPtest,158,g,true,805.5,1,r,,3,0,1,
bhq,RSVPtest,159,g,false,1630.2999999523163,2,g,,3,2,1,
bhq,RSVPtest,160,g,true,1349.7999999523163,1,r,,0,1,1,
bhq,RSVPtest,161,g,true,933.5999999046326,0,b,,0,3,0,
bhq,RSVPtest,162,g,true,1081.0999999046326,1,r,,3,1,1,
bhq,RSVPtest,163,g,true,848.5999999046326,1,r,,0,0,2,
bhq,RSVPtest,164,g,true,877,1,r,,0,1,1,
bhq,RSVPtest,165,g,true,1438,2,g,,1,2,1,
bhq,RSVPtest,166,g,false,941.5,2,g,,2,0,1,
bhq,RSVPtest,167,g,true,925.3999998569489,2,g,,0,0,2,
bhq,RSVPtest,168,g,true,829.6000001430511,2,g,,2,2,2,
bhq,RSVPtest,169,g,false,2108.7999999523163,1,r,,0,2,1,
bhq,RSVPtest,170,g,false,1535.3000001907349,0,b,,2,3,0,
bhq,RSVPtest,171,g,true,1111.3999998569489,2,g,,1,1,2,
bhq,RSVPtest,172,g,true,1070.8000001907349,0,b,,0,3,0,
bhq,RSVPtest,173,g,false,1132.7999999523163,0,b,,3,3,0,
bhq,RSVPtest,174,g,true,1163.0999999046326,0,b,,3,3,0,
bhq,RSVPtest,175,g,true,861.0999999046326,0,b,,3,3,0,
bhq,RSVPtest,176,g,true,876.1000001430511,2,g,,3,2,1,
bhq,RSVPtest,177,g,true,814.2999999523163,2,g,,0,1,1,
bhq,RSVPtest,178,g,false,1834.8999998569489,2,g,,3,0,1,
bhq,RSVPtest,179,g,true,871.5999999046326,1,r,,3,1,1,
bhq,RSVPtest,180,g,false,949.4000000953674,1,r,,2,1,1,
brk,brk,brk,brk,brk,brk,brk,brk,brk,brk,brk,brk,
bhq,RSVPtest,181,g,false,1282.2000000476837,1,r,,1,2,1,
bhq,RSVPtest,182,g,true,926,2,g,,2,2,2,
bhq,RSVPtest,183,g,true,838.8999998569489,2,g,,1,0,1,
bhq,RSVPtest,184,g,true,1114.9000000953674,1,r,,3,1,1,
bhq,RSVPtest,185,g,true,1028.2999999523163,1,r,,1,1,2,
bhq,RSVPtest,186,g,false,1069.5,2,g,,1,0,1,
bhq,RSVPtest,187,g,true,752.7999999523163,1,r,,3,2,1,
bhq,RSVPtest,188,g,false,726.8999998569489,2,g,,3,0,1,
bhq,RSVPtest,189,g,true,798.1000001430511,1,r,,3,2,1,
bhq,RSVPtest,190,g,false,979.5,1,r,,3,0,1,
bhq,RSVPtest,191,g,false,1091.8000001907349,2,g,,3,1,1,
bhq,RSVPtest,192,g,true,669.9000000953674,0,b,,3,3,0,
bhq,RSVPtest,193,g,false,830.5,0,b,,1,3,0,
bhq,RSVPtest,194,g,true,1182.4000000953674,2,g,,2,0,1,
bhq,RSVPtest,195,g,true,921.1999998092651,2,g,,3,1,1,
bhq,RSVPtest,196,g,true,1213.7999999523163,1,r,,2,0,1,
bhq,RSVPtest,197,g,true,1117.6999998092651,1,r,,1,0,1,
bhq,RSVPtest,198,g,true,1235.2999999523163,0,b,,0,3,0,
bhq,RSVPtest,199,g,true,1198,0,b,,3,3,0,
bhq,RSVPtest,200,g,true,1045,0,b,,2,3,0,
bhq,RSVPtest,201,g,false,915.7000000476837,2,g,,3,1,1,
bhq,RSVPtest,202,g,true,728.3999998569489,1,r,,2,2,2,
bhq,RSVPtest,203,g,true,1182.2000000476837,1,r,,2,1,1,
bhq,RSVPtest,204,g,true,1277.3999998569489,1,r,,2,0,1,
bhq,RSVPtest,205,g,false,1196.5999999046326,0,b,,2,3,0,
bhq,RSVPtest,206,g,false,1806,1,r,,3,1,1,
bhq,RSVPtest,207,g,true,1197.8999998569489,1,r,,2,0,1,
bhq,RSVPtest,208,g,false,1084.9000000953674,2,g,,1,0,1,
bhq,RSVPtest,209,g,true,1670.5999999046326,1,r,,2,1,1,
bhq,RSVPtest,210,g,true,1003.4000000953674,1,r,,0,1,1,
bhq,RSVPtest,211,g,true,1814.3999998569489,0,b,,3,3,0,
bhq,RSVPtest,212,g,true,811.5,2,g,,3,2,1,
bhq,RSVPtest,213,g,true,1326.3999998569489,1,r,,1,0,1,
bhq,RSVPtest,214,g,true,940.2000000476837,1,r,,3,0,1,
bhq,RSVPtest,215,g,true,1047.7000000476837,1,r,,3,0,1,
bhq,RSVPtest,216,g,true,983.2000000476837,1,r,,3,0,1,
bhq,RSVPtest,217,g,true,878,0,b,,1,3,0,
bhq,RSVPtest,218,g,true,964.2000000476837,1,r,,0,2,1,
bhq,RSVPtest,219,g,true,805.2999999523163,1,r,,3,0,1,
bhq,RSVPtest,220,g,true,964.0999999046326,2,g,,3,1,1,
bhq,RSVPtest,221,g,true,924.7000000476837,1,r,,2,1,1,
bhq,RSVPtest,222,g,true,1275.7999999523163,0,b,,2,3,0,
bhq,RSVPtest,223,g,true,1004.5,0,b,,3,3,0,
bhq,RSVPtest,224,g,true,866.5,1,r,,0,1,1,
bhq,RSVPtest,225,g,false,1027.2999999523163,2,g,,2,0,1,
bhq,RSVPtest,226,g,true,492.5,2,g,,0,0,2,
bhq,RSVPtest,227,g,false,812.1999998092651,0,b,,1,3,0,
bhq,RSVPtest,228,g,false,1140.8999998569489,1,r,,3,1,1,
bhq,RSVPtest,229,g,true,860.5999999046326,2,g,,1,2,1,
bhq,RSVPtest,230,g,true,830.7999999523163,0,b,,3,3,0,
bhq,RSVPtest,231,g,true,1460.6999998092651,1,r,,1,2,1,
bhq,RSVPtest,232,g,true,1147.2999999523163,1,r,,0,0,2,
bhq,RSVPtest,233,g,true,953.9000000953674,1,r,,0,1,1,
bhq,RSVPtest,234,g,true,1340.5999999046326,1,r,,3,2,1,
bhq,RSVPtest,235,g,true,926,1,r,,0,1,1,
bhq,RSVPtest,236,g,true,1500.7999999523163,1,r,,2,2,2,
bhq,RSVPtest,237,g,true,1701.3000001907349,2,g,,2,0,1,
bhq,RSVPtest,238,g,true,1642.1999998092651,1,r,,2,2,2,
bhq,RSVPtest,239,g,false,845.2000000476837,0,b,,1,3,0,
bhq,RSVPtest,240,g,true,931.7999999523163,0,b,,3,3,0,
