subID,trialType,trialNum,cntBalance,correct,rt,rwdType,tgtCol,tgtDir,tgtPos,colPos,colMatch,
2cb,VDACtrain,0,r,null,null,1,g,h,5,,,
2cb,VDACtrain,0,r,true,855,1,g,v,0,,,
2cb,VDACtrain,0,r,true,687.8999998569489,1,g,h,3,,,
2cb,VDACtrain,0,r,false,490.09999990463257,2,r,v,3,,,
2cb,VDACtrain,0,r,null,null,2,r,h,1,,,
2cb,VDACtrain,0,r,true,672.8999998569489,2,r,h,0,,,
2cb,VDACtrain,0,r,true,730.9000000953674,1,g,v,2,,,
2cb,VDACtrain,0,r,false,666.5999999046326,2,r,h,2,,,
2cb,VDACtrain,0,r,true,681.5,2,r,v,4,,,
2cb,VDACtrain,0,r,true,996.4000000953674,1,g,v,5,,,
2cb,VDACtest,1,r,true,940.2999999523163,2,r,h,4,,,
2cb,VDACtest,2,r,true,976.2999999523163,1,g,h,1,,,
2cb,VDACtest,3,r,true,946.4000000953674,2,r,v,3,,,
2cb,VDACtest,4,r,true,472.5,2,r,v,4,,,
2cb,VDACtest,5,r,true,633.6000001430511,1,g,v,0,,,
2cb,VDACtest,6,r,true,472,1,g,v,0,,,
2cb,VDACtest,7,r,true,698.7999999523163,1,g,h,1,,,
2cb,VDACtest,8,r,true,673.1999998092651,1,g,v,3,,,
2cb,VDACtest,9,r,true,519.5999999046326,2,r,h,2,,,
2cb,VDACtest,10,r,true,728,1,g,h,0,,,
2cb,VDACtest,11,r,true,946.3999998569489,2,r,h,4,,,
2cb,VDACtest,12,r,true,624.7999999523163,2,r,h,2,,,
2cb,VDACtest,13,r,true,544.5,2,r,v,0,,,
2cb,VDACtest,14,r,true,866.7000000476837,1,g,h,3,,,
2cb,VDACtest,15,r,true,593.2000000476837,2,r,h,0,,,
2cb,VDACtest,16,r,true,698.8999998569489,1,g,h,2,,,
2cb,VDACtest,17,r,true,722.7000000476837,2,r,h,4,,,
2cb,VDACtest,18,r,true,695.2999999523163,2,r,v,2,,,
2cb,VDACtest,19,r,true,858.0999999046326,1,g,h,2,,,
2cb,VDACtest,20,r,true,794,2,r,h,1,,,
2cb,VDACtest,21,r,true,626.5,1,g,v,2,,,
2cb,VDACtest,22,r,true,976.5999999046326,1,g,v,1,,,
2cb,VDACtest,23,r,true,584.5,2,r,v,1,,,
2cb,VDACtest,24,r,true,688.3999998569489,1,g,h,1,,,
2cb,VDACtest,25,r,true,526.2000000476837,2,r,v,3,,,
2cb,VDACtest,26,r,true,584.2999999523163,2,r,v,1,,,
2cb,VDACtest,27,r,true,666,1,g,h,4,,,
2cb,VDACtest,28,r,true,745,2,r,v,5,,,
2cb,VDACtest,29,r,true,554.5,2,r,h,3,,,
2cb,VDACtest,30,r,true,585.2999999523163,2,r,h,5,,,
2cb,VDACtest,31,r,true,570,2,r,h,0,,,
2cb,VDACtest,32,r,true,841.3999998569489,1,g,v,5,,,
2cb,VDACtest,33,r,true,577.5,2,r,v,1,,,
2cb,VDACtest,34,r,null,null,1,g,v,2,,,
2cb,VDACtest,35,r,true,507.19999980926514,2,r,h,5,,,
2cb,VDACtest,36,r,null,null,1,g,v,1,,,
2cb,VDACtest,37,r,true,696.3999998569489,1,g,h,0,,,
2cb,VDACtest,38,r,true,490.40000009536743,2,r,v,2,,,
2cb,VDACtest,39,r,false,415.60000014305115,2,r,v,3,,,
2cb,VDACtest,40,r,true,648.4000000953674,2,r,v,3,,,
2cb,VDACtest,41,r,true,578.2000000476837,2,r,h,5,,,
2cb,VDACtest,42,r,true,857.4000000953674,1,g,h,4,,,
2cb,VDACtest,43,r,true,504.7999999523163,2,r,v,4,,,
2cb,VDACtest,44,r,true,825.7000000476837,1,g,v,5,,,
2cb,VDACtest,45,r,true,561.2000000476837,1,g,v,5,,,
2cb,VDACtest,46,r,true,832.7000000476837,2,r,h,1,,,
2cb,VDACtest,47,r,true,619.2000000476837,2,r,h,5,,,
2cb,VDACtest,48,r,true,503.2999999523163,2,r,v,5,,,
2cb,VDACtest,49,r,true,681.4000000953674,2,r,v,2,,,
2cb,VDACtest,50,r,true,481.7000000476837,1,g,v,0,,,
brk,brk,brk,brk,brk,brk,brk,brk,brk,brk,brk,brk,
2cb,VDACtest,51,r,true,756.5999999046326,1,g,h,1,,,
2cb,VDACtest,52,r,true,647.8999998569489,2,r,h,0,,,
2cb,VDACtest,53,r,true,657.3999998569489,2,r,v,2,,,
2cb,VDACtest,54,r,true,641.0999999046326,1,g,h,1,,,
2cb,VDACtest,55,r,true,543.5999999046326,2,r,h,5,,,
2cb,VDACtest,56,r,true,585.2999999523163,2,r,v,3,,,
2cb,VDACtest,57,r,true,729,1,g,h,4,,,
2cb,VDACtest,58,r,true,799.6999998092651,1,g,v,2,,,
2cb,VDACtest,59,r,true,601.2000000476837,1,g,v,4,,,
2cb,VDACtest,60,r,true,672.4000000953674,1,g,h,3,,,
2cb,VDACtest,61,r,true,593,2,r,h,2,,,
2cb,VDACtest,62,r,true,634.9000000953674,1,g,v,1,,,
2cb,VDACtest,63,r,false,703.0999999046326,1,g,v,2,,,
2cb,VDACtest,64,r,true,625.4000000953674,1,g,h,5,,,
2cb,VDACtest,65,r,true,720.5,2,r,h,1,,,
2cb,VDACtest,66,r,true,584.9000000953674,2,r,v,0,,,
2cb,VDACtest,67,r,true,752.8000001907349,1,g,v,3,,,
2cb,VDACtest,68,r,true,545.8000001907349,1,g,v,3,,,
2cb,VDACtest,69,r,true,569.3999998569489,2,r,v,4,,,
2cb,VDACtest,70,r,true,777.7999999523163,2,r,v,2,,,
2cb,VDACtest,71,r,true,481.59999990463257,2,r,v,4,,,
2cb,VDACtest,72,r,true,704.6000001430511,1,g,v,0,,,
2cb,VDACtest,73,r,true,665.0999999046326,2,r,v,1,,,
2cb,VDACtest,74,r,true,610,1,g,h,0,,,
2cb,VDACtest,75,r,true,898.2999999523163,1,g,v,5,,,
2cb,VDACtest,76,r,null,null,2,r,h,2,,,
2cb,VDACtest,77,r,true,595.2000000476837,2,r,v,0,,,
2cb,VDACtest,78,r,true,625.6999998092651,1,g,h,0,,,
2cb,VDACtest,79,r,true,705.7999999523163,1,g,h,4,,,
2cb,VDACtest,80,r,true,832.8000001907349,1,g,v,1,,,
2cb,VDACtest,81,r,true,529,1,g,v,0,,,
2cb,VDACtest,82,r,true,553.7000000476837,1,g,h,5,,,
2cb,VDACtest,83,r,true,416.7999999523163,1,g,h,5,,,
2cb,VDACtest,84,r,true,576.6999998092651,1,g,h,3,,,
2cb,VDACtest,85,r,true,672.2999999523163,2,r,h,1,,,
2cb,VDACtest,86,r,true,461.7999999523163,2,r,h,4,,,
2cb,VDACtest,87,r,true,418.10000014305115,2,r,h,5,,,
2cb,VDACtest,88,r,true,529.2999999523163,1,g,h,3,,,
2cb,VDACtest,89,r,true,442.10000014305115,2,r,v,5,,,
2cb,VDACtest,90,r,true,849,2,r,v,0,,,
2cb,VDACtest,91,r,true,648.9000000953674,1,g,v,2,,,
2cb,VDACtest,92,r,true,586.4000000953674,1,g,h,5,,,
2cb,VDACtest,93,r,true,538.2000000476837,1,g,h,2,,,
2cb,VDACtest,94,r,true,465.39999985694885,2,r,h,5,,,
2cb,VDACtest,95,r,true,512.4000000953674,1,g,v,4,,,
2cb,VDACtest,96,r,true,585.4000000953674,1,g,v,0,,,
2cb,VDACtest,97,r,false,566.4000000953674,1,g,h,1,,,
2cb,VDACtest,98,r,true,552.8000001907349,1,g,h,0,,,
2cb,VDACtest,99,r,true,721.6999998092651,2,r,h,3,,,
2cb,VDACtest,100,r,true,512.5,2,r,h,2,,,
brk,brk,brk,brk,brk,brk,brk,brk,brk,brk,brk,brk,
2cb,VDACtest,101,r,true,763,1,g,h,1,,,
2cb,VDACtest,102,r,true,672.6999998092651,1,g,v,4,,,
2cb,VDACtest,103,r,true,531,1,g,h,3,,,
2cb,VDACtest,104,r,true,705.3000001907349,2,r,h,1,,,
2cb,VDACtest,105,r,true,601.2000000476837,1,g,h,0,,,
2cb,VDACtest,106,r,true,553,2,r,v,4,,,
2cb,VDACtest,107,r,true,568,2,r,v,5,,,
2cb,VDACtest,108,r,true,456.5,1,g,h,4,,,
2cb,VDACtest,109,r,true,545.5,1,g,h,4,,,
2cb,VDACtest,110,r,true,607.6000001430511,1,g,v,0,,,
2cb,VDACtest,111,r,true,713.3999998569489,1,g,v,2,,,
2cb,VDACtest,112,r,true,545.0999999046326,2,r,v,5,,,
2cb,VDACtest,113,r,true,601.0999999046326,1,g,v,3,,,
2cb,VDACtest,114,r,true,545.0999999046326,2,r,h,0,,,
2cb,VDACtest,115,r,true,680.5999999046326,2,r,h,4,,,
2cb,VDACtest,116,r,true,657.6000001430511,1,g,h,4,,,
2cb,VDACtest,117,r,true,630.3000001907349,1,g,h,4,,,
2cb,VDACtest,118,r,true,648.7000000476837,1,g,v,1,,,
2cb,VDACtest,119,r,true,529.9000000953674,2,r,h,0,,,
2cb,VDACtest,120,r,true,527.7000000476837,1,g,v,4,,,
2cb,VDACtest,121,r,true,641.1000001430511,2,r,v,5,,,
2cb,VDACtest,122,r,true,609.2999999523163,2,r,h,0,,,
2cb,VDACtest,123,r,true,528.5,1,g,v,5,,,
2cb,VDACtest,124,r,true,689.2999999523163,2,r,h,4,,,
2cb,VDACtest,125,r,true,705.2999999523163,2,r,v,0,,,
2cb,VDACtest,126,r,true,598.7000000476837,1,g,v,5,,,
2cb,VDACtest,127,r,true,513.5999999046326,2,r,v,5,,,
2cb,VDACtest,128,r,true,681.7999999523163,1,g,v,2,,,
2cb,VDACtest,129,r,true,528.0999999046326,2,r,h,3,,,
2cb,VDACtest,130,r,true,464.7999999523163,2,r,v,4,,,
2cb,VDACtest,131,r,true,601.5999999046326,1,g,h,2,,,
2cb,VDACtest,132,r,true,519.8999998569489,2,r,v,3,,,
2cb,VDACtest,133,r,true,712.5,1,g,v,0,,,
2cb,VDACtest,134,r,true,498.2000000476837,1,g,h,2,,,
2cb,VDACtest,135,r,true,503.89999985694885,1,g,v,2,,,
2cb,VDACtest,136,r,true,680.5,2,r,v,0,,,
2cb,VDACtest,137,r,true,528.7000000476837,2,r,h,1,,,
2cb,VDACtest,138,r,true,585.3999998569489,1,g,h,2,,,
2cb,VDACtest,139,r,true,713.2000000476837,1,g,h,2,,,
2cb,VDACtest,140,r,true,638.5,2,r,h,0,,,
2cb,VDACtest,141,r,true,721.0999999046326,2,r,v,1,,,
2cb,VDACtest,142,r,true,528.9000000953674,1,g,v,5,,,
2cb,VDACtest,143,r,true,623.4000000953674,1,g,v,3,,,
2cb,VDACtest,144,r,true,753.0999999046326,1,g,h,5,,,
2cb,VDACtest,145,r,true,831.2000000476837,1,g,h,1,,,
2cb,VDACtest,146,r,true,528.9000000953674,2,r,h,1,,,
2cb,VDACtest,147,r,true,519.8000001907349,2,r,h,0,,,
2cb,VDACtest,148,r,true,688.8999998569489,1,g,h,4,,,
2cb,VDACtest,149,r,true,576.8999998569489,1,g,v,1,,,
2cb,VDACtest,150,r,true,657.7999999523163,1,g,h,3,,,
brk,brk,brk,brk,brk,brk,brk,brk,brk,brk,brk,brk,
2cb,VDACtest,151,r,true,511,1,g,h,0,,,
2cb,VDACtest,152,r,true,639.5,2,r,v,1,,,
2cb,VDACtest,153,r,true,489,1,g,v,3,,,
2cb,VDACtest,154,r,true,738.3000001907349,2,r,h,4,,,
2cb,VDACtest,155,r,true,529,2,r,h,2,,,
2cb,VDACtest,156,r,true,456.7999999523163,1,g,v,4,,,
2cb,VDACtest,157,r,true,648.7000000476837,2,r,v,3,,,
2cb,VDACtest,158,r,true,656.7000000476837,2,r,v,2,,,
2cb,VDACtest,159,r,true,586.2000000476837,2,r,v,1,,,
2cb,VDACtest,160,r,true,514,2,r,v,4,,,
2cb,VDACtest,161,r,true,617.8000001907349,2,r,h,3,,,
2cb,VDACtest,162,r,true,674.0999999046326,1,g,h,2,,,
2cb,VDACtest,163,r,true,568.7000000476837,2,r,h,4,,,
2cb,VDACtest,164,r,true,682.0999999046326,2,r,v,5,,,
2cb,VDACtest,165,r,true,745.3999998569489,2,r,v,1,,,
2cb,VDACtest,166,r,true,649,1,g,v,4,,,
2cb,VDACtest,167,r,true,608.5999999046326,1,g,v,1,,,
2cb,VDACtest,168,r,true,592,2,r,v,0,,,
2cb,VDACtest,169,r,true,570.7000000476837,2,r,v,4,,,
2cb,VDACtest,170,r,true,607.5,1,g,v,5,,,
2cb,VDACtest,171,r,true,679.7999999523163,2,r,v,1,,,
2cb,VDACtest,172,r,true,625.5,1,g,v,4,,,
2cb,VDACtest,173,r,true,521.0999999046326,1,g,h,3,,,
2cb,VDACtest,174,r,true,552.2999999523163,1,g,v,4,,,
2cb,VDACtest,175,r,true,760,2,r,v,2,,,
2cb,VDACtest,176,r,true,631.9000000953674,2,r,h,5,,,
2cb,VDACtest,177,r,true,599.7999999523163,2,r,h,3,,,
2cb,VDACtest,178,r,true,641.0999999046326,1,g,h,3,,,
2cb,VDACtest,179,r,true,520.6999998092651,2,r,v,4,,,
2cb,VDACtest,180,r,true,679.2999999523163,2,r,h,3,,,
2cb,VDACtest,181,r,true,694.9000000953674,2,r,h,1,,,
2cb,VDACtest,182,r,true,495.40000009536743,1,g,v,4,,,
2cb,VDACtest,183,r,true,601.3999998569489,2,r,v,2,,,
2cb,VDACtest,184,r,true,648.6000001430511,2,r,h,1,,,
2cb,VDACtest,185,r,true,544.2999999523163,1,g,h,1,,,
2cb,VDACtest,186,r,true,568.0999999046326,2,r,h,2,,,
2cb,VDACtest,187,r,true,576.7000000476837,1,g,h,5,,,
2cb,VDACtest,188,r,true,490.09999990463257,2,r,v,3,,,
2cb,VDACtest,189,r,true,384.10000014305115,1,g,h,5,,,
2cb,VDACtest,190,r,true,471.7000000476837,2,r,h,2,,,
2cb,VDACtest,191,r,true,400.40000009536743,1,g,h,5,,,
2cb,VDACtest,192,r,true,530.3000001907349,1,g,v,3,,,
2cb,VDACtest,193,r,true,489.89999985694885,2,r,v,0,,,
2cb,VDACtest,194,r,true,526.8999998569489,2,r,h,4,,,
2cb,VDACtest,195,r,true,535.7000000476837,1,g,v,1,,,
2cb,VDACtest,196,r,true,514,1,g,v,3,,,
2cb,VDACtest,197,r,true,536.2000000476837,2,r,h,3,,,
2cb,VDACtest,198,r,true,441.5,1,g,h,0,,,
2cb,VDACtest,199,r,true,489.2999999523163,2,r,h,3,,,
2cb,VDACtest,200,r,true,719.2000000476837,1,g,v,1,,,
2cb,RSVPtrain,0,r,true,1785.5,2,r,,3,2,1,
2cb,RSVPtrain,0,r,false,1450.3000001907349,0,b,,0,3,0,
2cb,RSVPtrain,0,r,true,787.1000001430511,1,g,,2,2,2,
2cb,RSVPtrain,0,r,true,1019.2000000476837,1,g,,3,0,1,
2cb,RSVPtrain,0,r,true,1300.1000001430511,2,r,,0,0,2,
2cb,RSVPtrain,0,r,true,693.1999998092651,1,g,,3,1,1,
2cb,RSVPtrain,0,r,true,1138.6000001430511,0,b,,1,3,0,
2cb,RSVPtrain,0,r,true,995.4000000953674,1,g,,1,0,1,
2cb,RSVPtrain,0,r,true,947.7999999523163,2,r,,1,1,2,
2cb,RSVPtrain,0,r,false,875.9000000953674,0,b,,3,3,0,
2cb,RSVPtest,1,r,true,861.7000000476837,0,b,,3,3,0,
2cb,RSVPtest,2,r,true,969.2000000476837,2,r,,2,1,1,
2cb,RSVPtest,3,r,true,818.3000001907349,2,r,,2,1,1,
2cb,RSVPtest,4,r,true,763.7999999523163,2,r,,0,0,2,
2cb,RSVPtest,5,r,false,794.7999999523163,2,r,,3,0,1,
2cb,RSVPtest,6,r,true,891.9000000953674,2,r,,0,2,1,
2cb,RSVPtest,7,r,false,682.0999999046326,1,g,,3,2,1,
2cb,RSVPtest,8,r,false,996.7999999523163,1,g,,1,2,1,
2cb,RSVPtest,9,r,false,1243.7000000476837,2,r,,3,2,1,
2cb,RSVPtest,10,r,true,818.5,2,r,,3,0,1,
2cb,RSVPtest,11,r,true,667.6000001430511,2,r,,1,0,1,
2cb,RSVPtest,12,r,true,979.7000000476837,2,r,,0,2,1,
2cb,RSVPtest,13,r,true,938,2,r,,1,1,2,
2cb,RSVPtest,14,r,true,650,1,g,,1,2,1,
2cb,RSVPtest,15,r,true,859.9000000953674,0,b,,1,3,0,
2cb,RSVPtest,16,r,true,681,0,b,,2,3,0,
2cb,RSVPtest,17,r,true,819.5,0,b,,3,3,0,
2cb,RSVPtest,18,r,true,724.4000000953674,0,b,,2,3,0,
2cb,RSVPtest,19,r,true,744.8999998569489,0,b,,3,3,0,
2cb,RSVPtest,20,r,true,1135.1000001430511,1,g,,3,1,1,
2cb,RSVPtest,21,r,true,747.7000000476837,1,g,,2,0,1,
2cb,RSVPtest,22,r,true,689.9000000953674,2,r,,2,0,1,
2cb,RSVPtest,23,r,null,null,0,b,,3,3,0,
2cb,RSVPtest,24,r,true,494.7999999523163,2,r,,2,1,1,
2cb,RSVPtest,25,r,true,473.7000000476837,0,b,,2,3,0,
2cb,RSVPtest,26,r,true,403.7999999523163,2,r,,1,1,2,
2cb,RSVPtest,27,r,true,650.2000000476837,1,g,,3,0,1,
2cb,RSVPtest,28,r,true,648.7000000476837,0,b,,3,3,0,
2cb,RSVPtest,29,r,true,627.2999999523163,1,g,,2,1,1,
2cb,RSVPtest,30,r,true,699.6000001430511,2,r,,3,2,1,
2cb,RSVPtest,31,r,true,641.2000000476837,0,b,,2,3,0,
2cb,RSVPtest,32,r,true,698.0999999046326,2,r,,1,1,2,
2cb,RSVPtest,33,r,true,658.6000001430511,1,g,,3,0,1,
2cb,RSVPtest,34,r,true,513.7999999523163,2,r,,1,0,1,
2cb,RSVPtest,35,r,true,674,1,g,,3,1,1,
2cb,RSVPtest,36,r,true,825.7999999523163,1,g,,2,0,1,
2cb,RSVPtest,37,r,true,767.1000001430511,1,g,,1,1,2,
2cb,RSVPtest,38,r,true,1059.2999999523163,1,g,,1,1,2,
2cb,RSVPtest,39,r,true,523.5,2,r,,2,2,2,
2cb,RSVPtest,40,r,true,419.5,1,g,,2,2,2,
2cb,RSVPtest,41,r,true,650.2000000476837,1,g,,3,0,1,
2cb,RSVPtest,42,r,true,420.10000014305115,1,g,,1,2,1,
2cb,RSVPtest,43,r,false,474.90000009536743,2,r,,3,0,1,
2cb,RSVPtest,44,r,false,763.3000001907349,0,b,,3,3,0,
2cb,RSVPtest,45,r,true,586.9000000953674,2,r,,3,2,1,
2cb,RSVPtest,46,r,true,587.3999998569489,1,g,,0,0,2,
2cb,RSVPtest,47,r,true,602.5999999046326,0,b,,3,3,0,
2cb,RSVPtest,48,r,false,625.7999999523163,0,b,,2,3,0,
2cb,RSVPtest,49,r,true,540.3000001907349,0,b,,1,3,0,
2cb,RSVPtest,50,r,true,586.7999999523163,0,b,,0,3,0,
2cb,RSVPtest,51,r,false,729.5,1,g,,3,1,1,
2cb,RSVPtest,52,r,true,577.6999998092651,1,g,,3,0,1,
2cb,RSVPtest,53,r,true,722.0999999046326,0,b,,0,3,0,
2cb,RSVPtest,54,r,true,560.5999999046326,2,r,,3,2,1,
2cb,RSVPtest,55,r,true,674.6000001430511,1,g,,3,2,1,
2cb,RSVPtest,56,r,true,620.7999999523163,0,b,,3,3,0,
2cb,RSVPtest,57,r,true,1010.1000001430511,1,g,,3,1,1,
2cb,RSVPtest,58,r,true,603,0,b,,1,3,0,
2cb,RSVPtest,59,r,true,632.8999998569489,1,g,,1,1,2,
2cb,RSVPtest,60,r,true,497.80000019073486,1,g,,1,0,1,
brk,brk,brk,brk,brk,brk,brk,brk,brk,brk,brk,brk,
2cb,RSVPtest,61,r,true,523.8999998569489,0,b,,3,3,0,
2cb,RSVPtest,62,r,true,417.5,0,b,,0,3,0,
2cb,RSVPtest,63,r,true,585.5999999046326,2,r,,1,0,1,
2cb,RSVPtest,64,r,true,458.5,0,b,,2,3,0,
2cb,RSVPtest,65,r,true,433.39999985694885,2,r,,3,0,1,
2cb,RSVPtest,66,r,true,811.4000000953674,1,g,,3,2,1,
2cb,RSVPtest,67,r,false,512.5,1,g,,3,0,1,
2cb,RSVPtest,68,r,false,592.5,2,r,,1,0,1,
2cb,RSVPtest,69,r,true,1771.7000000476837,0,b,,3,3,0,
2cb,RSVPtest,70,r,true,624.2000000476837,0,b,,3,3,0,
2cb,RSVPtest,71,r,true,1193,0,b,,3,3,0,
2cb,RSVPtest,72,r,true,701.6000001430511,2,r,,1,2,1,
2cb,RSVPtest,73,r,false,704.8000001907349,2,r,,3,1,1,
2cb,RSVPtest,74,r,true,730.7000000476837,2,r,,3,1,1,
2cb,RSVPtest,75,r,true,689.7999999523163,1,g,,0,1,1,
2cb,RSVPtest,76,r,false,913.0999999046326,2,r,,1,2,1,
2cb,RSVPtest,77,r,true,649.6000001430511,0,b,,0,3,0,
2cb,RSVPtest,78,r,true,424.90000009536743,0,b,,0,3,0,
2cb,RSVPtest,79,r,true,392.40000009536743,2,r,,0,1,1,
2cb,RSVPtest,80,r,true,455,2,r,,0,0,2,
2cb,RSVPtest,81,r,true,648,2,r,,2,0,1,
2cb,RSVPtest,82,r,true,689.2000000476837,2,r,,3,2,1,
2cb,RSVPtest,83,r,false,618.6000001430511,1,g,,1,1,2,
2cb,RSVPtest,84,r,true,826.2000000476837,1,g,,2,0,1,
2cb,RSVPtest,85,r,true,826.7000000476837,1,g,,3,0,1,
2cb,RSVPtest,86,r,true,595.1999998092651,2,r,,1,2,1,
2cb,RSVPtest,87,r,true,642.9000000953674,2,r,,1,1,2,
2cb,RSVPtest,88,r,true,457.7000000476837,1,g,,0,2,1,
2cb,RSVPtest,89,r,true,633.2000000476837,1,g,,3,2,1,
2cb,RSVPtest,90,r,true,706.2999999523163,1,g,,3,1,1,
2cb,RSVPtest,91,r,true,577.4000000953674,2,r,,0,1,1,
2cb,RSVPtest,92,r,true,497.7999999523163,2,r,,3,2,1,
2cb,RSVPtest,93,r,true,584.5999999046326,0,b,,1,3,0,
2cb,RSVPtest,94,r,true,760.7999999523163,2,r,,3,0,1,
2cb,RSVPtest,95,r,true,714.6000001430511,1,g,,0,0,2,
2cb,RSVPtest,96,r,true,504.2000000476837,1,g,,3,2,1,
2cb,RSVPtest,97,r,true,649.2999999523163,1,g,,2,0,1,
2cb,RSVPtest,98,r,true,690.2000000476837,0,b,,0,3,0,
2cb,RSVPtest,99,r,true,736.5999999046326,0,b,,1,3,0,
2cb,RSVPtest,100,r,true,680.0999999046326,2,r,,3,0,1,
2cb,RSVPtest,101,r,true,625.7000000476837,1,g,,3,2,1,
2cb,RSVPtest,102,r,true,639.7999999523163,2,r,,3,1,1,
2cb,RSVPtest,103,r,true,928.0999999046326,1,g,,2,1,1,
2cb,RSVPtest,104,r,true,1471.1000001430511,2,r,,0,2,1,
2cb,RSVPtest,105,r,true,577.2999999523163,0,b,,1,3,0,
2cb,RSVPtest,106,r,true,610.2000000476837,1,g,,2,1,1,
2cb,RSVPtest,107,r,true,441.2000000476837,0,b,,1,3,0,
2cb,RSVPtest,108,r,true,630.9000000953674,0,b,,1,3,0,
2cb,RSVPtest,109,r,true,480,0,b,,1,3,0,
2cb,RSVPtest,110,r,true,424.09999990463257,2,r,,1,0,1,
2cb,RSVPtest,111,r,true,666.7000000476837,2,r,,2,0,1,
2cb,RSVPtest,112,r,true,529,2,r,,2,0,1,
2cb,RSVPtest,113,r,true,569.2999999523163,2,r,,2,0,1,
2cb,RSVPtest,114,r,true,545,2,r,,2,2,2,
2cb,RSVPtest,115,r,true,530.2000000476837,2,r,,3,2,1,
2cb,RSVPtest,116,r,true,705.2000000476837,1,g,,3,0,1,
2cb,RSVPtest,117,r,true,736.9000000953674,1,g,,0,0,2,
2cb,RSVPtest,118,r,true,520.8000001907349,0,b,,2,3,0,
2cb,RSVPtest,119,r,true,640.3999998569489,2,r,,3,1,1,
2cb,RSVPtest,120,r,true,744.8000001907349,2,r,,3,1,1,
brk,brk,brk,brk,brk,brk,brk,brk,brk,brk,brk,brk,
2cb,RSVPtest,121,r,true,494.60000014305115,2,r,,0,1,1,
2cb,RSVPtest,122,r,true,728,1,g,,3,2,1,
2cb,RSVPtest,123,r,true,543.9000000953674,1,g,,1,1,2,
2cb,RSVPtest,124,r,true,639.2999999523163,2,r,,3,0,1,
2cb,RSVPtest,125,r,true,481.09999990463257,1,g,,2,0,1,
2cb,RSVPtest,126,r,true,487.60000014305115,0,b,,2,3,0,
2cb,RSVPtest,127,r,true,688.7999999523163,2,r,,3,1,1,
2cb,RSVPtest,128,r,true,872.7000000476837,1,g,,3,1,1,
2cb,RSVPtest,129,r,true,426.60000014305115,1,g,,1,2,1,
2cb,RSVPtest,130,r,true,584.7000000476837,1,g,,3,2,1,
2cb,RSVPtest,131,r,true,728.8999998569489,0,b,,0,3,0,
2cb,RSVPtest,132,r,true,816.3999998569489,1,g,,1,2,1,
2cb,RSVPtest,133,r,true,632.0999999046326,2,r,,0,2,1,
2cb,RSVPtest,134,r,false,551.7000000476837,1,g,,3,2,1,
2cb,RSVPtest,135,r,true,791.8999998569489,0,b,,2,3,0,
2cb,RSVPtest,136,r,true,600.6000001430511,1,g,,2,2,2,
2cb,RSVPtest,137,r,true,688,2,r,,3,1,1,
2cb,RSVPtest,138,r,true,545.3999998569489,1,g,,2,1,1,
2cb,RSVPtest,139,r,true,552.2000000476837,2,r,,2,2,2,
2cb,RSVPtest,140,r,true,649.5999999046326,0,b,,3,3,0,
2cb,RSVPtest,141,r,true,463.30000019073486,2,r,,0,0,2,
2cb,RSVPtest,142,r,true,713.5,2,r,,3,0,1,
2cb,RSVPtest,143,r,true,480.39999985694885,2,r,,2,1,1,
2cb,RSVPtest,144,r,false,594.9000000953674,1,g,,0,2,1,
2cb,RSVPtest,145,r,true,503.89999985694885,0,b,,0,3,0,
2cb,RSVPtest,146,r,false,527.5,0,b,,3,3,0,
2cb,RSVPtest,147,r,true,703.5,2,r,,0,0,2,
2cb,RSVPtest,148,r,false,791,1,g,,1,0,1,
2cb,RSVPtest,149,r,true,586,1,g,,0,0,2,
2cb,RSVPtest,150,r,true,584.6000001430511,1,g,,0,1,1,
2cb,RSVPtest,151,r,true,505,1,g,,0,2,1,
2cb,RSVPtest,152,r,true,653.8999998569489,2,r,,3,2,1,
2cb,RSVPtest,153,r,true,466,0,b,,0,3,0,
2cb,RSVPtest,154,r,true,604.9000000953674,2,r,,3,2,1,
2cb,RSVPtest,155,r,true,871.6999998092651,2,r,,2,2,2,
2cb,RSVPtest,156,r,true,576.1999998092651,2,r,,0,1,1,
2cb,RSVPtest,157,r,true,680.7999999523163,1,g,,1,1,2,
2cb,RSVPtest,158,r,false,617.2999999523163,2,r,,3,2,1,
2cb,RSVPtest,159,r,true,688,0,b,,0,3,0,
2cb,RSVPtest,160,r,true,577.1999998092651,2,r,,2,1,1,
2cb,RSVPtest,161,r,true,509.80000019073486,2,r,,2,2,2,
2cb,RSVPtest,162,r,true,408.2999999523163,2,r,,0,2,1,
2cb,RSVPtest,163,r,true,710.9000000953674,1,g,,3,0,1,
2cb,RSVPtest,164,r,true,343.19999980926514,1,g,,2,1,1,
2cb,RSVPtest,165,r,true,703.5999999046326,1,g,,2,2,2,
2cb,RSVPtest,166,r,true,1031.7000000476837,2,r,,3,1,1,
2cb,RSVPtest,167,r,true,637.7000000476837,2,r,,3,1,1,
2cb,RSVPtest,168,r,true,608.5,1,g,,0,1,1,
2cb,RSVPtest,169,r,true,592.5,2,r,,3,2,1,
2cb,RSVPtest,170,r,true,550.8000001907349,2,r,,0,2,1,
2cb,RSVPtest,171,r,false,775.3999998569489,1,g,,0,2,1,
2cb,RSVPtest,172,r,true,623.2000000476837,1,g,,0,2,1,
2cb,RSVPtest,173,r,true,692.7000000476837,2,r,,3,0,1,
2cb,RSVPtest,174,r,false,832.7000000476837,1,g,,3,0,1,
2cb,RSVPtest,175,r,true,682.0999999046326,1,g,,3,1,1,
2cb,RSVPtest,176,r,true,575.2999999523163,1,g,,1,0,1,
2cb,RSVPtest,177,r,true,705.2000000476837,2,r,,1,2,1,
2cb,RSVPtest,178,r,true,343.69999980926514,1,g,,1,2,1,
2cb,RSVPtest,179,r,true,680.8000001907349,2,r,,1,2,1,
2cb,RSVPtest,180,r,true,655.0999999046326,1,g,,0,0,2,
brk,brk,brk,brk,brk,brk,brk,brk,brk,brk,brk,brk,
2cb,RSVPtest,181,r,true,464.59999990463257,1,g,,1,0,1,
2cb,RSVPtest,182,r,true,413.2000000476837,0,b,,2,3,0,
2cb,RSVPtest,183,r,false,534.3999998569489,1,g,,3,0,1,
2cb,RSVPtest,184,r,true,713.5999999046326,1,g,,3,1,1,
2cb,RSVPtest,185,r,true,599,0,b,,0,3,0,
2cb,RSVPtest,186,r,true,608.2999999523163,1,g,,2,0,1,
2cb,RSVPtest,187,r,true,551.7000000476837,1,g,,0,2,1,
2cb,RSVPtest,188,r,true,853.7000000476837,2,r,,3,0,1,
2cb,RSVPtest,189,r,true,550.0999999046326,2,r,,1,2,1,
2cb,RSVPtest,190,r,true,519.6000001430511,1,g,,2,2,2,
2cb,RSVPtest,191,r,true,582.5,2,r,,2,0,1,
2cb,RSVPtest,192,r,false,1007.4000000953674,2,r,,0,0,2,
2cb,RSVPtest,193,r,true,1200.0999999046326,1,g,,3,2,1,
2cb,RSVPtest,194,r,true,750.2000000476837,2,r,,0,1,1,
2cb,RSVPtest,195,r,true,846.2999999523163,0,b,,3,3,0,
2cb,RSVPtest,196,r,true,663.7000000476837,0,b,,3,3,0,
2cb,RSVPtest,197,r,true,759.7000000476837,1,g,,3,2,1,
2cb,RSVPtest,198,r,true,1367,2,r,,3,1,1,
2cb,RSVPtest,199,r,false,702.7000000476837,0,b,,3,3,0,
2cb,RSVPtest,200,r,true,463.40000009536743,1,g,,1,0,1,
2cb,RSVPtest,201,r,true,759.1999998092651,2,r,,2,2,2,
2cb,RSVPtest,202,r,true,662,1,g,,3,0,1,
2cb,RSVPtest,203,r,true,1526.5999999046326,2,r,,0,1,1,
2cb,RSVPtest,204,r,true,372.7000000476837,0,b,,2,3,0,
2cb,RSVPtest,205,r,true,639.7000000476837,1,g,,3,2,1,
2cb,RSVPtest,206,r,false,675.1000001430511,0,b,,3,3,0,
2cb,RSVPtest,207,r,false,647.5,0,b,,0,3,0,
2cb,RSVPtest,208,r,true,638.0999999046326,2,r,,3,0,1,
2cb,RSVPtest,209,r,true,741.4000000953674,0,b,,3,3,0,
2cb,RSVPtest,210,r,true,638.3999998569489,1,g,,3,1,1,
2cb,RSVPtest,211,r,true,526.5999999046326,1,g,,2,2,2,
2cb,RSVPtest,212,r,true,638.0999999046326,0,b,,1,3,0,
2cb,RSVPtest,213,r,true,767.4000000953674,1,g,,3,0,1,
2cb,RSVPtest,214,r,true,845.5,0,b,,3,3,0,
2cb,RSVPtest,215,r,true,503.7999999523163,2,r,,1,1,2,
2cb,RSVPtest,216,r,true,590,1,g,,3,1,1,
2cb,RSVPtest,217,r,false,687.5,2,r,,2,1,1,
2cb,RSVPtest,218,r,true,728,2,r,,1,1,2,
2cb,RSVPtest,219,r,true,593.2000000476837,0,b,,3,3,0,
2cb,RSVPtest,220,r,true,648.7000000476837,1,g,,3,1,1,
2cb,RSVPtest,221,r,true,566.2999999523163,2,r,,3,0,1,
2cb,RSVPtest,222,r,false,440.2999999523163,1,g,,0,1,1,
2cb,RSVPtest,223,r,true,439,1,g,,0,0,2,
2cb,RSVPtest,224,r,true,521.1000001430511,1,g,,1,0,1,
2cb,RSVPtest,225,r,false,552.5999999046326,0,b,,3,3,0,
2cb,RSVPtest,226,r,true,527.5,2,r,,3,1,1,
2cb,RSVPtest,227,r,true,487.2000000476837,1,g,,2,2,2,
2cb,RSVPtest,228,r,true,454.5,2,r,,0,0,2,
2cb,RSVPtest,229,r,true,671.2000000476837,1,g,,0,1,1,
2cb,RSVPtest,230,r,true,527.9000000953674,2,r,,3,1,1,
2cb,RSVPtest,231,r,true,544.2999999523163,0,b,,3,3,0,
2cb,RSVPtest,232,r,false,878.5,0,b,,3,3,0,
2cb,RSVPtest,233,r,true,592,2,r,,3,2,1,
2cb,RSVPtest,234,r,true,1557.6000001430511,1,g,,3,1,1,
2cb,RSVPtest,235,r,true,798.7000000476837,1,g,,2,1,1,
2cb,RSVPtest,236,r,true,488.2000000476837,2,r,,1,0,1,
2cb,RSVPtest,237,r,true,718.5,1,g,,0,1,1,
2cb,RSVPtest,238,r,true,582.7000000476837,0,b,,1,3,0,
2cb,RSVPtest,239,r,true,423.19999980926514,0,b,,1,3,0,
2cb,RSVPtest,240,r,true,669.5,0,b,,2,3,0,
