subID,trialType,trialNum,cntBalance,correct,rt,rwdType,tgtCol,tgtDir,tgtPos,colPos,colMatch,
yww,VDACtrain,0,r,null,null,1,g,v,5,,,
yww,VDACtrain,0,r,null,null,1,g,v,2,,,
yww,VDACtrain,0,r,false,780.4000000357628,1,g,v,0,,,
yww,VDACtrain,0,r,null,null,2,r,h,1,,,
yww,VDACtrain,0,r,true,851.6999999880791,1,g,h,3,,,
yww,VDACtrain,0,r,true,939.8999999761581,2,r,v,3,,,
yww,VDACtrain,0,r,true,827.4000000357628,2,r,h,2,,,
yww,VDACtrain,0,r,true,691.3000000119209,1,g,h,5,,,
yww,VDACtrain,0,r,false,963.5,2,r,h,0,,,
yww,VDACtrain,0,r,null,null,2,r,v,4,,,
yww,VDACtrain,0,r,null,null,1,g,v,2,,,
yww,VDACtrain,0,r,true,766.1999999880791,2,r,v,3,,,
yww,VDACtrain,0,r,true,874.9000000357628,2,r,h,1,,,
yww,VDACtrain,0,r,false,707.3000000119209,1,g,v,0,,,
yww,VDACtrain,0,r,null,null,2,r,v,4,,,
yww,VDACtrain,0,r,true,773.8000000119209,1,g,h,5,,,
yww,VDACtrain,0,r,true,812.3000000119209,2,r,h,2,,,
yww,VDACtrain,0,r,null,null,1,g,h,3,,,
yww,VDACtrain,0,r,true,937.8999999761581,2,r,h,0,,,
yww,VDACtrain,0,r,true,676.6999999880791,1,g,v,5,,,
yww,VDACtest,1,r,true,806.1999999880791,1,g,v,4,,,
yww,VDACtest,2,r,null,null,1,g,h,5,,,
yww,VDACtest,3,r,true,736.5999999642372,1,g,h,2,,,
yww,VDACtest,4,r,null,null,1,g,v,1,,,
yww,VDACtest,5,r,null,null,2,r,h,4,,,
yww,VDACtest,6,r,null,null,2,r,h,0,,,
yww,VDACtest,7,r,null,null,1,g,h,2,,,
yww,VDACtest,8,r,true,784.3000000119209,1,g,h,1,,,
yww,VDACtest,9,r,true,716.5,2,r,v,3,,,
yww,VDACtest,10,r,null,null,2,r,h,0,,,
yww,VDACtest,11,r,true,718.8999999761581,2,r,v,3,,,
yww,VDACtest,12,r,null,null,1,g,h,2,,,
yww,VDACtest,13,r,true,855.3000000119209,1,g,v,1,,,
yww,VDACtest,14,r,false,978.7000000476837,2,r,v,3,,,
yww,VDACtest,15,r,true,756.8999999761581,2,r,v,2,,,
yww,VDACtest,16,r,true,637.2999999523163,2,r,h,4,,,
yww,VDACtest,17,r,true,621,1,g,v,1,,,
yww,VDACtest,18,r,true,596.6999999880791,2,r,v,1,,,
yww,VDACtest,19,r,true,540.8000000119209,2,r,v,1,,,
yww,VDACtest,20,r,true,434.5999999642372,1,g,h,0,,,
yww,VDACtest,21,r,true,538.3999999761581,1,g,h,5,,,
yww,VDACtest,22,r,true,596.5,2,r,h,2,,,
yww,VDACtest,23,r,true,586.3000000119209,1,g,v,5,,,
yww,VDACtest,24,r,null,null,2,r,h,4,,,
yww,VDACtest,25,r,true,839.8000000119209,2,r,h,1,,,
yww,VDACtest,26,r,true,652.3000000119209,1,g,h,3,,,
yww,VDACtest,27,r,true,869.3999999761581,1,g,v,2,,,
yww,VDACtest,28,r,true,701,1,g,v,0,,,
yww,VDACtest,29,r,true,564.5,2,r,h,0,,,
yww,VDACtest,30,r,false,675.3000000119209,1,g,h,1,,,
yww,VDACtest,31,r,true,732.2000000476837,2,r,h,0,,,
yww,VDACtest,32,r,true,733.3000000119209,1,g,h,5,,,
yww,VDACtest,33,r,false,660,2,r,v,1,,,
yww,VDACtest,34,r,null,null,1,g,h,3,,,
yww,VDACtest,35,r,true,856.6999999880791,2,r,v,4,,,
yww,VDACtest,36,r,false,635.3999999761581,1,g,h,5,,,
yww,VDACtest,37,r,false,613.8000000119209,1,g,v,5,,,
yww,VDACtest,38,r,null,null,1,g,h,4,,,
yww,VDACtest,39,r,true,788.1999999880791,1,g,h,2,,,
yww,VDACtest,40,r,true,516.6000000238419,2,r,v,1,,,
yww,VDACtest,41,r,true,674.8000000119209,2,r,h,3,,,
yww,VDACtest,42,r,true,619.5,1,g,h,4,,,
yww,VDACtest,43,r,true,802.6999999880791,1,g,v,0,,,
yww,VDACtest,44,r,true,546.1000000238419,2,r,v,0,,,
yww,VDACtest,45,r,false,627.9000000357628,1,g,v,4,,,
yww,VDACtest,46,r,true,763.6999999880791,1,g,v,2,,,
yww,VDACtest,47,r,true,675.8000000119209,2,r,h,1,,,
yww,VDACtest,48,r,true,628.6000000238419,1,g,h,0,,,
yww,VDACtest,49,r,true,581.1000000238419,2,r,h,0,,,
yww,VDACtest,50,r,true,586.2000000476837,2,r,v,4,,,
brk,brk,brk,brk,brk,brk,brk,brk,brk,brk,brk,brk,
yww,VDACtest,51,r,true,695.0999999642372,1,g,v,1,,,
yww,VDACtest,52,r,false,803.0999999642372,2,r,v,3,,,
yww,VDACtest,53,r,true,531.7000000476837,2,r,v,4,,,
yww,VDACtest,54,r,true,517.1999999880791,1,g,h,0,,,
yww,VDACtest,55,r,true,499.69999998807907,2,r,v,5,,,
yww,VDACtest,56,r,true,515.3999999761581,1,g,h,5,,,
yww,VDACtest,57,r,false,500.19999998807907,2,r,h,0,,,
yww,VDACtest,58,r,true,626.1000000238419,1,g,h,3,,,
yww,VDACtest,59,r,null,null,2,r,h,1,,,
yww,VDACtest,60,r,true,550.5,2,r,v,1,,,
yww,VDACtest,61,r,true,555.1000000238419,2,r,h,5,,,
yww,VDACtest,62,r,false,547,2,r,h,3,,,
yww,VDACtest,63,r,true,349.60000002384186,2,r,h,1,,,
yww,VDACtest,64,r,true,355.60000002384186,1,g,h,5,,,
yww,VDACtest,65,r,true,562.2000000476837,2,r,h,4,,,
yww,VDACtest,66,r,true,555.1999999880791,1,g,h,1,,,
yww,VDACtest,67,r,true,516.3999999761581,2,r,h,5,,,
yww,VDACtest,68,r,true,651.1999999880791,2,r,h,4,,,
yww,VDACtest,69,r,true,426,2,r,h,5,,,
yww,VDACtest,70,r,true,579.6999999880791,1,g,v,4,,,
yww,VDACtest,71,r,true,635.6999999880791,1,g,v,1,,,
yww,VDACtest,72,r,false,556.1000000238419,1,g,v,2,,,
yww,VDACtest,73,r,true,483.9000000357628,1,g,v,5,,,
yww,VDACtest,74,r,null,null,1,g,h,1,,,
yww,VDACtest,75,r,true,738.5,2,r,h,3,,,
yww,VDACtest,76,r,true,610.8000000119209,2,r,h,3,,,
yww,VDACtest,77,r,true,450.89999997615814,2,r,h,4,,,
yww,VDACtest,78,r,false,564.5999999642372,1,g,v,3,,,
yww,VDACtest,79,r,true,956.1999999880791,2,r,v,2,,,
yww,VDACtest,80,r,true,412.80000001192093,2,r,v,5,,,
yww,VDACtest,81,r,true,537.6000000238419,2,r,v,1,,,
yww,VDACtest,82,r,false,482.80000001192093,1,g,v,3,,,
yww,VDACtest,83,r,true,650.3999999761581,1,g,v,3,,,
yww,VDACtest,84,r,true,635.1999999880791,1,g,h,1,,,
yww,VDACtest,85,r,true,748.3000000119209,1,g,h,0,,,
yww,VDACtest,86,r,true,466.10000002384186,2,r,h,5,,,
yww,VDACtest,87,r,true,570.4000000357628,2,r,h,2,,,
yww,VDACtest,88,r,true,426.9000000357628,2,r,h,1,,,
yww,VDACtest,89,r,true,584.6999999880791,1,g,v,5,,,
yww,VDACtest,90,r,true,636.3000000119209,2,r,v,5,,,
yww,VDACtest,91,r,false,450.80000001192093,1,g,v,3,,,
yww,VDACtest,92,r,true,427.4000000357628,1,g,v,3,,,
yww,VDACtest,93,r,true,404.10000002384186,2,r,v,3,,,
yww,VDACtest,94,r,true,571.2999999523163,2,r,h,5,,,
yww,VDACtest,95,r,true,698.8000000119209,1,g,h,0,,,
yww,VDACtest,96,r,true,515.1000000238419,1,g,h,4,,,
yww,VDACtest,97,r,true,463.80000001192093,2,r,v,5,,,
yww,VDACtest,98,r,true,443.5,2,r,h,3,,,
yww,VDACtest,99,r,false,508.89999997615814,2,r,v,2,,,
yww,VDACtest,100,r,true,643.1999999880791,2,r,h,4,,,
brk,brk,brk,brk,brk,brk,brk,brk,brk,brk,brk,brk,
yww,VDACtest,101,r,null,null,1,g,v,4,,,
yww,VDACtest,102,r,true,565.5999999642372,2,r,h,2,,,
yww,VDACtest,103,r,true,435.69999998807907,2,r,h,5,,,
yww,VDACtest,104,r,true,355.69999998807907,1,g,v,5,,,
yww,VDACtest,105,r,true,635.1000000238419,2,r,h,1,,,
yww,VDACtest,106,r,true,508.89999997615814,1,g,v,0,,,
yww,VDACtest,107,r,true,548.8999999761581,1,g,h,2,,,
yww,VDACtest,108,r,true,513.6999999880791,2,r,h,1,,,
yww,VDACtest,109,r,true,428.19999998807907,2,r,h,0,,,
yww,VDACtest,110,r,true,564.8000000119209,2,r,v,0,,,
yww,VDACtest,111,r,true,609,2,r,v,2,,,
yww,VDACtest,112,r,true,483.7999999523163,1,g,h,1,,,
yww,VDACtest,113,r,true,437.19999998807907,2,r,v,2,,,
yww,VDACtest,114,r,true,546.3999999761581,2,r,h,2,,,
yww,VDACtest,115,r,true,674.8000000119209,2,r,v,3,,,
yww,VDACtest,116,r,false,514.8999999761581,1,g,v,4,,,
yww,VDACtest,117,r,true,412.0999999642372,2,r,v,0,,,
yww,VDACtest,118,r,true,547.1000000238419,1,g,v,2,,,
yww,VDACtest,119,r,true,458.19999998807907,1,g,h,4,,,
yww,VDACtest,120,r,false,602.8999999761581,1,g,v,3,,,
yww,VDACtest,121,r,true,419.10000002384186,1,g,v,4,,,
yww,VDACtest,122,r,true,657.1000000238419,2,r,h,5,,,
yww,VDACtest,123,r,false,666.5,1,g,v,2,,,
yww,VDACtest,124,r,false,588.5,2,r,v,5,,,
yww,VDACtest,125,r,true,498.69999998807907,1,g,v,4,,,
yww,VDACtest,126,r,true,403.0999999642372,2,r,v,4,,,
yww,VDACtest,127,r,true,586.6999999880791,1,g,v,2,,,
yww,VDACtest,128,r,true,459.89999997615814,1,g,v,1,,,
yww,VDACtest,129,r,true,456.69999998807907,2,r,v,5,,,
yww,VDACtest,130,r,true,411.10000002384186,2,r,v,4,,,
yww,VDACtest,131,r,true,482.69999998807907,1,g,v,4,,,
yww,VDACtest,132,r,true,595.6000000238419,2,r,v,1,,,
yww,VDACtest,133,r,true,772.4000000357628,1,g,h,0,,,
yww,VDACtest,134,r,false,547.8999999761581,2,r,h,0,,,
yww,VDACtest,135,r,true,883.2999999523163,2,r,v,2,,,
yww,VDACtest,136,r,true,513.1999999880791,1,g,v,1,,,
yww,VDACtest,137,r,true,537.1000000238419,2,r,v,5,,,
yww,VDACtest,138,r,true,602.6000000238419,2,r,h,4,,,
yww,VDACtest,139,r,true,498.30000001192093,1,g,h,2,,,
yww,VDACtest,140,r,true,579.3999999761581,1,g,v,5,,,
yww,VDACtest,141,r,true,410.89999997615814,1,g,v,0,,,
yww,VDACtest,142,r,true,512.3000000119209,2,r,v,4,,,
yww,VDACtest,143,r,true,564.5999999642372,2,r,h,3,,,
yww,VDACtest,144,r,false,523.6999999880791,2,r,v,0,,,
yww,VDACtest,145,r,true,676.2999999523163,2,r,h,3,,,
yww,VDACtest,146,r,true,427.60000002384186,1,g,v,0,,,
yww,VDACtest,147,r,true,594.1999999880791,1,g,h,5,,,
yww,VDACtest,148,r,true,588.1999999880791,1,g,v,5,,,
yww,VDACtest,149,r,false,459.19999998807907,1,g,v,0,,,
yww,VDACtest,150,r,null,null,1,g,h,1,,,
brk,brk,brk,brk,brk,brk,brk,brk,brk,brk,brk,brk,
yww,VDACtest,151,r,false,554.6000000238419,2,r,v,4,,,
yww,VDACtest,152,r,true,586.6000000238419,1,g,v,3,,,
yww,VDACtest,153,r,false,490.80000001192093,1,g,v,2,,,
yww,VDACtest,154,r,true,457.2999999523163,2,r,h,3,,,
yww,VDACtest,155,r,false,434.89999997615814,2,r,v,3,,,
yww,VDACtest,156,r,false,626.3999999761581,2,r,h,5,,,
yww,VDACtest,157,r,true,554,2,r,v,3,,,
yww,VDACtest,158,r,null,null,1,g,h,4,,,
yww,VDACtest,159,r,true,396.89999997615814,1,g,h,4,,,
yww,VDACtest,160,r,false,475.0999999642372,1,g,v,2,,,
yww,VDACtest,161,r,true,514.6000000238419,2,r,v,4,,,
yww,VDACtest,162,r,true,707.1000000238419,1,g,h,3,,,
yww,VDACtest,163,r,true,595.7999999523163,1,g,h,4,,,
yww,VDACtest,164,r,true,506.2000000476837,1,g,h,4,,,
yww,VDACtest,165,r,true,587.2000000476837,1,g,h,3,,,
yww,VDACtest,166,r,false,722.5999999642372,2,r,h,1,,,
yww,VDACtest,167,r,false,411.80000001192093,2,r,v,2,,,
yww,VDACtest,168,r,true,649.2000000476837,1,g,v,1,,,
yww,VDACtest,169,r,true,459.5,1,g,h,1,,,
yww,VDACtest,170,r,true,451.69999998807907,1,g,h,0,,,
yww,VDACtest,171,r,true,611.5999999642372,2,r,h,1,,,
yww,VDACtest,172,r,false,507.7999999523163,1,g,h,4,,,
yww,VDACtest,173,r,true,554.5,2,r,v,0,,,
yww,VDACtest,174,r,true,562.9000000357628,1,g,h,1,,,
yww,VDACtest,175,r,false,586.8999999761581,2,r,v,0,,,
yww,VDACtest,176,r,true,521.8000000119209,1,g,h,0,,,
yww,VDACtest,177,r,true,562.6999999880791,2,r,h,2,,,
yww,VDACtest,178,r,true,564.3999999761581,2,r,v,1,,,
yww,VDACtest,179,r,true,833.6999999880791,1,g,h,3,,,
yww,VDACtest,180,r,true,508.10000002384186,1,g,v,4,,,
yww,VDACtest,181,r,true,505.69999998807907,2,r,h,2,,,
yww,VDACtest,182,r,true,774,1,g,h,3,,,
yww,VDACtest,183,r,null,null,1,g,h,2,,,
yww,VDACtest,184,r,true,539.1000000238419,2,r,v,4,,,
yww,VDACtest,185,r,true,448.80000001192093,1,g,v,0,,,
yww,VDACtest,186,r,true,539.6999999880791,2,r,h,4,,,
yww,VDACtest,187,r,false,572.6999999880791,2,r,v,1,,,
yww,VDACtest,188,r,true,426.5,2,r,v,0,,,
yww,VDACtest,189,r,true,532.0999999642372,1,g,v,5,,,
yww,VDACtest,190,r,true,554.6000000238419,1,g,h,2,,,
yww,VDACtest,191,r,true,506.80000001192093,2,r,v,0,,,
yww,VDACtest,192,r,false,489.19999998807907,1,g,h,5,,,
yww,VDACtest,193,r,true,500.69999998807907,1,g,h,3,,,
yww,VDACtest,194,r,true,624.8000000119209,2,r,h,2,,,
yww,VDACtest,195,r,false,515,1,g,v,3,,,
yww,VDACtest,196,r,true,555.9000000357628,2,r,h,2,,,
yww,VDACtest,197,r,true,585.9000000357628,1,g,v,1,,,
yww,VDACtest,198,r,false,547.8000000119209,2,r,v,2,,,
yww,VDACtest,199,r,true,393.2000000476837,2,r,v,5,,,
yww,VDACtest,200,r,true,436.19999998807907,1,g,v,0,,,
yww,RSVPtrain,0,r,null,null,1,g,,2,2,2,
yww,RSVPtrain,0,r,true,420.30000001192093,2,r,,1,1,2,
yww,RSVPtrain,0,r,true,813,0,b,,3,3,0,
yww,RSVPtrain,0,r,false,820,0,b,,0,3,0,
yww,RSVPtrain,0,r,true,644,1,g,,3,0,1,
yww,RSVPtrain,0,r,false,693.7000000476837,0,b,,1,3,0,
yww,RSVPtrain,0,r,true,701.8999999761581,2,r,,0,0,2,
yww,RSVPtrain,0,r,true,699.5999999642372,2,r,,3,2,1,
yww,RSVPtrain,0,r,true,741.3999999761581,1,g,,3,1,1,
yww,RSVPtrain,0,r,true,780.8999999761581,1,g,,1,0,1,
yww,RSVPtest,1,r,false,656,2,r,,0,1,1,
yww,RSVPtest,2,r,true,611.6999999880791,1,g,,0,2,1,
yww,RSVPtest,3,r,true,649,2,r,,3,1,1,
yww,RSVPtest,4,r,true,1212.8999999761581,1,g,,0,2,1,
yww,RSVPtest,5,r,true,643.3000000119209,1,g,,2,2,2,
yww,RSVPtest,6,r,true,829.5,1,g,,3,1,1,
yww,RSVPtest,7,r,false,667.4000000357628,2,r,,2,1,1,
yww,RSVPtest,8,r,true,781.1000000238419,1,g,,2,1,1,
yww,RSVPtest,9,r,true,678.6999999880791,0,b,,0,3,0,
yww,RSVPtest,10,r,null,null,0,b,,0,3,0,
yww,RSVPtest,11,r,true,637.8999999761581,2,r,,3,1,1,
yww,RSVPtest,12,r,true,666.1999999880791,2,r,,1,2,1,
yww,RSVPtest,13,r,true,774,0,b,,1,3,0,
yww,RSVPtest,14,r,true,813.8000000119209,1,g,,3,1,1,
yww,RSVPtest,15,r,true,940.5,0,b,,0,3,0,
yww,RSVPtest,16,r,true,691.1000000238419,0,b,,1,3,0,
yww,RSVPtest,17,r,true,621.3999999761581,0,b,,0,3,0,
yww,RSVPtest,18,r,true,419.89999997615814,0,b,,1,3,0,
yww,RSVPtest,19,r,true,741.3000000119209,0,b,,1,3,0,
yww,RSVPtest,20,r,true,661.4000000357628,1,g,,2,2,2,
yww,RSVPtest,21,r,true,501.19999998807907,1,g,,0,2,1,
yww,RSVPtest,22,r,true,538.1000000238419,1,g,,1,2,1,
yww,RSVPtest,23,r,true,988.6999999880791,2,r,,0,1,1,
yww,RSVPtest,24,r,true,371.30000001192093,2,r,,2,0,1,
yww,RSVPtest,25,r,true,548.8000000119209,1,g,,1,2,1,
yww,RSVPtest,26,r,true,517.6999999880791,0,b,,1,3,0,
yww,RSVPtest,27,r,true,542.9000000357628,2,r,,0,0,2,
yww,RSVPtest,28,r,true,1965.9000000357628,2,r,,3,2,1,
yww,RSVPtest,29,r,true,573.8000000119209,0,b,,2,3,0,
yww,RSVPtest,30,r,true,733.3000000119209,1,g,,1,1,2,
yww,RSVPtest,31,r,true,686.6999999880791,0,b,,3,3,0,
yww,RSVPtest,32,r,true,560.0999999642372,2,r,,1,1,2,
yww,RSVPtest,33,r,true,878.0999999642372,2,r,,1,0,1,
yww,RSVPtest,34,r,true,925.3000000119209,2,r,,3,0,1,
yww,RSVPtest,35,r,true,798.8000000119209,1,g,,0,1,1,
yww,RSVPtest,36,r,true,482.4000000357628,1,g,,2,1,1,
yww,RSVPtest,37,r,true,687.0999999642372,2,r,,3,1,1,
yww,RSVPtest,38,r,true,716.1000000238419,2,r,,3,2,1,
yww,RSVPtest,39,r,true,645.1000000238419,0,b,,1,3,0,
yww,RSVPtest,40,r,true,650.2000000476837,1,g,,1,2,1,
yww,RSVPtest,41,r,false,877.5,1,g,,2,0,1,
yww,RSVPtest,42,r,true,699.2000000476837,0,b,,2,3,0,
yww,RSVPtest,43,r,true,484,1,g,,1,1,2,
yww,RSVPtest,44,r,true,741.5,0,b,,3,3,0,
yww,RSVPtest,45,r,null,null,0,b,,3,3,0,
yww,RSVPtest,46,r,true,558,1,g,,2,0,1,
yww,RSVPtest,47,r,true,586.5,1,g,,3,1,1,
yww,RSVPtest,48,r,true,565.6999999880791,1,g,,1,2,1,
yww,RSVPtest,49,r,null,null,1,g,,3,0,1,
yww,RSVPtest,50,r,true,627.7999999523163,2,r,,3,0,1,
yww,RSVPtest,51,r,true,624.6999999880791,0,b,,1,3,0,
yww,RSVPtest,52,r,true,636,1,g,,1,1,2,
yww,RSVPtest,53,r,true,1269.8999999761581,2,r,,3,0,1,
yww,RSVPtest,54,r,true,613.3000000119209,2,r,,2,0,1,
yww,RSVPtest,55,r,true,1554.699999988079,1,g,,0,0,2,
yww,RSVPtest,56,r,true,613.8999999761581,1,g,,0,1,1,
yww,RSVPtest,57,r,true,908.9000000357628,1,g,,3,2,1,
yww,RSVPtest,58,r,false,547.8000000119209,2,r,,3,0,1,
yww,RSVPtest,59,r,true,684,0,b,,0,3,0,
yww,RSVPtest,60,r,true,701.0999999642372,0,b,,3,3,0,
brk,brk,brk,brk,brk,brk,brk,brk,brk,brk,brk,brk,
yww,RSVPtest,61,r,false,532.8000000119209,2,r,,2,0,1,
yww,RSVPtest,62,r,false,640.1000000238419,0,b,,0,3,0,
yww,RSVPtest,63,r,true,658,2,r,,0,0,2,
yww,RSVPtest,64,r,true,723.7999999523163,1,g,,1,0,1,
yww,RSVPtest,65,r,null,null,1,g,,3,0,1,
yww,RSVPtest,66,r,true,526.8999999761581,2,r,,1,2,1,
yww,RSVPtest,67,r,true,514.5,1,g,,1,1,2,
yww,RSVPtest,68,r,true,351.19999998807907,1,g,,0,1,1,
yww,RSVPtest,69,r,false,340.89999997615814,2,r,,3,0,1,
yww,RSVPtest,70,r,false,650.1000000238419,2,r,,3,1,1,
yww,RSVPtest,71,r,true,1556.0999999642372,2,r,,3,0,1,
yww,RSVPtest,72,r,false,502,1,g,,3,1,1,
yww,RSVPtest,73,r,false,908,0,b,,3,3,0,
yww,RSVPtest,74,r,true,823.5,2,r,,3,1,1,
yww,RSVPtest,75,r,true,543.7000000476837,2,r,,3,2,1,
yww,RSVPtest,76,r,true,682.1999999880791,0,b,,3,3,0,
yww,RSVPtest,77,r,true,785.1000000238419,1,g,,3,2,1,
yww,RSVPtest,78,r,true,656.1999999880791,0,b,,2,3,0,
yww,RSVPtest,79,r,true,518,0,b,,2,3,0,
yww,RSVPtest,80,r,true,589.7000000476837,1,g,,2,2,2,
yww,RSVPtest,81,r,true,720,2,r,,1,1,2,
yww,RSVPtest,82,r,true,350.80000001192093,1,g,,1,0,1,
yww,RSVPtest,83,r,true,891.3999999761581,0,b,,3,3,0,
yww,RSVPtest,84,r,true,484.7999999523163,1,g,,2,1,1,
yww,RSVPtest,85,r,true,910.6999999880791,0,b,,3,3,0,
yww,RSVPtest,86,r,true,680.1999999880791,2,r,,0,0,2,
yww,RSVPtest,87,r,true,583.3000000119209,1,g,,0,0,2,
yww,RSVPtest,88,r,true,549.0999999642372,2,r,,3,2,1,
yww,RSVPtest,89,r,true,670.6999999880791,0,b,,0,3,0,
yww,RSVPtest,90,r,true,752.1999999880791,1,g,,0,0,2,
yww,RSVPtest,91,r,true,564.3999999761581,2,r,,0,1,1,
yww,RSVPtest,92,r,true,307.69999998807907,2,r,,0,0,2,
yww,RSVPtest,93,r,true,844.6999999880791,1,g,,3,2,1,
yww,RSVPtest,94,r,true,684.0999999642372,1,g,,3,0,1,
yww,RSVPtest,95,r,true,445.19999998807907,2,r,,3,1,1,
yww,RSVPtest,96,r,false,516.6999999880791,1,g,,3,2,1,
yww,RSVPtest,97,r,true,555.9000000357628,2,r,,3,2,1,
yww,RSVPtest,98,r,true,595.3999999761581,2,r,,3,0,1,
yww,RSVPtest,99,r,true,629.6000000238419,0,b,,3,3,0,
yww,RSVPtest,100,r,false,722.3999999761581,2,r,,3,2,1,
yww,RSVPtest,101,r,null,null,2,r,,0,2,1,
yww,RSVPtest,102,r,true,762.6999999880791,1,g,,3,0,1,
yww,RSVPtest,103,r,false,1092.5,1,g,,1,1,2,
yww,RSVPtest,104,r,true,605.6999999880791,2,r,,3,1,1,
yww,RSVPtest,105,r,true,787,0,b,,3,3,0,
yww,RSVPtest,106,r,true,708.1999999880791,0,b,,0,3,0,
yww,RSVPtest,107,r,false,540.5,1,g,,3,2,1,
yww,RSVPtest,108,r,false,900.8999999761581,2,r,,2,0,1,
yww,RSVPtest,109,r,true,2093.300000011921,2,r,,0,2,1,
yww,RSVPtest,110,r,false,1474.5999999642372,0,b,,2,3,0,
yww,RSVPtest,111,r,true,1205.300000011921,2,r,,2,2,2,
yww,RSVPtest,112,r,true,714.5,0,b,,3,3,0,
yww,RSVPtest,113,r,false,747,1,g,,0,0,2,
yww,RSVPtest,114,r,true,845.8000000119209,0,b,,3,3,0,
yww,RSVPtest,115,r,null,null,2,r,,3,2,1,
yww,RSVPtest,116,r,true,688.6999999880791,2,r,,2,2,2,
yww,RSVPtest,117,r,true,508.5,2,r,,3,0,1,
yww,RSVPtest,118,r,false,632.1999999880791,1,g,,2,0,1,
yww,RSVPtest,119,r,true,562.6000000238419,1,g,,1,0,1,
yww,RSVPtest,120,r,true,778.7999999523163,1,g,,2,1,1,
brk,brk,brk,brk,brk,brk,brk,brk,brk,brk,brk,brk,
yww,RSVPtest,121,r,true,523.0999999642372,2,r,,0,1,1,
yww,RSVPtest,122,r,true,548.1000000238419,1,g,,3,2,1,
yww,RSVPtest,123,r,true,770.6000000238419,2,r,,1,1,2,
yww,RSVPtest,124,r,true,754.5,0,b,,3,3,0,
yww,RSVPtest,125,r,false,1388.300000011921,0,b,,0,3,0,
yww,RSVPtest,126,r,true,692.3999999761581,2,r,,2,1,1,
yww,RSVPtest,127,r,true,411.4000000357628,0,b,,2,3,0,
yww,RSVPtest,128,r,true,857.6999999880791,2,r,,0,0,2,
yww,RSVPtest,129,r,true,572,2,r,,1,2,1,
yww,RSVPtest,130,r,true,470.80000001192093,1,g,,0,2,1,
yww,RSVPtest,131,r,true,656.6000000238419,0,b,,3,3,0,
yww,RSVPtest,132,r,true,787.4000000357628,0,b,,3,3,0,
yww,RSVPtest,133,r,true,497.89999997615814,2,r,,3,0,1,
yww,RSVPtest,134,r,null,null,1,g,,2,2,2,
yww,RSVPtest,135,r,null,null,2,r,,2,0,1,
yww,RSVPtest,136,r,null,null,2,r,,3,1,1,
yww,RSVPtest,137,r,true,600.6000000238419,2,r,,1,1,2,
yww,RSVPtest,138,r,true,441,1,g,,3,0,1,
yww,RSVPtest,139,r,true,547.8000000119209,1,g,,3,0,1,
yww,RSVPtest,140,r,true,726.1000000238419,1,g,,3,2,1,
yww,RSVPtest,141,r,true,548.1999999880791,0,b,,1,3,0,
yww,RSVPtest,142,r,false,851.5,2,r,,1,0,1,
yww,RSVPtest,143,r,null,null,2,r,,3,1,1,
yww,RSVPtest,144,r,true,720.3999999761581,1,g,,3,1,1,
yww,RSVPtest,145,r,false,1091.300000011921,0,b,,0,3,0,
yww,RSVPtest,146,r,true,515.3000000119209,2,r,,1,0,1,
yww,RSVPtest,147,r,true,1862.800000011921,1,g,,3,0,1,
yww,RSVPtest,148,r,true,761.1000000238419,2,r,,1,1,2,
yww,RSVPtest,149,r,true,551.3000000119209,0,b,,3,3,0,
yww,RSVPtest,150,r,false,682.4000000357628,2,r,,3,2,1,
yww,RSVPtest,151,r,null,null,1,g,,3,1,1,
yww,RSVPtest,152,r,true,707.3000000119209,1,g,,3,2,1,
yww,RSVPtest,153,r,true,577.9000000357628,0,b,,3,3,0,
yww,RSVPtest,154,r,false,562.6000000238419,2,r,,0,2,1,
yww,RSVPtest,155,r,true,579.3999999761581,2,r,,1,0,1,
yww,RSVPtest,156,r,true,683.7999999523163,2,r,,0,2,1,
yww,RSVPtest,157,r,true,737.1999999880791,1,g,,2,2,2,
yww,RSVPtest,158,r,false,650.3999999761581,0,b,,3,3,0,
yww,RSVPtest,159,r,false,505.89999997615814,1,g,,0,0,2,
yww,RSVPtest,160,r,true,386.69999998807907,0,b,,2,3,0,
yww,RSVPtest,161,r,null,null,1,g,,3,2,1,
yww,RSVPtest,162,r,true,456.5,0,b,,2,3,0,
yww,RSVPtest,163,r,false,586.8000000119209,1,g,,3,1,1,
yww,RSVPtest,164,r,true,571.1999999880791,1,g,,0,2,1,
yww,RSVPtest,165,r,false,499.19999998807907,0,b,,3,3,0,
yww,RSVPtest,166,r,true,676,1,g,,3,0,1,
yww,RSVPtest,167,r,null,null,1,g,,3,0,1,
yww,RSVPtest,168,r,null,null,2,r,,2,1,1,
yww,RSVPtest,169,r,true,723.6999999880791,2,r,,2,2,2,
yww,RSVPtest,170,r,true,626.8999999761581,1,g,,2,1,1,
yww,RSVPtest,171,r,true,394.5999999642372,0,b,,2,3,0,
yww,RSVPtest,172,r,true,644.7000000476837,1,g,,3,2,1,
yww,RSVPtest,173,r,null,null,2,r,,2,2,2,
yww,RSVPtest,174,r,true,605.8000000119209,1,g,,1,1,2,
yww,RSVPtest,175,r,true,463.60000002384186,0,b,,3,3,0,
yww,RSVPtest,176,r,false,563.7999999523163,1,g,,2,2,2,
yww,RSVPtest,177,r,false,539.7000000476837,2,r,,3,2,1,
yww,RSVPtest,178,r,true,1194.199999988079,2,r,,2,2,2,
yww,RSVPtest,179,r,null,null,1,g,,3,0,1,
yww,RSVPtest,180,r,false,611,2,r,,0,0,2,
brk,brk,brk,brk,brk,brk,brk,brk,brk,brk,brk,brk,
yww,RSVPtest,181,r,true,634,1,g,,1,0,1,
yww,RSVPtest,182,r,false,654.7000000476837,1,g,,3,1,1,
yww,RSVPtest,183,r,true,698.6999999880791,1,g,,3,1,1,
yww,RSVPtest,184,r,true,792.4000000357628,1,g,,3,1,1,
yww,RSVPtest,185,r,true,697.1999999880791,2,r,,3,1,1,
yww,RSVPtest,186,r,true,930.3999999761581,2,r,,3,0,1,
yww,RSVPtest,187,r,true,472.60000002384186,2,r,,0,1,1,
yww,RSVPtest,188,r,true,705.3000000119209,1,g,,3,1,1,
yww,RSVPtest,189,r,false,635.6000000238419,1,g,,1,2,1,
yww,RSVPtest,190,r,true,638.5,0,b,,2,3,0,
yww,RSVPtest,191,r,true,666.3000000119209,2,r,,0,2,1,
yww,RSVPtest,192,r,true,866.1000000238419,0,b,,2,3,0,
yww,RSVPtest,193,r,true,1130.3999999761581,0,b,,1,3,0,
yww,RSVPtest,194,r,true,520.8999999761581,2,r,,0,2,1,
yww,RSVPtest,195,r,false,427,0,b,,0,3,0,
yww,RSVPtest,196,r,false,1043.800000011921,1,g,,3,2,1,
yww,RSVPtest,197,r,true,586.8999999761581,1,g,,3,0,1,
yww,RSVPtest,198,r,true,746.5,1,g,,0,1,1,
yww,RSVPtest,199,r,true,484.2999999523163,2,r,,0,1,1,
yww,RSVPtest,200,r,false,755,2,r,,3,2,1,
yww,RSVPtest,201,r,true,575.3000000119209,1,g,,3,1,1,
yww,RSVPtest,202,r,null,null,2,r,,1,0,1,
yww,RSVPtest,203,r,false,656.5,1,g,,0,1,1,
yww,RSVPtest,204,r,true,561.5999999642372,1,g,,0,2,1,
yww,RSVPtest,205,r,false,674.7000000476837,1,g,,2,0,1,
yww,RSVPtest,206,r,true,585,1,g,,0,0,2,
yww,RSVPtest,207,r,false,483,1,g,,3,2,1,
yww,RSVPtest,208,r,true,1818.699999988079,0,b,,1,3,0,
yww,RSVPtest,209,r,true,1587.699999988079,2,r,,3,1,1,
yww,RSVPtest,210,r,false,496.30000001192093,2,r,,2,1,1,
yww,RSVPtest,211,r,true,491.30000001192093,1,g,,1,0,1,
yww,RSVPtest,212,r,null,null,0,b,,2,3,0,
yww,RSVPtest,213,r,false,455.30000001192093,2,r,,3,2,1,
yww,RSVPtest,214,r,true,546.5,2,r,,2,1,1,
yww,RSVPtest,215,r,false,427.10000002384186,0,b,,3,3,0,
yww,RSVPtest,216,r,null,null,0,b,,1,3,0,
yww,RSVPtest,217,r,true,721.8000000119209,0,b,,1,3,0,
yww,RSVPtest,218,r,true,1944.3999999761581,0,b,,3,3,0,
yww,RSVPtest,219,r,true,320,2,r,,2,2,2,
yww,RSVPtest,220,r,true,616.0999999642372,1,g,,2,0,1,
yww,RSVPtest,221,r,true,658.6999999880791,2,r,,1,2,1,
yww,RSVPtest,222,r,false,658.1000000238419,2,r,,1,1,2,
yww,RSVPtest,223,r,true,433,2,r,,1,2,1,
yww,RSVPtest,224,r,null,null,1,g,,3,0,1,
yww,RSVPtest,225,r,false,272.9000000357628,2,r,,3,2,1,
yww,RSVPtest,226,r,false,439.89999997615814,2,r,,1,0,1,
yww,RSVPtest,227,r,true,617.8000000119209,1,g,,2,1,1,
yww,RSVPtest,228,r,false,2144.699999988079,1,g,,0,1,1,
yww,RSVPtest,229,r,true,520.6999999880791,2,r,,2,1,1,
yww,RSVPtest,230,r,true,528.0999999642372,1,g,,2,0,1,
yww,RSVPtest,231,r,false,233.89999997615814,2,r,,3,0,1,
yww,RSVPtest,232,r,false,786.1999999880791,1,g,,1,2,1,
yww,RSVPtest,233,r,true,289.89999997615814,2,r,,1,2,1,
yww,RSVPtest,234,r,null,null,2,r,,2,0,1,
yww,RSVPtest,235,r,true,933.4000000357628,2,r,,3,1,1,
yww,RSVPtest,236,r,true,904.6999999880791,0,b,,3,3,0,
yww,RSVPtest,237,r,null,null,0,b,,3,3,0,
yww,RSVPtest,238,r,true,716.4000000357628,2,r,,3,0,1,
yww,RSVPtest,239,r,null,null,1,g,,1,0,1,
yww,RSVPtest,240,r,true,713.8999999761581,0,b,,0,3,0,
