subID,trialType,trialNum,cntBalance,correct,rt,rwdType,tgtCol,tgtDir,tgtPos,colPos,colMatch,
9wb,VDACtrain,0,r,null,null,2,r,h,2,,,
9wb,VDACtrain,0,r,false,567.8999996185303,2,r,v,3,,,
9wb,VDACtrain,0,r,true,646.3999996185303,1,g,h,3,,,
9wb,VDACtrain,0,r,true,727.1999988555908,1,g,v,2,,,
9wb,VDACtrain,0,r,false,709.7999992370605,1,g,h,5,,,
9wb,VDACtrain,0,r,true,678,2,r,v,4,,,
9wb,VDACtrain,0,r,true,566.3999996185303,1,g,v,0,,,
9wb,VDACtrain,0,r,true,566.7999992370605,2,r,h,0,,,
9wb,VDACtrain,0,r,true,598.5,1,g,v,5,,,
9wb,VDACtrain,0,r,true,903.2999992370605,2,r,h,1,,,
9wb,VDACtest,1,r,true,647.8999996185303,2,r,v,4,,,
9wb,VDACtest,2,r,true,447.20000076293945,1,g,h,4,,,
9wb,VDACtest,3,r,true,518.5999984741211,2,r,h,3,,,
9wb,VDACtest,4,r,true,463.6000003814697,1,g,v,3,,,
9wb,VDACtest,5,r,false,423,2,r,v,2,,,
9wb,VDACtest,6,r,false,566.1999988555908,1,g,v,1,,,
9wb,VDACtest,7,r,true,589.7000007629395,1,g,v,2,,,
9wb,VDACtest,8,r,true,542.8000011444092,2,r,h,2,,,
9wb,VDACtest,9,r,true,388.79999923706055,1,g,v,5,,,
9wb,VDACtest,10,r,false,701.9000015258789,2,r,v,1,,,
9wb,VDACtest,11,r,true,496.6000003814697,2,r,v,3,,,
9wb,VDACtest,12,r,true,454.29999923706055,2,r,h,2,,,
9wb,VDACtest,13,r,true,445.3999996185303,1,g,h,1,,,
9wb,VDACtest,14,r,true,383.6000003814697,1,g,v,3,,,
9wb,VDACtest,15,r,true,497.5,2,r,v,1,,,
9wb,VDACtest,16,r,true,667.1000003814697,1,g,h,3,,,
9wb,VDACtest,17,r,true,378.5,1,g,h,3,,,
9wb,VDACtest,18,r,true,425.20000076293945,1,g,v,4,,,
9wb,VDACtest,19,r,false,288.4000015258789,2,r,v,4,,,
9wb,VDACtest,20,r,false,399.6000003814697,2,r,h,5,,,
9wb,VDACtest,21,r,true,693.8000011444092,2,r,v,1,,,
9wb,VDACtest,22,r,true,503,1,g,v,1,,,
9wb,VDACtest,23,r,true,488.3999996185303,2,r,h,2,,,
9wb,VDACtest,24,r,false,535.5,1,g,h,4,,,
9wb,VDACtest,25,r,true,406.1000003814697,1,g,h,4,,,
9wb,VDACtest,26,r,true,558.5999984741211,2,r,v,3,,,
9wb,VDACtest,27,r,true,558.2000007629395,1,g,v,0,,,
9wb,VDACtest,28,r,true,519.7000007629395,2,r,v,4,,,
9wb,VDACtest,29,r,false,638.2999992370605,2,r,v,0,,,
9wb,VDACtest,30,r,true,500.79999923706055,2,r,h,4,,,
9wb,VDACtest,31,r,false,407.20000076293945,1,g,h,1,,,
9wb,VDACtest,32,r,true,482.29999923706055,2,r,h,1,,,
9wb,VDACtest,33,r,true,549.6000003814697,1,g,h,2,,,
9wb,VDACtest,34,r,true,470.70000076293945,1,g,h,3,,,
9wb,VDACtest,35,r,true,439.4000015258789,1,g,h,5,,,
9wb,VDACtest,36,r,true,381.3999996185303,1,g,v,2,,,
9wb,VDACtest,37,r,true,560.2999992370605,1,g,v,1,,,
9wb,VDACtest,38,r,true,542.3999996185303,1,g,v,2,,,
9wb,VDACtest,39,r,true,503.3999996185303,2,r,v,4,,,
9wb,VDACtest,40,r,false,461.1000003814697,1,g,v,2,,,
9wb,VDACtest,41,r,false,533.8000011444092,1,g,h,3,,,
9wb,VDACtest,42,r,true,469,2,r,h,5,,,
9wb,VDACtest,43,r,true,493.5999984741211,2,r,h,3,,,
9wb,VDACtest,44,r,true,543.3999996185303,2,r,h,0,,,
9wb,VDACtest,45,r,true,508.6999988555908,1,g,h,0,,,
9wb,VDACtest,46,r,null,null,2,r,h,1,,,
9wb,VDACtest,47,r,true,587.8999996185303,2,r,v,2,,,
9wb,VDACtest,48,r,true,556.9000015258789,1,g,h,2,,,
9wb,VDACtest,49,r,true,655.2999992370605,1,g,v,1,,,
9wb,VDACtest,50,r,true,502.3999996185303,2,r,h,1,,,
brk,brk,brk,brk,brk,brk,brk,brk,brk,brk,brk,brk,
9wb,VDACtest,51,r,false,648.0999984741211,2,r,v,2,,,
9wb,VDACtest,52,r,true,507.8999996185303,2,r,h,3,,,
9wb,VDACtest,53,r,true,486.6999988555908,2,r,h,4,,,
9wb,VDACtest,54,r,true,414.9000015258789,1,g,v,0,,,
9wb,VDACtest,55,r,false,470.5,1,g,v,1,,,
9wb,VDACtest,56,r,true,526.5,2,r,h,2,,,
9wb,VDACtest,57,r,true,469.6000003814697,1,g,h,2,,,
9wb,VDACtest,58,r,true,750.7999992370605,1,g,v,1,,,
9wb,VDACtest,59,r,true,510.3999996185303,2,r,h,0,,,
9wb,VDACtest,60,r,true,524.7000007629395,2,r,h,0,,,
9wb,VDACtest,61,r,true,799.2000007629395,2,r,v,4,,,
9wb,VDACtest,62,r,false,605.7999992370605,2,r,v,2,,,
9wb,VDACtest,63,r,true,447.70000076293945,1,g,h,1,,,
9wb,VDACtest,64,r,true,38.19999885559082,2,r,h,4,,,
9wb,VDACtest,65,r,false,221.80000114440918,1,g,v,5,,,
9wb,VDACtest,66,r,true,718.8000011444092,2,r,v,2,,,
9wb,VDACtest,67,r,true,501.20000076293945,1,g,v,5,,,
9wb,VDACtest,68,r,false,502.1000003814697,1,g,h,4,,,
9wb,VDACtest,69,r,false,503.5,2,r,h,0,,,
9wb,VDACtest,70,r,true,542.2000007629395,1,g,v,4,,,
9wb,VDACtest,71,r,true,527.1000003814697,1,g,h,5,,,
9wb,VDACtest,72,r,true,947.7999992370605,1,g,v,4,,,
9wb,VDACtest,73,r,true,486.1000003814697,2,r,h,5,,,
9wb,VDACtest,74,r,true,540.7999992370605,1,g,h,1,,,
9wb,VDACtest,75,r,false,541.0999984741211,1,g,v,1,,,
9wb,VDACtest,76,r,true,622.3000011444092,1,g,h,0,,,
9wb,VDACtest,77,r,true,518,1,g,h,5,,,
9wb,VDACtest,78,r,true,669.1000003814697,1,g,h,2,,,
9wb,VDACtest,79,r,true,654.7999992370605,2,r,h,3,,,
9wb,VDACtest,80,r,true,544.5,2,r,h,0,,,
9wb,VDACtest,81,r,true,501.4000015258789,2,r,v,3,,,
9wb,VDACtest,82,r,false,454.6999988555908,1,g,v,3,,,
9wb,VDACtest,83,r,true,575.7999992370605,1,g,h,2,,,
9wb,VDACtest,84,r,true,620.5,2,r,v,1,,,
9wb,VDACtest,85,r,false,847.5,2,r,h,1,,,
9wb,VDACtest,86,r,true,607,2,r,h,5,,,
9wb,VDACtest,87,r,false,549.6999988555908,1,g,v,0,,,
9wb,VDACtest,88,r,true,572.2999992370605,1,g,h,3,,,
9wb,VDACtest,89,r,true,630.2999992370605,1,g,h,4,,,
9wb,VDACtest,90,r,true,904.1000003814697,2,r,h,4,,,
9wb,VDACtest,91,r,true,527.1999988555908,1,g,h,1,,,
9wb,VDACtest,92,r,true,646.5,2,r,v,0,,,
9wb,VDACtest,93,r,true,614.1999988555908,1,g,h,0,,,
9wb,VDACtest,94,r,false,413.6000003814697,1,g,v,2,,,
9wb,VDACtest,95,r,true,870.7000007629395,1,g,v,0,,,
9wb,VDACtest,96,r,true,421.20000076293945,1,g,v,4,,,
9wb,VDACtest,97,r,true,462.29999923706055,2,r,v,4,,,
9wb,VDACtest,98,r,true,447,1,g,h,0,,,
9wb,VDACtest,99,r,true,502.6000003814697,2,r,h,3,,,
9wb,VDACtest,100,r,false,557.7000007629395,1,g,v,2,,,
brk,brk,brk,brk,brk,brk,brk,brk,brk,brk,brk,brk,
9wb,VDACtest,101,r,false,662.2000007629395,2,r,v,1,,,
9wb,VDACtest,102,r,true,372.8999996185303,1,g,h,3,,,
9wb,VDACtest,103,r,true,327.6000003814697,1,g,v,3,,,
9wb,VDACtest,104,r,true,397.5,2,r,v,1,,,
9wb,VDACtest,105,r,true,239,1,g,h,2,,,
9wb,VDACtest,106,r,false,405.79999923706055,2,r,v,3,,,
9wb,VDACtest,107,r,true,550.6999988555908,1,g,v,2,,,
9wb,VDACtest,108,r,true,501.8999996185303,1,g,v,5,,,
9wb,VDACtest,109,r,false,535.0999984741211,1,g,h,0,,,
9wb,VDACtest,110,r,true,679.8999996185303,1,g,v,0,,,
9wb,VDACtest,111,r,true,469.6000003814697,2,r,h,5,,,
9wb,VDACtest,112,r,true,359.5,1,g,v,0,,,
9wb,VDACtest,113,r,true,414.20000076293945,1,g,v,1,,,
9wb,VDACtest,114,r,true,381.8999996185303,2,r,v,5,,,
9wb,VDACtest,115,r,true,413.70000076293945,1,g,h,3,,,
9wb,VDACtest,116,r,true,853.6000003814697,1,g,v,2,,,
9wb,VDACtest,117,r,true,429,1,g,v,5,,,
9wb,VDACtest,118,r,true,406.3999996185303,1,g,h,1,,,
9wb,VDACtest,119,r,true,567,2,r,v,4,,,
9wb,VDACtest,120,r,true,563.8999996185303,2,r,v,0,,,
9wb,VDACtest,121,r,true,438.6999988555908,1,g,h,0,,,
9wb,VDACtest,122,r,true,531.5,1,g,h,5,,,
9wb,VDACtest,123,r,true,509.5,2,r,h,2,,,
9wb,VDACtest,124,r,true,693.7999992370605,2,r,h,4,,,
9wb,VDACtest,125,r,true,557.4000015258789,1,g,v,3,,,
9wb,VDACtest,126,r,true,534.6000003814697,1,g,v,5,,,
9wb,VDACtest,127,r,true,397.29999923706055,2,r,h,5,,,
9wb,VDACtest,128,r,true,583.1000003814697,2,r,h,2,,,
9wb,VDACtest,129,r,true,606.3999996185303,1,g,v,3,,,
9wb,VDACtest,130,r,true,470.6000003814697,1,g,v,4,,,
9wb,VDACtest,131,r,true,686.2000007629395,2,r,v,0,,,
9wb,VDACtest,132,r,true,432.0999984741211,1,g,v,5,,,
9wb,VDACtest,133,r,true,492.79999923706055,2,r,v,4,,,
9wb,VDACtest,134,r,true,590.7999992370605,1,g,h,1,,,
9wb,VDACtest,135,r,true,583.2000007629395,2,r,h,3,,,
9wb,VDACtest,136,r,true,589.8000011444092,2,r,v,2,,,
9wb,VDACtest,137,r,true,477.8000011444092,2,r,h,4,,,
9wb,VDACtest,138,r,true,515.7000007629395,1,g,v,4,,,
9wb,VDACtest,139,r,true,526.8999996185303,2,r,h,5,,,
9wb,VDACtest,140,r,true,463.29999923706055,2,r,h,5,,,
9wb,VDACtest,141,r,true,580.7000007629395,1,g,h,2,,,
9wb,VDACtest,142,r,true,534.7999992370605,2,r,v,2,,,
9wb,VDACtest,143,r,true,717.8999996185303,2,r,h,0,,,
9wb,VDACtest,144,r,true,518.3000011444092,2,r,v,5,,,
9wb,VDACtest,145,r,true,548,1,g,h,1,,,
9wb,VDACtest,146,r,true,511.1999988555908,2,r,h,4,,,
9wb,VDACtest,147,r,true,565.2999992370605,2,r,v,1,,,
9wb,VDACtest,148,r,true,517.2000007629395,1,g,v,3,,,
9wb,VDACtest,149,r,true,627.8999996185303,2,r,v,2,,,
9wb,VDACtest,150,r,true,582.7999992370605,2,r,v,3,,,
brk,brk,brk,brk,brk,brk,brk,brk,brk,brk,brk,brk,
9wb,VDACtest,151,r,true,483.6000003814697,2,r,v,5,,,
9wb,VDACtest,152,r,true,420.8000011444092,2,r,v,4,,,
9wb,VDACtest,153,r,true,462,1,g,v,4,,,
9wb,VDACtest,154,r,true,455.8999996185303,2,r,h,3,,,
9wb,VDACtest,155,r,true,431.1000003814697,1,g,v,4,,,
9wb,VDACtest,156,r,true,446.6000003814697,2,r,h,4,,,
9wb,VDACtest,157,r,true,532.8999996185303,1,g,h,5,,,
9wb,VDACtest,158,r,true,423,2,r,v,5,,,
9wb,VDACtest,159,r,true,677.2000007629395,1,g,v,0,,,
9wb,VDACtest,160,r,true,430.5999984741211,1,g,h,4,,,
9wb,VDACtest,161,r,true,484.8999996185303,2,r,v,3,,,
9wb,VDACtest,162,r,true,494.4000015258789,2,r,v,5,,,
9wb,VDACtest,163,r,true,678.1999988555908,2,r,h,1,,,
9wb,VDACtest,164,r,true,430.6000003814697,2,r,v,5,,,
9wb,VDACtest,165,r,true,485.6999988555908,2,r,v,3,,,
9wb,VDACtest,166,r,true,494.79999923706055,2,r,v,0,,,
9wb,VDACtest,167,r,true,494.6000003814697,2,r,h,2,,,
9wb,VDACtest,168,r,true,510.6000003814697,2,r,v,5,,,
9wb,VDACtest,169,r,true,460.8000011444092,2,r,h,3,,,
9wb,VDACtest,170,r,true,542.5,1,g,h,0,,,
9wb,VDACtest,171,r,true,591.7999992370605,2,r,h,4,,,
9wb,VDACtest,172,r,true,590.2000007629395,2,r,v,5,,,
9wb,VDACtest,173,r,true,510.1000003814697,2,r,v,0,,,
9wb,VDACtest,174,r,true,542.3999996185303,2,r,v,0,,,
9wb,VDACtest,175,r,true,502.0999984741211,1,g,v,4,,,
9wb,VDACtest,176,r,true,621.2999992370605,2,r,v,1,,,
9wb,VDACtest,177,r,true,488.1000003814697,1,g,h,5,,,
9wb,VDACtest,178,r,true,478.70000076293945,1,g,h,5,,,
9wb,VDACtest,179,r,true,981.5999984741211,2,r,h,1,,,
9wb,VDACtest,180,r,true,542.8999996185303,2,r,h,1,,,
9wb,VDACtest,181,r,true,541.8999996185303,1,g,h,4,,,
9wb,VDACtest,182,r,true,510.20000076293945,1,g,h,4,,,
9wb,VDACtest,183,r,true,557.7000007629395,2,r,v,3,,,
9wb,VDACtest,184,r,true,446.9000015258789,1,g,h,3,,,
9wb,VDACtest,185,r,true,550.6000003814697,1,g,v,0,,,
9wb,VDACtest,186,r,true,517.8000011444092,2,r,v,0,,,
9wb,VDACtest,187,r,true,590.6999988555908,2,r,v,1,,,
9wb,VDACtest,188,r,true,470,1,g,h,0,,,
9wb,VDACtest,189,r,true,518.7000007629395,1,g,v,5,,,
9wb,VDACtest,190,r,true,558.2999992370605,1,g,v,1,,,
9wb,VDACtest,191,r,true,806.7000007629395,2,r,h,0,,,
9wb,VDACtest,192,r,true,509.6000003814697,1,g,v,3,,,
9wb,VDACtest,193,r,true,485.9000015258789,1,g,h,4,,,
9wb,VDACtest,194,r,true,557.5,2,r,h,2,,,
9wb,VDACtest,195,r,true,542.1000003814697,2,r,h,1,,,
9wb,VDACtest,196,r,true,596.2000007629395,2,r,h,1,,,
9wb,VDACtest,197,r,true,565.6000003814697,1,g,h,1,,,
9wb,VDACtest,198,r,true,575.1000003814697,1,g,h,5,,,
9wb,VDACtest,199,r,true,542,2,r,h,0,,,
9wb,VDACtest,200,r,true,509.1999988555908,1,g,h,2,,,
9wb,RSVPtrain,0,r,false,1183.2000007629395,0,b,,3,3,0,
9wb,RSVPtrain,0,r,true,1639.1000003814697,1,g,,3,1,1,
9wb,RSVPtrain,0,r,false,1309.7999992370605,2,r,,3,2,1,
9wb,RSVPtrain,0,r,true,1280.6000003814697,0,b,,1,3,0,
9wb,RSVPtrain,0,r,true,1679.2999992370605,2,r,,0,0,2,
9wb,RSVPtrain,0,r,false,736.3999996185303,0,b,,0,3,0,
9wb,RSVPtrain,0,r,true,581.6000003814697,1,g,,1,0,1,
9wb,RSVPtrain,0,r,false,1545.6999988555908,2,r,,1,1,2,
9wb,RSVPtrain,0,r,true,847,1,g,,2,2,2,
9wb,RSVPtrain,0,r,false,1009.0999984741211,1,g,,3,0,1,
9wb,RSVPtest,1,r,false,1894.5,1,g,,2,2,2,
9wb,RSVPtest,2,r,false,518.3999996185303,2,r,,3,0,1,
9wb,RSVPtest,3,r,false,893.6000003814697,0,b,,3,3,0,
9wb,RSVPtest,4,r,true,2388.8999996185303,2,r,,3,2,1,
9wb,RSVPtest,5,r,true,888.6000003814697,1,g,,1,2,1,
9wb,RSVPtest,6,r,true,782.3999996185303,0,b,,0,3,0,
9wb,RSVPtest,7,r,false,431.6000003814697,0,b,,2,3,0,
9wb,RSVPtest,8,r,false,798.6000003814697,2,r,,3,2,1,
9wb,RSVPtest,9,r,false,1127,1,g,,1,2,1,
9wb,RSVPtest,10,r,false,1245.8999996185303,1,g,,3,1,1,
9wb,RSVPtest,11,r,true,1087.3999996185303,1,g,,0,2,1,
9wb,RSVPtest,12,r,true,1113.2999992370605,2,r,,0,2,1,
9wb,RSVPtest,13,r,true,1054.7000007629395,2,r,,2,0,1,
9wb,RSVPtest,14,r,false,1247.7999992370605,0,b,,1,3,0,
9wb,RSVPtest,15,r,false,990.5999984741211,2,r,,3,1,1,
9wb,RSVPtest,16,r,true,1165.8999996185303,0,b,,3,3,0,
9wb,RSVPtest,17,r,true,386,2,r,,2,1,1,
9wb,RSVPtest,18,r,false,421.3999996185303,1,g,,3,1,1,
9wb,RSVPtest,19,r,false,67,1,g,,0,2,1,
9wb,RSVPtest,20,r,false,48.599998474121094,1,g,,3,2,1,
9wb,RSVPtest,21,r,true,183.5,2,r,,0,0,2,
9wb,RSVPtest,22,r,false,153.69999885559082,2,r,,1,0,1,
9wb,RSVPtest,23,r,true,69.70000076293945,0,b,,1,3,0,
9wb,RSVPtest,24,r,false,73.0999984741211,0,b,,3,3,0,
9wb,RSVPtest,25,r,true,169.70000076293945,2,r,,0,2,1,
9wb,RSVPtest,26,r,true,296.5999984741211,1,g,,0,2,1,
9wb,RSVPtest,27,r,true,430.3000011444092,2,r,,2,1,1,
9wb,RSVPtest,28,r,false,285.5,1,g,,3,2,1,
9wb,RSVPtest,29,r,true,288.8999996185303,1,g,,0,1,1,
9wb,RSVPtest,30,r,true,407.5,2,r,,1,1,2,
9wb,RSVPtest,31,r,true,373.20000076293945,0,b,,0,3,0,
9wb,RSVPtest,32,r,true,231.5999984741211,2,r,,2,2,2,
9wb,RSVPtest,33,r,true,496,2,r,,0,1,1,
9wb,RSVPtest,34,r,false,529.6000003814697,0,b,,3,3,0,
9wb,RSVPtest,35,r,true,669.8000011444092,1,g,,2,0,1,
9wb,RSVPtest,36,r,true,757.1000003814697,0,b,,0,3,0,
9wb,RSVPtest,37,r,true,608.2999992370605,1,g,,3,0,1,
9wb,RSVPtest,38,r,null,null,0,b,,2,3,0,
9wb,RSVPtest,39,r,true,445.1000003814697,2,r,,1,2,1,
9wb,RSVPtest,40,r,false,367.3000011444092,0,b,,3,3,0,
9wb,RSVPtest,41,r,true,284.6999988555908,2,r,,1,0,1,
9wb,RSVPtest,42,r,true,270.3999996185303,1,g,,3,0,1,
9wb,RSVPtest,43,r,false,373.5,2,r,,3,2,1,
9wb,RSVPtest,44,r,true,12.899999618530273,0,b,,0,3,0,
9wb,RSVPtest,45,r,false,654.0999984741211,2,r,,3,2,1,
9wb,RSVPtest,46,r,false,687.8000011444092,2,r,,2,0,1,
9wb,RSVPtest,47,r,false,304.8999996185303,0,b,,0,3,0,
9wb,RSVPtest,48,r,false,22.5,2,r,,3,1,1,
9wb,RSVPtest,49,r,false,288.9000015258789,1,g,,3,0,1,
9wb,RSVPtest,50,r,true,5.80000114440918,0,b,,2,3,0,
9wb,RSVPtest,51,r,true,293.8999996185303,1,g,,0,1,1,
9wb,RSVPtest,52,r,true,507.6000003814697,0,b,,2,3,0,
9wb,RSVPtest,53,r,false,383.0999984741211,2,r,,3,0,1,
9wb,RSVPtest,54,r,true,261.79999923706055,2,r,,2,0,1,
9wb,RSVPtest,55,r,true,276.70000076293945,0,b,,1,3,0,
9wb,RSVPtest,56,r,true,13.100000381469727,2,r,,2,1,1,
9wb,RSVPtest,57,r,true,478.1999988555908,0,b,,2,3,0,
9wb,RSVPtest,58,r,false,247.5,0,b,,3,3,0,
9wb,RSVPtest,59,r,true,135.19999885559082,1,g,,3,2,1,
9wb,RSVPtest,60,r,true,143.20000076293945,2,r,,2,1,1,
brk,brk,brk,brk,brk,brk,brk,brk,brk,brk,brk,brk,
9wb,RSVPtest,61,r,true,543,2,r,,0,2,1,
9wb,RSVPtest,62,r,true,175.10000038146973,2,r,,3,2,1,
9wb,RSVPtest,63,r,false,639.3999996185303,1,g,,0,2,1,
9wb,RSVPtest,64,r,false,1614.7000007629395,0,b,,0,3,0,
9wb,RSVPtest,65,r,false,443.3000011444092,2,r,,1,2,1,
9wb,RSVPtest,66,r,true,1875.2999992370605,1,g,,3,1,1,
9wb,RSVPtest,67,r,false,109.10000038146973,2,r,,1,0,1,
9wb,RSVPtest,68,r,false,861.3000011444092,1,g,,2,2,2,
9wb,RSVPtest,69,r,false,1446.2000007629395,0,b,,1,3,0,
9wb,RSVPtest,70,r,false,21.69999885559082,2,r,,1,0,1,
9wb,RSVPtest,71,r,null,null,2,r,,1,1,2,
9wb,RSVPtest,72,r,false,104,1,g,,1,0,1,
9wb,RSVPtest,73,r,false,77.80000114440918,1,g,,1,2,1,
9wb,RSVPtest,74,r,true,174.9000015258789,1,g,,3,2,1,
9wb,RSVPtest,75,r,true,195.19999885559082,1,g,,1,0,1,
9wb,RSVPtest,76,r,true,107.30000114440918,2,r,,1,1,2,
9wb,RSVPtest,77,r,true,6.299999237060547,2,r,,2,1,1,
9wb,RSVPtest,78,r,true,477.5,0,b,,0,3,0,
9wb,RSVPtest,79,r,false,320.1000003814697,2,r,,1,2,1,
9wb,RSVPtest,80,r,null,null,0,b,,3,3,0,
9wb,RSVPtest,81,r,null,null,0,b,,3,3,0,
9wb,RSVPtest,82,r,null,null,1,g,,0,0,2,
9wb,RSVPtest,83,r,true,2188.6000003814697,2,r,,0,1,1,
9wb,RSVPtest,84,r,true,454.6000003814697,0,b,,3,3,0,
9wb,RSVPtest,85,r,null,null,2,r,,3,0,1,
9wb,RSVPtest,86,r,null,null,0,b,,3,3,0,
9wb,RSVPtest,87,r,true,775,2,r,,3,0,1,
9wb,RSVPtest,88,r,false,878.3000011444092,1,g,,0,1,1,
9wb,RSVPtest,89,r,true,284.4000015258789,1,g,,3,0,1,
9wb,RSVPtest,90,r,false,2484.3999996185303,2,r,,3,2,1,
9wb,RSVPtest,91,r,false,37.39999961853027,2,r,,0,0,2,
9wb,RSVPtest,92,r,false,390.4000015258789,0,b,,3,3,0,
9wb,RSVPtest,93,r,true,275.70000076293945,0,b,,3,3,0,
9wb,RSVPtest,94,r,false,277.20000076293945,0,b,,1,3,0,
9wb,RSVPtest,95,r,null,null,2,r,,0,2,1,
9wb,RSVPtest,96,r,null,null,2,r,,1,0,1,
9wb,RSVPtest,97,r,true,167.10000038146973,0,b,,0,3,0,
9wb,RSVPtest,98,r,true,1761.8999996185303,2,r,,3,0,1,
9wb,RSVPtest,99,r,false,20.400001525878906,1,g,,2,0,1,
9wb,RSVPtest,100,r,true,164.29999923706055,1,g,,0,0,2,
9wb,RSVPtest,101,r,true,349,1,g,,1,1,2,
9wb,RSVPtest,102,r,true,326,2,r,,0,1,1,
9wb,RSVPtest,103,r,false,67.29999923706055,1,g,,2,1,1,
9wb,RSVPtest,104,r,false,1373.7000007629395,1,g,,1,2,1,
9wb,RSVPtest,105,r,null,null,1,g,,3,1,1,
9wb,RSVPtest,106,r,false,167.39999961853027,1,g,,3,1,1,
9wb,RSVPtest,107,r,false,46,2,r,,0,0,2,
9wb,RSVPtest,108,r,false,566.7999992370605,1,g,,3,2,1,
9wb,RSVPtest,109,r,false,110.9000015258789,0,b,,1,3,0,
9wb,RSVPtest,110,r,true,1452.099998474121,2,r,,1,1,2,
9wb,RSVPtest,111,r,true,2136.6000003814697,2,r,,0,1,1,
9wb,RSVPtest,112,r,false,122.5,2,r,,0,2,1,
9wb,RSVPtest,113,r,true,388.5,2,r,,3,2,1,
9wb,RSVPtest,114,r,false,61.39999961853027,1,g,,1,1,2,
9wb,RSVPtest,115,r,true,2396.199998855591,0,b,,3,3,0,
9wb,RSVPtest,116,r,false,589.8999996185303,1,g,,0,2,1,
9wb,RSVPtest,117,r,false,1189.5,1,g,,0,1,1,
9wb,RSVPtest,118,r,false,1165,1,g,,2,1,1,
9wb,RSVPtest,119,r,true,571.2000007629395,1,g,,3,1,1,
9wb,RSVPtest,120,r,true,1972.7000007629395,1,g,,3,1,1,
brk,brk,brk,brk,brk,brk,brk,brk,brk,brk,brk,brk,
9wb,RSVPtest,121,r,true,993.6999988555908,1,g,,3,0,1,
9wb,RSVPtest,122,r,false,259.8999996185303,1,g,,3,2,1,
9wb,RSVPtest,123,r,true,461.8000011444092,2,r,,3,1,1,
9wb,RSVPtest,124,r,false,779.3000011444092,2,r,,0,0,2,
9wb,RSVPtest,125,r,null,null,0,b,,0,3,0,
9wb,RSVPtest,126,r,false,146.10000038146973,1,g,,1,0,1,
9wb,RSVPtest,127,r,true,99.60000038146973,1,g,,2,1,1,
9wb,RSVPtest,128,r,true,131.30000114440918,2,r,,2,0,1,
9wb,RSVPtest,129,r,null,null,1,g,,3,2,1,
9wb,RSVPtest,130,r,true,1393.6000003814697,2,r,,1,1,2,
9wb,RSVPtest,131,r,true,1220.099998474121,2,r,,0,1,1,
9wb,RSVPtest,132,r,false,1114.3999996185303,2,r,,3,1,1,
9wb,RSVPtest,133,r,false,490.79999923706055,1,g,,2,0,1,
9wb,RSVPtest,134,r,false,294.6000003814697,2,r,,1,2,1,
9wb,RSVPtest,135,r,null,null,2,r,,0,0,2,
9wb,RSVPtest,136,r,false,35.5,1,g,,0,0,2,
9wb,RSVPtest,137,r,true,363.3999996185303,0,b,,3,3,0,
9wb,RSVPtest,138,r,true,508.8999996185303,0,b,,3,3,0,
9wb,RSVPtest,139,r,false,579,2,r,,2,2,2,
9wb,RSVPtest,140,r,true,301.5999984741211,0,b,,3,3,0,
9wb,RSVPtest,141,r,false,294.8999996185303,1,g,,1,0,1,
9wb,RSVPtest,142,r,null,null,0,b,,1,3,0,
9wb,RSVPtest,143,r,null,null,0,b,,0,3,0,
9wb,RSVPtest,144,r,true,1001.8000011444092,0,b,,3,3,0,
9wb,RSVPtest,145,r,null,null,0,b,,3,3,0,
9wb,RSVPtest,146,r,false,415,1,g,,2,1,1,
9wb,RSVPtest,147,r,false,25,0,b,,0,3,0,
9wb,RSVPtest,148,r,false,52.20000076293945,1,g,,3,1,1,
9wb,RSVPtest,149,r,false,169.70000076293945,1,g,,3,1,1,
9wb,RSVPtest,150,r,true,925.2999992370605,2,r,,2,2,2,
9wb,RSVPtest,151,r,false,121.60000038146973,0,b,,3,3,0,
9wb,RSVPtest,152,r,false,76.29999923706055,2,r,,3,2,1,
9wb,RSVPtest,153,r,false,538.5,0,b,,1,3,0,
9wb,RSVPtest,154,r,true,133.10000038146973,2,r,,3,0,1,
9wb,RSVPtest,155,r,true,187.79999923706055,2,r,,3,1,1,
9wb,RSVPtest,156,r,false,32.39999961853027,1,g,,1,0,1,
9wb,RSVPtest,157,r,false,834.3999996185303,2,r,,2,0,1,
9wb,RSVPtest,158,r,false,2019.5,2,r,,1,2,1,
9wb,RSVPtest,159,r,false,1180.6999988555908,1,g,,1,2,1,
9wb,RSVPtest,160,r,false,1560.8999996185303,2,r,,1,1,2,
9wb,RSVPtest,161,r,false,165.5999984741211,2,r,,3,2,1,
9wb,RSVPtest,162,r,true,221.70000076293945,1,g,,0,0,2,
9wb,RSVPtest,163,r,true,236.4000015258789,2,r,,0,2,1,
9wb,RSVPtest,164,r,null,null,1,g,,0,2,1,
9wb,RSVPtest,165,r,true,833.1999988555908,0,b,,2,3,0,
9wb,RSVPtest,166,r,true,478.3999996185303,0,b,,1,3,0,
9wb,RSVPtest,167,r,null,null,1,g,,3,0,1,
9wb,RSVPtest,168,r,true,254.39999961853027,1,g,,0,0,2,
9wb,RSVPtest,169,r,null,null,1,g,,2,2,2,
9wb,RSVPtest,170,r,true,235.20000076293945,0,b,,2,3,0,
9wb,RSVPtest,171,r,false,54.5,1,g,,3,2,1,
9wb,RSVPtest,172,r,false,356.1999988555908,2,r,,3,0,1,
9wb,RSVPtest,173,r,true,505.79999923706055,1,g,,1,1,2,
9wb,RSVPtest,174,r,null,null,0,b,,1,3,0,
9wb,RSVPtest,175,r,true,408,2,r,,3,2,1,
9wb,RSVPtest,176,r,null,null,2,r,,1,0,1,
9wb,RSVPtest,177,r,true,363.29999923706055,1,g,,1,1,2,
9wb,RSVPtest,178,r,null,null,2,r,,3,1,1,
9wb,RSVPtest,179,r,true,218,1,g,,1,1,2,
9wb,RSVPtest,180,r,null,null,0,b,,3,3,0,
brk,brk,brk,brk,brk,brk,brk,brk,brk,brk,brk,brk,
9wb,RSVPtest,181,r,true,362.20000076293945,2,r,,2,2,2,
9wb,RSVPtest,182,r,false,280.6000003814697,1,g,,3,1,1,
9wb,RSVPtest,183,r,false,6.399999618530273,0,b,,2,3,0,
9wb,RSVPtest,184,r,true,2073.3999996185303,0,b,,1,3,0,
9wb,RSVPtest,185,r,true,1611.7000007629395,1,g,,2,1,1,
9wb,RSVPtest,186,r,true,243.30000114440918,0,b,,2,3,0,
9wb,RSVPtest,187,r,false,536.6000003814697,2,r,,3,1,1,
9wb,RSVPtest,188,r,false,946.1999988555908,1,g,,3,0,1,
9wb,RSVPtest,189,r,true,268.5,1,g,,2,2,2,
9wb,RSVPtest,190,r,false,1748.2000007629395,2,r,,3,0,1,
9wb,RSVPtest,191,r,false,290.6000003814697,1,g,,3,2,1,
9wb,RSVPtest,192,r,true,347.1000003814697,1,g,,2,2,2,
9wb,RSVPtest,193,r,true,27.799999237060547,0,b,,2,3,0,
9wb,RSVPtest,194,r,true,433.3999996185303,1,g,,3,0,1,
9wb,RSVPtest,195,r,false,27.899999618530273,1,g,,3,0,1,
9wb,RSVPtest,196,r,true,247.5,1,g,,1,1,2,
9wb,RSVPtest,197,r,true,172.20000076293945,2,r,,2,0,1,
9wb,RSVPtest,198,r,false,193.70000076293945,2,r,,2,2,2,
9wb,RSVPtest,199,r,false,811.1000003814697,1,g,,2,0,1,
9wb,RSVPtest,200,r,true,529.9000015258789,1,g,,2,2,2,
9wb,RSVPtest,201,r,false,21.299999237060547,2,r,,0,0,2,
9wb,RSVPtest,202,r,false,259.1000003814697,1,g,,3,0,1,
9wb,RSVPtest,203,r,null,null,2,r,,1,2,1,
9wb,RSVPtest,204,r,true,719.8999996185303,2,r,,2,2,2,
9wb,RSVPtest,205,r,false,275.4000015258789,2,r,,3,1,1,
9wb,RSVPtest,206,r,false,48.60000038146973,2,r,,3,1,1,
9wb,RSVPtest,207,r,true,139.19999885559082,1,g,,2,0,1,
9wb,RSVPtest,208,r,false,1657.7000007629395,2,r,,3,2,1,
9wb,RSVPtest,209,r,true,121.80000114440918,0,b,,0,3,0,
9wb,RSVPtest,210,r,false,179.29999923706055,1,g,,3,1,1,
9wb,RSVPtest,211,r,false,272.1000003814697,0,b,,3,3,0,
9wb,RSVPtest,212,r,true,44,0,b,,3,3,0,
9wb,RSVPtest,213,r,true,608.8000011444092,2,r,,3,0,1,
9wb,RSVPtest,214,r,false,164.30000114440918,2,r,,3,2,1,
9wb,RSVPtest,215,r,false,341.6000003814697,1,g,,0,1,1,
9wb,RSVPtest,216,r,true,8.700000762939453,0,b,,1,3,0,
9wb,RSVPtest,217,r,true,754.4000015258789,1,g,,1,2,1,
9wb,RSVPtest,218,r,false,153.70000076293945,1,g,,3,0,1,
9wb,RSVPtest,219,r,false,412.8999996185303,1,g,,3,2,1,
9wb,RSVPtest,220,r,false,251.5,2,r,,3,0,1,
9wb,RSVPtest,221,r,true,1761.5,2,r,,3,0,1,
9wb,RSVPtest,222,r,false,385.79999923706055,2,r,,2,1,1,
9wb,RSVPtest,223,r,false,19.30000114440918,1,g,,3,2,1,
9wb,RSVPtest,224,r,false,625.5999984741211,1,g,,3,0,1,
9wb,RSVPtest,225,r,true,235.80000114440918,1,g,,0,0,2,
9wb,RSVPtest,226,r,true,427.8999996185303,2,r,,3,1,1,
9wb,RSVPtest,227,r,true,67.79999923706055,2,r,,3,1,1,
9wb,RSVPtest,228,r,false,316.0999984741211,0,b,,2,3,0,
9wb,RSVPtest,229,r,true,251.89999961853027,2,r,,3,0,1,
9wb,RSVPtest,230,r,false,880.3999996185303,0,b,,2,3,0,
9wb,RSVPtest,231,r,true,275,2,r,,3,1,1,
9wb,RSVPtest,232,r,false,161.70000076293945,1,g,,0,1,1,
9wb,RSVPtest,233,r,true,2282,1,g,,3,1,1,
9wb,RSVPtest,234,r,false,721.6000003814697,1,g,,2,0,1,
9wb,RSVPtest,235,r,false,26.899999618530273,0,b,,3,3,0,
9wb,RSVPtest,236,r,true,1228.7000007629395,1,g,,2,1,1,
9wb,RSVPtest,237,r,true,33.79999923706055,2,r,,0,1,1,
9wb,RSVPtest,238,r,false,80.79999923706055,0,b,,3,3,0,
9wb,RSVPtest,239,r,true,280.6000003814697,1,g,,3,2,1,
9wb,RSVPtest,240,r,true,303.3000011444092,1,g,,1,0,1,
