subID,trialType,trialNum,cntBalance,correct,rt,rwdType,tgtCol,tgtDir,tgtPos,colPos,colMatch,
m2v,VDACtrain,0,r,null,null,1,g,v,0,,,
m2v,VDACtrain,0,r,null,null,1,g,h,3,,,
m2v,VDACtrain,0,r,true,749.1000001430511,2,r,v,3,,,
m2v,VDACtrain,0,r,true,973.2999999523163,1,g,v,5,,,
m2v,VDACtrain,0,r,true,861.7999999523163,2,r,h,0,,,
m2v,VDACtrain,0,r,true,710.8999998569489,1,g,v,2,,,
m2v,VDACtrain,0,r,true,837.8999998569489,1,g,h,5,,,
m2v,VDACtrain,0,r,null,null,2,r,h,2,,,
m2v,VDACtrain,0,r,null,null,2,r,h,1,,,
m2v,VDACtrain,0,r,true,751.5,2,r,v,4,,,
m2v,VDACtest,1,r,true,633,1,g,v,4,,,
m2v,VDACtest,2,r,true,691.5,1,g,h,4,,,
m2v,VDACtest,3,r,true,630.6000001430511,1,g,h,4,,,
m2v,VDACtest,4,r,true,567.2000000476837,2,r,v,3,,,
m2v,VDACtest,5,r,true,533.5999999046326,1,g,h,0,,,
m2v,VDACtest,6,r,true,684.4000000953674,1,g,v,2,,,
m2v,VDACtest,7,r,true,830.2000000476837,1,g,h,3,,,
m2v,VDACtest,8,r,true,542.5999999046326,1,g,v,0,,,
m2v,VDACtest,9,r,true,731.1000001430511,1,g,v,5,,,
m2v,VDACtest,10,r,true,565.7000000476837,1,g,h,2,,,
m2v,VDACtest,11,r,true,542.0999999046326,2,r,v,0,,,
m2v,VDACtest,12,r,true,861.2999999523163,2,r,h,2,,,
m2v,VDACtest,13,r,true,541.5,2,r,h,2,,,
m2v,VDACtest,14,r,false,575.2000000476837,1,g,h,0,,,
m2v,VDACtest,15,r,false,699.1999998092651,1,g,v,5,,,
m2v,VDACtest,16,r,true,789.0999999046326,2,r,v,0,,,
m2v,VDACtest,17,r,true,573,2,r,h,0,,,
m2v,VDACtest,18,r,null,null,2,r,h,3,,,
m2v,VDACtest,19,r,null,null,1,g,v,5,,,
m2v,VDACtest,20,r,true,728,1,g,v,0,,,
m2v,VDACtest,21,r,true,524.7999999523163,2,r,h,3,,,
m2v,VDACtest,22,r,true,830.6000001430511,1,g,v,1,,,
m2v,VDACtest,23,r,true,485.90000009536743,2,r,h,2,,,
m2v,VDACtest,24,r,false,630.2999999523163,2,r,v,2,,,
m2v,VDACtest,25,r,false,749.7000000476837,2,r,h,1,,,
m2v,VDACtest,26,r,false,808.4000000953674,2,r,v,3,,,
m2v,VDACtest,27,r,true,918,2,r,v,2,,,
m2v,VDACtest,28,r,true,702.7999999523163,2,r,h,4,,,
m2v,VDACtest,29,r,true,946,1,g,h,2,,,
m2v,VDACtest,30,r,true,589.2999999523163,2,r,h,4,,,
m2v,VDACtest,31,r,true,518.5,1,g,h,4,,,
m2v,VDACtest,32,r,true,894.5999999046326,1,g,h,3,,,
m2v,VDACtest,33,r,true,630.4000000953674,2,r,v,4,,,
m2v,VDACtest,34,r,true,662.0999999046326,2,r,h,5,,,
m2v,VDACtest,35,r,true,633.4000000953674,1,g,h,5,,,
m2v,VDACtest,36,r,true,437.2000000476837,2,r,v,4,,,
m2v,VDACtest,37,r,false,710.1000001430511,1,g,v,4,,,
m2v,VDACtest,38,r,true,806.5,1,g,v,5,,,
m2v,VDACtest,39,r,true,509.40000009536743,1,g,h,3,,,
m2v,VDACtest,40,r,false,645.8999998569489,1,g,h,0,,,
m2v,VDACtest,41,r,false,725.8999998569489,2,r,h,5,,,
m2v,VDACtest,42,r,true,693.2000000476837,2,r,h,4,,,
m2v,VDACtest,43,r,null,null,2,r,h,1,,,
m2v,VDACtest,44,r,true,938,2,r,h,4,,,
m2v,VDACtest,45,r,true,572.2999999523163,1,g,v,4,,,
m2v,VDACtest,46,r,true,925.8999998569489,2,r,h,2,,,
m2v,VDACtest,47,r,false,692.9000000953674,2,r,v,0,,,
m2v,VDACtest,48,r,null,null,1,g,v,2,,,
m2v,VDACtest,49,r,true,668.2000000476837,1,g,v,3,,,
m2v,VDACtest,50,r,true,759,1,g,v,1,,,
brk,brk,brk,brk,brk,brk,brk,brk,brk,brk,brk,brk,
m2v,VDACtest,51,r,true,964.1999998092651,1,g,v,1,,,
m2v,VDACtest,52,r,null,null,2,r,v,0,,,
m2v,VDACtest,53,r,true,508.39999985694885,1,g,h,5,,,
m2v,VDACtest,54,r,true,558.5,1,g,h,3,,,
m2v,VDACtest,55,r,false,691.7999999523163,2,r,h,4,,,
m2v,VDACtest,56,r,true,652.5,1,g,h,5,,,
m2v,VDACtest,57,r,true,717.5999999046326,1,g,v,4,,,
m2v,VDACtest,58,r,false,557.5,1,g,v,3,,,
m2v,VDACtest,59,r,null,null,1,g,h,4,,,
m2v,VDACtest,60,r,true,996.0999999046326,2,r,v,1,,,
m2v,VDACtest,61,r,false,671.5999999046326,2,r,v,3,,,
m2v,VDACtest,62,r,true,909.7000000476837,1,g,h,2,,,
m2v,VDACtest,63,r,false,693.5,2,r,h,3,,,
m2v,VDACtest,64,r,true,637,1,g,h,3,,,
m2v,VDACtest,65,r,true,769.5,2,r,h,0,,,
m2v,VDACtest,66,r,true,518.1000001430511,1,g,h,0,,,
m2v,VDACtest,67,r,null,null,1,g,v,1,,,
m2v,VDACtest,68,r,true,586,1,g,v,0,,,
m2v,VDACtest,69,r,true,534.0999999046326,1,g,v,2,,,
m2v,VDACtest,70,r,true,542,1,g,h,3,,,
m2v,VDACtest,71,r,false,981.6000001430511,2,r,h,1,,,
m2v,VDACtest,72,r,true,559.5999999046326,2,r,v,4,,,
m2v,VDACtest,73,r,true,557.5,2,r,h,3,,,
m2v,VDACtest,74,r,true,617.7999999523163,2,r,v,4,,,
m2v,VDACtest,75,r,false,630.2999999523163,2,r,h,4,,,
m2v,VDACtest,76,r,true,853.2999999523163,1,g,h,0,,,
m2v,VDACtest,77,r,true,621.6000001430511,2,r,v,5,,,
m2v,VDACtest,78,r,true,694.5999999046326,2,r,h,0,,,
m2v,VDACtest,79,r,null,null,2,r,h,1,,,
m2v,VDACtest,80,r,null,null,2,r,v,2,,,
m2v,VDACtest,81,r,true,680.9000000953674,2,r,v,1,,,
m2v,VDACtest,82,r,true,720.6000001430511,2,r,h,1,,,
m2v,VDACtest,83,r,true,757.5,1,g,v,4,,,
m2v,VDACtest,84,r,true,756.8000001907349,1,g,h,4,,,
m2v,VDACtest,85,r,true,949,1,g,v,1,,,
m2v,VDACtest,86,r,true,820.4000000953674,1,g,h,1,,,
m2v,VDACtest,87,r,true,589.6999998092651,2,r,v,1,,,
m2v,VDACtest,88,r,true,813.3999998569489,2,r,h,1,,,
m2v,VDACtest,89,r,true,790,2,r,h,5,,,
m2v,VDACtest,90,r,null,null,1,g,v,3,,,
m2v,VDACtest,91,r,true,603.2999999523163,2,r,h,5,,,
m2v,VDACtest,92,r,true,918.2000000476837,2,r,v,3,,,
m2v,VDACtest,93,r,true,702.1999998092651,2,r,v,1,,,
m2v,VDACtest,94,r,true,518.2000000476837,2,r,v,0,,,
m2v,VDACtest,95,r,true,924.7000000476837,1,g,h,1,,,
m2v,VDACtest,96,r,true,685.7999999523163,2,r,h,5,,,
m2v,VDACtest,97,r,true,621.7999999523163,2,r,v,0,,,
m2v,VDACtest,98,r,true,684.7999999523163,2,r,h,2,,,
m2v,VDACtest,99,r,true,679,2,r,v,1,,,
m2v,VDACtest,100,r,true,727.9000000953674,1,g,v,3,,,
brk,brk,brk,brk,brk,brk,brk,brk,brk,brk,brk,brk,
m2v,VDACtest,101,r,null,null,1,g,h,1,,,
m2v,VDACtest,102,r,true,524.2000000476837,2,r,v,0,,,
m2v,VDACtest,103,r,true,717.6000001430511,2,r,v,5,,,
m2v,VDACtest,104,r,true,486.2999999523163,2,r,h,5,,,
m2v,VDACtest,105,r,true,613.2999999523163,1,g,h,4,,,
m2v,VDACtest,106,r,true,588.6000001430511,2,r,h,1,,,
m2v,VDACtest,107,r,true,565.3999998569489,1,g,h,1,,,
m2v,VDACtest,108,r,true,437.60000014305115,1,g,h,1,,,
m2v,VDACtest,109,r,true,565.2999999523163,1,g,h,2,,,
m2v,VDACtest,110,r,true,446.2999999523163,1,g,h,2,,,
m2v,VDACtest,111,r,true,444.7999999523163,2,r,v,0,,,
m2v,VDACtest,112,r,true,629.2999999523163,1,g,v,1,,,
m2v,VDACtest,113,r,null,null,2,r,v,3,,,
m2v,VDACtest,114,r,true,788.5999999046326,1,g,v,4,,,
m2v,VDACtest,115,r,true,637,2,r,v,4,,,
m2v,VDACtest,116,r,true,565.7000000476837,2,r,h,4,,,
m2v,VDACtest,117,r,true,973.2999999523163,1,g,v,0,,,
m2v,VDACtest,118,r,true,645.2000000476837,2,r,v,3,,,
m2v,VDACtest,119,r,true,486,1,g,v,3,,,
m2v,VDACtest,120,r,true,590.6000001430511,2,r,v,5,,,
m2v,VDACtest,121,r,true,661.3999998569489,1,g,v,0,,,
m2v,VDACtest,122,r,true,693.2999999523163,1,g,h,4,,,
m2v,VDACtest,123,r,true,685.7999999523163,1,g,h,1,,,
m2v,VDACtest,124,r,true,894.5,1,g,v,5,,,
m2v,VDACtest,125,r,false,605.2999999523163,1,g,h,4,,,
m2v,VDACtest,126,r,true,626,1,g,h,4,,,
m2v,VDACtest,127,r,true,757.2999999523163,1,g,v,1,,,
m2v,VDACtest,128,r,null,null,2,r,h,2,,,
m2v,VDACtest,129,r,true,696.6999998092651,2,r,h,5,,,
m2v,VDACtest,130,r,true,654.0999999046326,1,g,v,0,,,
m2v,VDACtest,131,r,false,542.5,1,g,v,3,,,
m2v,VDACtest,132,r,null,null,2,r,v,2,,,
m2v,VDACtest,133,r,true,835.5,1,g,h,3,,,
m2v,VDACtest,134,r,true,837.7000000476837,2,r,h,4,,,
m2v,VDACtest,135,r,true,694.0999999046326,1,g,v,4,,,
m2v,VDACtest,136,r,true,830.9000000953674,1,g,h,2,,,
m2v,VDACtest,137,r,true,739.7999999523163,1,g,h,3,,,
m2v,VDACtest,138,r,true,710.5,1,g,h,5,,,
m2v,VDACtest,139,r,true,782.2000000476837,2,r,h,2,,,
m2v,VDACtest,140,r,true,668.8999998569489,2,r,h,1,,,
m2v,VDACtest,141,r,true,719.2000000476837,2,r,v,4,,,
m2v,VDACtest,142,r,false,605.4000000953674,1,g,v,3,,,
m2v,VDACtest,143,r,true,622.2000000476837,2,r,h,3,,,
m2v,VDACtest,144,r,false,790.0999999046326,1,g,v,2,,,
m2v,VDACtest,145,r,true,591.1999998092651,1,g,h,2,,,
m2v,VDACtest,146,r,false,540.7999999523163,2,r,v,3,,,
m2v,VDACtest,147,r,true,788.5,1,g,v,2,,,
m2v,VDACtest,148,r,true,684.9000000953674,2,r,v,4,,,
m2v,VDACtest,149,r,true,525,1,g,v,0,,,
m2v,VDACtest,150,r,true,636.9000000953674,1,g,h,5,,,
brk,brk,brk,brk,brk,brk,brk,brk,brk,brk,brk,brk,
m2v,VDACtest,151,r,true,744.1999998092651,2,r,v,1,,,
m2v,VDACtest,152,r,true,461.09999990463257,1,g,v,1,,,
m2v,VDACtest,153,r,true,614.6000001430511,2,r,v,5,,,
m2v,VDACtest,154,r,true,572.0999999046326,2,r,h,0,,,
m2v,VDACtest,155,r,true,565.7000000476837,1,g,v,0,,,
m2v,VDACtest,156,r,true,531.8999998569489,2,r,v,5,,,
m2v,VDACtest,157,r,false,558.5999999046326,2,r,h,5,,,
m2v,VDACtest,158,r,true,725.0999999046326,1,g,v,2,,,
m2v,VDACtest,159,r,true,597.2999999523163,2,r,h,0,,,
m2v,VDACtest,160,r,true,701.6999998092651,1,g,v,5,,,
m2v,VDACtest,161,r,true,828.7000000476837,1,g,v,4,,,
m2v,VDACtest,162,r,true,709,1,g,v,5,,,
m2v,VDACtest,163,r,true,784.2000000476837,1,g,h,2,,,
m2v,VDACtest,164,r,true,654.2999999523163,1,g,v,2,,,
m2v,VDACtest,165,r,false,694.2999999523163,1,g,v,4,,,
m2v,VDACtest,166,r,true,788.4000000953674,1,g,h,1,,,
m2v,VDACtest,167,r,true,604.8000001907349,1,g,h,1,,,
m2v,VDACtest,168,r,true,786.5,1,g,h,0,,,
m2v,VDACtest,169,r,true,589.2999999523163,1,g,h,0,,,
m2v,VDACtest,170,r,true,781.7999999523163,1,g,v,3,,,
m2v,VDACtest,171,r,null,null,2,r,v,1,,,
m2v,VDACtest,172,r,true,675.2999999523163,2,r,h,3,,,
m2v,VDACtest,173,r,true,621.2999999523163,1,g,h,0,,,
m2v,VDACtest,174,r,true,685.4000000953674,2,r,v,5,,,
m2v,VDACtest,175,r,true,661.8999998569489,2,r,v,3,,,
m2v,VDACtest,176,r,true,709.2000000476837,2,r,h,3,,,
m2v,VDACtest,177,r,true,532.7000000476837,1,g,v,2,,,
m2v,VDACtest,178,r,true,677.8999998569489,1,g,h,5,,,
m2v,VDACtest,179,r,true,819.2999999523163,1,g,v,1,,,
m2v,VDACtest,180,r,false,570.5,2,r,v,2,,,
m2v,VDACtest,181,r,true,580.8999998569489,1,g,h,5,,,
m2v,VDACtest,182,r,true,637.7000000476837,2,r,v,2,,,
m2v,VDACtest,183,r,true,596.1000001430511,2,r,v,4,,,
m2v,VDACtest,184,r,true,710.0999999046326,1,g,h,1,,,
m2v,VDACtest,185,r,true,781.3999998569489,2,r,v,2,,,
m2v,VDACtest,186,r,true,731.3999998569489,2,r,v,5,,,
m2v,VDACtest,187,r,true,613.5,2,r,v,1,,,
m2v,VDACtest,188,r,true,596.3999998569489,2,r,h,1,,,
m2v,VDACtest,189,r,true,629.7999999523163,2,r,h,0,,,
m2v,VDACtest,190,r,true,670.6000001430511,2,r,v,5,,,
m2v,VDACtest,191,r,true,451.7999999523163,2,r,h,2,,,
m2v,VDACtest,192,r,false,458.59999990463257,1,g,h,5,,,
m2v,VDACtest,193,r,true,654.5,2,r,h,0,,,
m2v,VDACtest,194,r,true,563.1000001430511,1,g,v,5,,,
m2v,VDACtest,195,r,true,636.7000000476837,2,r,h,3,,,
m2v,VDACtest,196,r,true,605.1999998092651,2,r,h,4,,,
m2v,VDACtest,197,r,true,621.7000000476837,2,r,h,0,,,
m2v,VDACtest,198,r,false,533.7999999523163,2,r,v,2,,,
m2v,VDACtest,199,r,true,510.2999999523163,2,r,v,4,,,
m2v,VDACtest,200,r,false,740,2,r,v,1,,,
m2v,RSVPtrain,0,r,true,2133.899999856949,2,r,,1,1,2,
m2v,RSVPtrain,0,r,true,1257.2000000476837,2,r,,0,0,2,
m2v,RSVPtrain,0,r,true,1217.5,0,b,,3,3,0,
m2v,RSVPtrain,0,r,true,1256.5999999046326,1,g,,3,0,1,
m2v,RSVPtrain,0,r,true,1520.9000000953674,1,g,,2,2,2,
m2v,RSVPtrain,0,r,true,977.6999998092651,1,g,,3,1,1,
m2v,RSVPtrain,0,r,false,1390.4000000953674,1,g,,1,0,1,
m2v,RSVPtrain,0,r,false,1377.3999998569489,0,b,,1,3,0,
m2v,RSVPtrain,0,r,true,752.2999999523163,0,b,,0,3,0,
m2v,RSVPtrain,0,r,true,1279.1999998092651,2,r,,3,2,1,
m2v,RSVPtest,1,r,false,1201.3999998569489,1,g,,0,1,1,
m2v,RSVPtest,2,r,true,945,1,g,,1,1,2,
m2v,RSVPtest,3,r,true,744.3999998569489,1,g,,3,1,1,
m2v,RSVPtest,4,r,true,726.3999998569489,1,g,,3,0,1,
m2v,RSVPtest,5,r,true,984.9000000953674,1,g,,1,1,2,
m2v,RSVPtest,6,r,true,1156,1,g,,3,1,1,
m2v,RSVPtest,7,r,false,1024.6999998092651,2,r,,2,2,2,
m2v,RSVPtest,8,r,false,911.7999999523163,0,b,,1,3,0,
m2v,RSVPtest,9,r,true,1034.4000000953674,1,g,,3,1,1,
m2v,RSVPtest,10,r,true,906.7999999523163,1,g,,2,1,1,
m2v,RSVPtest,11,r,true,1440.1999998092651,1,g,,2,2,2,
m2v,RSVPtest,12,r,true,1039.9000000953674,1,g,,2,0,1,
m2v,RSVPtest,13,r,true,952.2999999523163,1,g,,3,0,1,
m2v,RSVPtest,14,r,true,670,1,g,,2,2,2,
m2v,RSVPtest,15,r,true,726.5,2,r,,2,2,2,
m2v,RSVPtest,16,r,true,1000,0,b,,2,3,0,
m2v,RSVPtest,17,r,false,1111.2000000476837,2,r,,3,1,1,
m2v,RSVPtest,18,r,true,1263.5999999046326,1,g,,3,2,1,
m2v,RSVPtest,19,r,true,1332.8999998569489,0,b,,3,3,0,
m2v,RSVPtest,20,r,true,895,2,r,,0,0,2,
m2v,RSVPtest,21,r,false,1111.2999999523163,0,b,,1,3,0,
m2v,RSVPtest,22,r,true,1024.7999999523163,2,r,,3,2,1,
m2v,RSVPtest,23,r,true,735.4000000953674,2,r,,1,0,1,
m2v,RSVPtest,24,r,true,837.2999999523163,2,r,,3,2,1,
m2v,RSVPtest,25,r,true,895.2000000476837,2,r,,3,1,1,
m2v,RSVPtest,26,r,true,1181.0999999046326,1,g,,2,0,1,
m2v,RSVPtest,27,r,true,704.3999998569489,1,g,,0,0,2,
m2v,RSVPtest,28,r,true,998.2000000476837,1,g,,0,0,2,
m2v,RSVPtest,29,r,false,773.2000000476837,2,r,,1,1,2,
m2v,RSVPtest,30,r,false,646.2000000476837,0,b,,3,3,0,
m2v,RSVPtest,31,r,true,967.2999999523163,2,r,,1,2,1,
m2v,RSVPtest,32,r,true,872.7000000476837,2,r,,3,2,1,
m2v,RSVPtest,33,r,false,793,0,b,,2,3,0,
m2v,RSVPtest,34,r,true,1877.6000001430511,1,g,,3,1,1,
m2v,RSVPtest,35,r,true,847.7000000476837,2,r,,1,0,1,
m2v,RSVPtest,36,r,true,1032.8000001907349,1,g,,3,2,1,
m2v,RSVPtest,37,r,true,857.5999999046326,1,g,,1,1,2,
m2v,RSVPtest,38,r,true,1039.5,2,r,,2,1,1,
m2v,RSVPtest,39,r,false,792.1999998092651,0,b,,1,3,0,
m2v,RSVPtest,40,r,true,773.7000000476837,0,b,,2,3,0,
m2v,RSVPtest,41,r,true,848.2999999523163,0,b,,3,3,0,
m2v,RSVPtest,42,r,true,1279.5999999046326,1,g,,0,2,1,
m2v,RSVPtest,43,r,true,938.3999998569489,0,b,,2,3,0,
m2v,RSVPtest,44,r,false,992.9000000953674,1,g,,3,2,1,
m2v,RSVPtest,45,r,true,1257.2999999523163,2,r,,0,0,2,
m2v,RSVPtest,46,r,true,863,1,g,,3,2,1,
m2v,RSVPtest,47,r,true,703.2999999523163,2,r,,3,0,1,
m2v,RSVPtest,48,r,true,678.5,1,g,,2,2,2,
m2v,RSVPtest,49,r,true,1287.7999999523163,0,b,,0,3,0,
m2v,RSVPtest,50,r,true,951.9000000953674,1,g,,3,2,1,
m2v,RSVPtest,51,r,true,910.7999999523163,0,b,,0,3,0,
m2v,RSVPtest,52,r,false,620.3000001907349,1,g,,3,0,1,
m2v,RSVPtest,53,r,true,934.5999999046326,2,r,,2,2,2,
m2v,RSVPtest,54,r,true,854,2,r,,3,0,1,
m2v,RSVPtest,55,r,false,638.4000000953674,1,g,,0,0,2,
m2v,RSVPtest,56,r,false,635.2999999523163,2,r,,3,1,1,
m2v,RSVPtest,57,r,true,1079.8999998569489,0,b,,2,3,0,
m2v,RSVPtest,58,r,true,1206.7000000476837,1,g,,3,0,1,
m2v,RSVPtest,59,r,true,710.0999999046326,1,g,,3,0,1,
m2v,RSVPtest,60,r,true,799.7999999523163,2,r,,1,2,1,
brk,brk,brk,brk,brk,brk,brk,brk,brk,brk,brk,brk,
m2v,RSVPtest,61,r,true,689.4000000953674,0,b,,1,3,0,
m2v,RSVPtest,62,r,false,800.2000000476837,0,b,,2,3,0,
m2v,RSVPtest,63,r,true,750.3999998569489,2,r,,3,2,1,
m2v,RSVPtest,64,r,true,672.1000001430511,1,g,,1,0,1,
m2v,RSVPtest,65,r,true,950.2999999523163,2,r,,2,0,1,
m2v,RSVPtest,66,r,true,766,2,r,,1,1,2,
m2v,RSVPtest,67,r,true,732.7999999523163,2,r,,3,0,1,
m2v,RSVPtest,68,r,true,766.8000001907349,2,r,,3,2,1,
m2v,RSVPtest,69,r,true,951.2999999523163,2,r,,3,1,1,
m2v,RSVPtest,70,r,true,1134.7000000476837,2,r,,3,0,1,
m2v,RSVPtest,71,r,true,817.7000000476837,2,r,,0,0,2,
m2v,RSVPtest,72,r,true,661.2999999523163,2,r,,1,0,1,
m2v,RSVPtest,73,r,false,656.7999999523163,2,r,,1,2,1,
m2v,RSVPtest,74,r,true,628.8999998569489,1,g,,1,0,1,
m2v,RSVPtest,75,r,true,878.7999999523163,0,b,,3,3,0,
m2v,RSVPtest,76,r,true,740.5999999046326,0,b,,1,3,0,
m2v,RSVPtest,77,r,true,551.5,1,g,,1,2,1,
m2v,RSVPtest,78,r,true,716.9000000953674,1,g,,3,1,1,
m2v,RSVPtest,79,r,true,614,0,b,,0,3,0,
m2v,RSVPtest,80,r,true,781.2000000476837,0,b,,3,3,0,
m2v,RSVPtest,81,r,true,660.1000001430511,2,r,,2,1,1,
m2v,RSVPtest,82,r,true,477.90000009536743,2,r,,1,2,1,
m2v,RSVPtest,83,r,true,710,1,g,,2,2,2,
m2v,RSVPtest,84,r,true,1141.7000000476837,1,g,,2,0,1,
m2v,RSVPtest,85,r,true,837.7000000476837,2,r,,2,1,1,
m2v,RSVPtest,86,r,true,940.7999999523163,0,b,,2,3,0,
m2v,RSVPtest,87,r,true,799.2999999523163,1,g,,3,0,1,
m2v,RSVPtest,88,r,false,974.7000000476837,1,g,,3,0,1,
m2v,RSVPtest,89,r,true,813.5,2,r,,0,2,1,
m2v,RSVPtest,90,r,true,804.5,0,b,,1,3,0,
m2v,RSVPtest,91,r,false,887.0999999046326,1,g,,1,2,1,
m2v,RSVPtest,92,r,true,660.8999998569489,1,g,,0,2,1,
m2v,RSVPtest,93,r,true,619,2,r,,0,1,1,
m2v,RSVPtest,94,r,true,558.9000000953674,2,r,,1,2,1,
m2v,RSVPtest,95,r,true,654.6999998092651,1,g,,1,2,1,
m2v,RSVPtest,96,r,false,882.2000000476837,2,r,,3,1,1,
m2v,RSVPtest,97,r,true,726.2999999523163,0,b,,2,3,0,
m2v,RSVPtest,98,r,true,838.5999999046326,1,g,,3,2,1,
m2v,RSVPtest,99,r,true,725.0999999046326,2,r,,0,0,2,
m2v,RSVPtest,100,r,true,750.5999999046326,2,r,,0,2,1,
m2v,RSVPtest,101,r,true,919.2999999523163,0,b,,3,3,0,
m2v,RSVPtest,102,r,true,560.2000000476837,2,r,,2,1,1,
m2v,RSVPtest,103,r,true,861.0999999046326,0,b,,0,3,0,
m2v,RSVPtest,104,r,true,878.3999998569489,2,r,,3,2,1,
m2v,RSVPtest,105,r,true,562.7999999523163,0,b,,1,3,0,
m2v,RSVPtest,106,r,true,789.3999998569489,0,b,,3,3,0,
m2v,RSVPtest,107,r,true,815.9000000953674,0,b,,1,3,0,
m2v,RSVPtest,108,r,true,597.7000000476837,2,r,,2,2,2,
m2v,RSVPtest,109,r,true,646.7999999523163,1,g,,1,0,1,
m2v,RSVPtest,110,r,true,646.2000000476837,0,b,,1,3,0,
m2v,RSVPtest,111,r,true,623.5,2,r,,3,1,1,
m2v,RSVPtest,112,r,true,767.7999999523163,2,r,,3,0,1,
m2v,RSVPtest,113,r,true,582.5,2,r,,0,2,1,
m2v,RSVPtest,114,r,true,957.5,1,g,,2,2,2,
m2v,RSVPtest,115,r,true,743.7000000476837,2,r,,3,2,1,
m2v,RSVPtest,116,r,true,573.9000000953674,2,r,,3,1,1,
m2v,RSVPtest,117,r,true,622.9000000953674,2,r,,3,0,1,
m2v,RSVPtest,118,r,true,612.7000000476837,2,r,,3,0,1,
m2v,RSVPtest,119,r,true,782.7999999523163,0,b,,2,3,0,
m2v,RSVPtest,120,r,true,822,1,g,,1,0,1,
brk,brk,brk,brk,brk,brk,brk,brk,brk,brk,brk,brk,
m2v,RSVPtest,121,r,true,631.7000000476837,0,b,,1,3,0,
m2v,RSVPtest,122,r,true,574.0999999046326,2,r,,3,1,1,
m2v,RSVPtest,123,r,true,614.2999999523163,2,r,,2,1,1,
m2v,RSVPtest,124,r,true,909.6000001430511,0,b,,3,3,0,
m2v,RSVPtest,125,r,true,623.4000000953674,2,r,,1,0,1,
m2v,RSVPtest,126,r,false,653.5,0,b,,3,3,0,
m2v,RSVPtest,127,r,true,789.0999999046326,0,b,,3,3,0,
m2v,RSVPtest,128,r,true,873.8000001907349,1,g,,2,1,1,
m2v,RSVPtest,129,r,true,564.8999998569489,1,g,,0,2,1,
m2v,RSVPtest,130,r,true,876.8000001907349,0,b,,2,3,0,
m2v,RSVPtest,131,r,true,686.5,2,r,,1,1,2,
m2v,RSVPtest,132,r,true,804.2999999523163,1,g,,3,1,1,
m2v,RSVPtest,133,r,true,709,1,g,,1,1,2,
m2v,RSVPtest,134,r,true,1131.9000000953674,1,g,,2,1,1,
m2v,RSVPtest,135,r,true,657,0,b,,0,3,0,
m2v,RSVPtest,136,r,false,768.2000000476837,1,g,,0,0,2,
m2v,RSVPtest,137,r,true,725.6000001430511,2,r,,3,0,1,
m2v,RSVPtest,138,r,true,718.3000001907349,2,r,,3,0,1,
m2v,RSVPtest,139,r,true,842.2999999523163,2,r,,3,1,1,
m2v,RSVPtest,140,r,true,787,2,r,,2,2,2,
m2v,RSVPtest,141,r,true,655.9000000953674,1,g,,1,0,1,
m2v,RSVPtest,142,r,false,629.5,2,r,,2,2,2,
m2v,RSVPtest,143,r,true,628.7999999523163,0,b,,3,3,0,
m2v,RSVPtest,144,r,true,607.9000000953674,1,g,,2,1,1,
m2v,RSVPtest,145,r,false,806.8999998569489,1,g,,1,2,1,
m2v,RSVPtest,146,r,true,678.5,1,g,,3,2,1,
m2v,RSVPtest,147,r,true,710.7999999523163,2,r,,0,2,1,
m2v,RSVPtest,148,r,true,528.8999998569489,1,g,,0,0,2,
m2v,RSVPtest,149,r,true,605.7000000476837,2,r,,1,1,2,
m2v,RSVPtest,150,r,true,686.7999999523163,2,r,,0,1,1,
m2v,RSVPtest,151,r,true,780.4000000953674,1,g,,3,1,1,
m2v,RSVPtest,152,r,false,916.0999999046326,0,b,,0,3,0,
m2v,RSVPtest,153,r,true,613,1,g,,0,1,1,
m2v,RSVPtest,154,r,true,630.1000001430511,0,b,,0,3,0,
m2v,RSVPtest,155,r,true,659.4000000953674,1,g,,3,1,1,
m2v,RSVPtest,156,r,true,555,0,b,,3,3,0,
m2v,RSVPtest,157,r,true,598.7999999523163,2,r,,3,1,1,
m2v,RSVPtest,158,r,false,626.4000000953674,2,r,,2,0,1,
m2v,RSVPtest,159,r,true,534.0999999046326,1,g,,0,1,1,
m2v,RSVPtest,160,r,true,687,0,b,,3,3,0,
m2v,RSVPtest,161,r,true,899.2999999523163,2,r,,3,0,1,
m2v,RSVPtest,162,r,true,534.5,1,g,,3,2,1,
m2v,RSVPtest,163,r,true,780.7000000476837,1,g,,3,2,1,
m2v,RSVPtest,164,r,true,601.2000000476837,2,r,,2,0,1,
m2v,RSVPtest,165,r,true,642.9000000953674,0,b,,0,3,0,
m2v,RSVPtest,166,r,false,558.1000001430511,1,g,,2,1,1,
m2v,RSVPtest,167,r,true,540.2999999523163,2,r,,0,1,1,
m2v,RSVPtest,168,r,true,620.1000001430511,2,r,,3,1,1,
m2v,RSVPtest,169,r,true,660.9000000953674,1,g,,3,1,1,
m2v,RSVPtest,170,r,true,475.60000014305115,1,g,,0,2,1,
m2v,RSVPtest,171,r,true,895.2000000476837,0,b,,3,3,0,
m2v,RSVPtest,172,r,true,566.2999999523163,2,r,,0,1,1,
m2v,RSVPtest,173,r,true,571.2999999523163,1,g,,3,1,1,
m2v,RSVPtest,174,r,true,628.4000000953674,2,r,,3,1,1,
m2v,RSVPtest,175,r,true,791.5,0,b,,0,3,0,
m2v,RSVPtest,176,r,true,743,1,g,,1,2,1,
m2v,RSVPtest,177,r,true,545.2999999523163,0,b,,3,3,0,
m2v,RSVPtest,178,r,true,564.6000001430511,1,g,,0,2,1,
m2v,RSVPtest,179,r,true,799.1000001430511,2,r,,3,2,1,
m2v,RSVPtest,180,r,false,861.9000000953674,2,r,,2,1,1,
brk,brk,brk,brk,brk,brk,brk,brk,brk,brk,brk,brk,
m2v,RSVPtest,181,r,true,810.3999998569489,2,r,,3,2,1,
m2v,RSVPtest,182,r,true,883.1000001430511,2,r,,2,0,1,
m2v,RSVPtest,183,r,true,598.5,0,b,,3,3,0,
m2v,RSVPtest,184,r,true,874.6000001430511,1,g,,3,2,1,
m2v,RSVPtest,185,r,true,493.10000014305115,2,r,,1,2,1,
m2v,RSVPtest,186,r,true,659.2000000476837,2,r,,0,2,1,
m2v,RSVPtest,187,r,false,621.1999998092651,1,g,,3,0,1,
m2v,RSVPtest,188,r,true,740,0,b,,0,3,0,
m2v,RSVPtest,189,r,false,685.7000000476837,1,g,,2,0,1,
m2v,RSVPtest,190,r,true,685.6000001430511,1,g,,3,0,1,
m2v,RSVPtest,191,r,true,798.1000001430511,0,b,,3,3,0,
m2v,RSVPtest,192,r,true,610.2999999523163,2,r,,0,2,1,
m2v,RSVPtest,193,r,true,624.7000000476837,2,r,,0,1,1,
m2v,RSVPtest,194,r,true,708.1000001430511,1,g,,3,1,1,
m2v,RSVPtest,195,r,false,757.1000001430511,2,r,,1,0,1,
m2v,RSVPtest,196,r,true,548.0999999046326,2,r,,1,0,1,
m2v,RSVPtest,197,r,true,885.1000001430511,2,r,,2,0,1,
m2v,RSVPtest,198,r,true,1211.9000000953674,2,r,,2,0,1,
m2v,RSVPtest,199,r,true,797.2999999523163,0,b,,1,3,0,
m2v,RSVPtest,200,r,false,1125.7000000476837,2,r,,3,2,1,
m2v,RSVPtest,201,r,true,885.5,2,r,,3,2,1,
m2v,RSVPtest,202,r,true,754.4000000953674,0,b,,2,3,0,
m2v,RSVPtest,203,r,true,787,1,g,,0,0,2,
m2v,RSVPtest,204,r,true,770.7999999523163,2,r,,0,0,2,
m2v,RSVPtest,205,r,true,748.3999998569489,1,g,,2,2,2,
m2v,RSVPtest,206,r,false,562.4000000953674,2,r,,3,2,1,
m2v,RSVPtest,207,r,true,488,1,g,,0,1,1,
m2v,RSVPtest,208,r,true,870.0999999046326,0,b,,3,3,0,
m2v,RSVPtest,209,r,false,1213.5,0,b,,3,3,0,
m2v,RSVPtest,210,r,true,1122.8000001907349,0,b,,3,3,0,
m2v,RSVPtest,211,r,true,657.2000000476837,1,g,,3,0,1,
m2v,RSVPtest,212,r,true,836.7000000476837,1,g,,3,0,1,
m2v,RSVPtest,213,r,true,613.9000000953674,1,g,,3,1,1,
m2v,RSVPtest,214,r,true,585.5,1,g,,0,1,1,
m2v,RSVPtest,215,r,true,596.7999999523163,1,g,,1,2,1,
m2v,RSVPtest,216,r,true,637.2000000476837,0,b,,3,3,0,
m2v,RSVPtest,217,r,true,581.0999999046326,0,b,,3,3,0,
m2v,RSVPtest,218,r,true,612.5999999046326,1,g,,3,0,1,
m2v,RSVPtest,219,r,true,651.9000000953674,2,r,,1,1,2,
m2v,RSVPtest,220,r,false,535.6000001430511,0,b,,3,3,0,
m2v,RSVPtest,221,r,true,781.3999998569489,1,g,,0,1,1,
m2v,RSVPtest,222,r,true,637.2000000476837,2,r,,0,1,1,
m2v,RSVPtest,223,r,true,341.89999985694885,0,b,,0,3,0,
m2v,RSVPtest,224,r,true,650.7999999523163,1,g,,0,2,1,
m2v,RSVPtest,225,r,false,724.2999999523163,1,g,,3,2,1,
m2v,RSVPtest,226,r,false,1164.6999998092651,1,g,,1,0,1,
m2v,RSVPtest,227,r,true,708.2999999523163,0,b,,2,3,0,
m2v,RSVPtest,228,r,true,850.0999999046326,0,b,,3,3,0,
m2v,RSVPtest,229,r,true,419.40000009536743,0,b,,0,3,0,
m2v,RSVPtest,230,r,true,699.9000000953674,0,b,,1,3,0,
m2v,RSVPtest,231,r,false,579.7000000476837,2,r,,3,0,1,
m2v,RSVPtest,232,r,true,570.2999999523163,1,g,,2,1,1,
m2v,RSVPtest,233,r,true,589.2000000476837,2,r,,1,1,2,
m2v,RSVPtest,234,r,true,844.5,1,g,,2,0,1,
m2v,RSVPtest,235,r,true,819.7999999523163,1,g,,3,2,1,
m2v,RSVPtest,236,r,false,1219.1999998092651,1,g,,1,1,2,
m2v,RSVPtest,237,r,true,819.3999998569489,2,r,,3,0,1,
m2v,RSVPtest,238,r,false,732.7000000476837,2,r,,0,0,2,
m2v,RSVPtest,239,r,true,781.1999998092651,1,g,,2,0,1,
m2v,RSVPtest,240,r,true,432.59999990463257,1,g,,1,1,2,
