subID,trialType,trialNum,cntBalance,correct,rt,rwdType,tgtCol,tgtDir,tgtPos,colPos,colMatch,
w1c,VDACtrain,0,r,null,null,1,g,v,0,,,
w1c,VDACtrain,0,r,true,844.9000000953674,1,g,v,2,,,
w1c,VDACtrain,0,r,null,null,2,r,h,0,,,
w1c,VDACtrain,0,r,null,null,1,g,v,5,,,
w1c,VDACtrain,0,r,null,null,2,r,v,4,,,
w1c,VDACtrain,0,r,null,null,2,r,h,1,,,
w1c,VDACtrain,0,r,null,null,2,r,v,3,,,
w1c,VDACtrain,0,r,true,270.2999999523163,1,g,h,3,,,
w1c,VDACtrain,0,r,false,844.5,2,r,h,2,,,
w1c,VDACtrain,0,r,null,null,1,g,h,5,,,
w1c,VDACtest,1,r,true,622.1999998092651,1,g,v,5,,,
w1c,VDACtest,2,r,null,null,1,g,h,2,,,
w1c,VDACtest,3,r,true,582.7000000476837,2,r,v,0,,,
w1c,VDACtest,4,r,null,null,1,g,h,4,,,
w1c,VDACtest,5,r,true,822.2999999523163,2,r,h,0,,,
w1c,VDACtest,6,r,null,null,1,g,h,3,,,
w1c,VDACtest,7,r,null,null,2,r,h,1,,,
w1c,VDACtest,8,r,null,null,1,g,v,2,,,
w1c,VDACtest,9,r,null,null,2,r,v,4,,,
w1c,VDACtest,10,r,false,690.8999998569489,2,r,h,0,,,
w1c,VDACtest,11,r,null,null,2,r,v,3,,,
attCheck,attCheck,attCheck,attCheck,attCheck,attCheck,attCheck,attCheck,attCheck,attCheck,attCheck,attCheck,
w1c,VDACtest,12,r,null,null,1,g,h,3,,,
w1c,VDACtest,13,r,true,678.0999999046326,2,r,v,5,,,
w1c,VDACtest,14,r,true,645.1000001430511,1,g,v,4,,,
w1c,VDACtest,15,r,true,467.7000000476837,2,r,v,4,,,
w1c,VDACtest,16,r,null,null,1,g,v,1,,,
w1c,VDACtest,17,r,false,153,2,r,v,4,,,
w1c,VDACtest,18,r,false,429.10000014305115,1,g,h,3,,,
w1c,VDACtest,19,r,true,938.6999998092651,2,r,h,0,,,
w1c,VDACtest,20,r,true,796.2000000476837,1,g,v,5,,,
w1c,VDACtest,21,r,true,964.5,2,r,h,1,,,
w1c,VDACtest,22,r,null,null,1,g,v,2,,,
w1c,VDACtest,23,r,null,null,2,r,v,3,,,
w1c,VDACtest,24,r,true,924.5,2,r,v,4,,,
w1c,VDACtest,25,r,true,709,2,r,v,1,,,
w1c,VDACtest,26,r,null,null,1,g,v,3,,,
w1c,VDACtest,27,r,null,null,1,g,v,2,,,
w1c,VDACtest,28,r,true,843.7999999523163,1,g,v,3,,,
w1c,VDACtest,29,r,true,836.3000001907349,2,r,h,4,,,
w1c,VDACtest,30,r,true,700.0999999046326,1,g,v,4,,,
w1c,VDACtest,31,r,null,null,2,r,v,2,,,
w1c,VDACtest,32,r,true,871.2999999523163,1,g,v,0,,,
w1c,VDACtest,33,r,true,660.8000001907349,2,r,v,1,,,
w1c,VDACtest,34,r,true,820.2000000476837,2,r,v,2,,,
w1c,VDACtest,35,r,true,924.1000001430511,2,r,h,5,,,
w1c,VDACtest,36,r,true,593.7000000476837,2,r,h,4,,,
w1c,VDACtest,37,r,true,791.1000001430511,2,r,h,1,,,
w1c,VDACtest,38,r,true,550.9000000953674,2,r,h,1,,,
w1c,VDACtest,39,r,true,618.5999999046326,2,r,v,5,,,
w1c,VDACtest,40,r,true,779.3999998569489,2,r,h,0,,,
w1c,VDACtest,41,r,null,null,1,g,h,4,,,
w1c,VDACtest,42,r,true,648.5,1,g,v,1,,,
w1c,VDACtest,43,r,false,621.2000000476837,2,r,v,4,,,
w1c,VDACtest,44,r,true,802.7000000476837,1,g,h,4,,,
w1c,VDACtest,45,r,null,null,1,g,h,3,,,
w1c,VDACtest,46,r,null,null,1,g,v,3,,,
w1c,VDACtest,47,r,true,969.7000000476837,2,r,h,5,,,
w1c,VDACtest,48,r,true,646.3999998569489,2,r,h,1,,,
w1c,VDACtest,49,r,false,925.0999999046326,2,r,v,4,,,
w1c,VDACtest,50,r,true,682.5999999046326,2,r,h,3,,,
brk,brk,brk,brk,brk,brk,brk,brk,brk,brk,brk,brk,
w1c,VDACtest,51,r,null,null,1,g,v,1,,,
w1c,VDACtest,52,r,true,808.3999998569489,2,r,h,2,,,
w1c,VDACtest,53,r,true,733.3999998569489,1,g,h,2,,,
w1c,VDACtest,54,r,null,null,1,g,h,0,,,
w1c,VDACtest,55,r,true,479.5,2,r,v,1,,,
w1c,VDACtest,56,r,true,516.5999999046326,2,r,h,3,,,
w1c,VDACtest,57,r,true,628.1999998092651,2,r,h,4,,,
w1c,VDACtest,58,r,null,null,1,g,v,1,,,
w1c,VDACtest,59,r,null,null,1,g,h,1,,,
w1c,VDACtest,60,r,true,634,1,g,v,1,,,
w1c,VDACtest,61,r,true,563.7000000476837,2,r,v,3,,,
w1c,VDACtest,62,r,true,811.9000000953674,2,r,h,4,,,
w1c,VDACtest,63,r,true,692.8999998569489,1,g,v,3,,,
w1c,VDACtest,64,r,true,908.8000001907349,1,g,h,0,,,
w1c,VDACtest,65,r,false,851.7000000476837,1,g,v,3,,,
w1c,VDACtest,66,r,true,715.5999999046326,2,r,h,4,,,
w1c,VDACtest,67,r,true,533.5,1,g,h,3,,,
w1c,VDACtest,68,r,null,null,2,r,h,2,,,
w1c,VDACtest,69,r,null,null,1,g,h,1,,,
w1c,VDACtest,70,r,true,433,1,g,v,5,,,
w1c,VDACtest,71,r,true,875.3999998569489,1,g,v,4,,,
w1c,VDACtest,72,r,true,524.9000000953674,2,r,h,4,,,
w1c,VDACtest,73,r,true,708.3999998569489,1,g,v,0,,,
w1c,VDACtest,74,r,null,null,1,g,h,5,,,
w1c,VDACtest,75,r,true,711.7999999523163,2,r,v,3,,,
w1c,VDACtest,76,r,true,754.8999998569489,1,g,h,1,,,
w1c,VDACtest,77,r,true,605.5,1,g,v,0,,,
w1c,VDACtest,78,r,false,548,2,r,v,3,,,
w1c,VDACtest,79,r,false,843,1,g,h,2,,,
w1c,VDACtest,80,r,true,946.2000000476837,1,g,h,0,,,
w1c,VDACtest,81,r,true,539.7999999523163,2,r,h,5,,,
w1c,VDACtest,82,r,true,748.2000000476837,1,g,v,4,,,
w1c,VDACtest,83,r,false,972.3999998569489,1,g,v,0,,,
w1c,VDACtest,84,r,null,null,2,r,v,2,,,
w1c,VDACtest,85,r,true,1001,2,r,v,2,,,
w1c,VDACtest,86,r,true,796,2,r,h,2,,,
w1c,VDACtest,87,r,true,516.1999998092651,2,r,v,5,,,
w1c,VDACtest,88,r,true,778.3999998569489,1,g,h,5,,,
w1c,VDACtest,89,r,true,844,1,g,h,4,,,
w1c,VDACtest,90,r,false,997.1999998092651,1,g,h,1,,,
w1c,VDACtest,91,r,true,796.2999999523163,1,g,h,2,,,
w1c,VDACtest,92,r,true,875.5,2,r,v,5,,,
w1c,VDACtest,93,r,true,491.7999999523163,1,g,v,5,,,
w1c,VDACtest,94,r,false,700.2000000476837,2,r,v,1,,,
w1c,VDACtest,95,r,true,691.1999998092651,2,r,h,4,,,
w1c,VDACtest,96,r,true,837,1,g,v,1,,,
w1c,VDACtest,97,r,true,731.4000000953674,1,g,h,0,,,
w1c,VDACtest,98,r,false,925.0999999046326,1,g,v,4,,,
w1c,VDACtest,99,r,true,690.0999999046326,2,r,v,1,,,
w1c,VDACtest,100,r,true,506.59999990463257,1,g,v,5,,,
brk,brk,brk,brk,brk,brk,brk,brk,brk,brk,brk,brk,
w1c,VDACtest,101,r,true,955.9000000953674,1,g,h,3,,,
w1c,VDACtest,102,r,false,674.8999998569489,1,g,h,1,,,
w1c,VDACtest,103,r,true,652.7999999523163,2,r,v,0,,,
w1c,VDACtest,104,r,true,668.0999999046326,2,r,h,3,,,
w1c,VDACtest,105,r,true,579.5,1,g,v,4,,,
w1c,VDACtest,106,r,true,468.59999990463257,1,g,v,4,,,
w1c,VDACtest,107,r,true,725,1,g,h,2,,,
w1c,VDACtest,108,r,true,626.2999999523163,1,g,h,4,,,
w1c,VDACtest,109,r,true,956,2,r,h,2,,,
w1c,VDACtest,110,r,true,651.4000000953674,1,g,v,1,,,
w1c,VDACtest,111,r,true,811.2000000476837,1,g,v,0,,,
w1c,VDACtest,112,r,true,586,2,r,h,1,,,
w1c,VDACtest,113,r,true,612,1,g,h,1,,,
w1c,VDACtest,114,r,true,595.2999999523163,2,r,h,3,,,
w1c,VDACtest,115,r,false,740.1000001430511,2,r,h,0,,,
w1c,VDACtest,116,r,true,700.8999998569489,2,r,h,2,,,
w1c,VDACtest,117,r,true,611,2,r,h,5,,,
w1c,VDACtest,118,r,true,643.7000000476837,2,r,v,0,,,
w1c,VDACtest,119,r,true,787.2999999523163,1,g,v,4,,,
w1c,VDACtest,120,r,null,null,1,g,v,2,,,
w1c,VDACtest,121,r,true,536,2,r,v,4,,,
w1c,VDACtest,122,r,false,677,1,g,h,5,,,
w1c,VDACtest,123,r,true,588.7000000476837,1,g,h,5,,,
w1c,VDACtest,124,r,true,884.6000001430511,2,r,h,0,,,
w1c,VDACtest,125,r,true,692,2,r,v,1,,,
w1c,VDACtest,126,r,true,698.0999999046326,2,r,h,2,,,
w1c,VDACtest,127,r,true,532.0999999046326,2,r,v,1,,,
w1c,VDACtest,128,r,true,611.5999999046326,1,g,v,1,,,
w1c,VDACtest,129,r,true,595.6999998092651,2,r,h,5,,,
w1c,VDACtest,130,r,true,853,1,g,h,0,,,
w1c,VDACtest,131,r,true,621.0999999046326,1,g,h,5,,,
w1c,VDACtest,132,r,null,null,2,r,h,5,,,
w1c,VDACtest,133,r,true,511.60000014305115,2,r,h,4,,,
w1c,VDACtest,134,r,true,588,2,r,v,5,,,
w1c,VDACtest,135,r,true,771,1,g,v,0,,,
w1c,VDACtest,136,r,true,579.5,2,r,h,5,,,
w1c,VDACtest,137,r,true,861.2999999523163,1,g,h,1,,,
w1c,VDACtest,138,r,true,563.6000001430511,1,g,v,2,,,
w1c,VDACtest,139,r,true,618,1,g,h,2,,,
w1c,VDACtest,140,r,true,677.7999999523163,2,r,h,3,,,
w1c,VDACtest,141,r,true,604.0999999046326,1,g,h,2,,,
w1c,VDACtest,142,r,true,618.2999999523163,2,r,v,3,,,
w1c,VDACtest,143,r,true,716,2,r,h,0,,,
w1c,VDACtest,144,r,true,482.7999999523163,1,g,v,3,,,
w1c,VDACtest,145,r,true,628.1000001430511,2,r,v,0,,,
w1c,VDACtest,146,r,true,965.7999999523163,1,g,h,0,,,
w1c,VDACtest,147,r,true,450.2999999523163,1,g,v,4,,,
w1c,VDACtest,148,r,true,563.5999999046326,2,r,h,1,,,
w1c,VDACtest,149,r,false,587.2000000476837,2,r,v,3,,,
w1c,VDACtest,150,r,true,579,2,r,v,0,,,
brk,brk,brk,brk,brk,brk,brk,brk,brk,brk,brk,brk,
w1c,VDACtest,151,r,true,765.2999999523163,2,r,v,0,,,
w1c,VDACtest,152,r,true,587,1,g,h,4,,,
w1c,VDACtest,153,r,true,587.7999999523163,1,g,h,3,,,
w1c,VDACtest,154,r,true,482.60000014305115,2,r,v,0,,,
w1c,VDACtest,155,r,true,587.6999998092651,1,g,h,5,,,
w1c,VDACtest,156,r,true,547.3999998569489,1,g,h,3,,,
w1c,VDACtest,157,r,true,540.9000000953674,2,r,v,2,,,
w1c,VDACtest,158,r,true,539.6999998092651,2,r,v,4,,,
w1c,VDACtest,159,r,true,522.3999998569489,2,r,h,2,,,
w1c,VDACtest,160,r,true,484.89999985694885,2,r,h,3,,,
w1c,VDACtest,161,r,true,418.7000000476837,2,r,h,3,,,
w1c,VDACtest,162,r,true,522.9000000953674,1,g,h,4,,,
w1c,VDACtest,163,r,true,980.7999999523163,2,r,v,1,,,
w1c,VDACtest,164,r,true,655.7000000476837,1,g,v,5,,,
w1c,VDACtest,165,r,null,null,1,g,v,3,,,
w1c,VDACtest,166,r,false,577.1000001430511,2,r,h,1,,,
w1c,VDACtest,167,r,true,546.2999999523163,1,g,v,1,,,
w1c,VDACtest,168,r,true,581.5,1,g,h,5,,,
w1c,VDACtest,169,r,true,540.0999999046326,1,g,v,2,,,
w1c,VDACtest,170,r,true,547.2000000476837,1,g,v,2,,,
w1c,VDACtest,171,r,true,564.5999999046326,2,r,v,4,,,
w1c,VDACtest,172,r,true,516.7000000476837,2,r,v,1,,,
w1c,VDACtest,173,r,true,531.5,2,r,h,5,,,
w1c,VDACtest,174,r,true,524.5,1,g,h,5,,,
w1c,VDACtest,175,r,true,476.7000000476837,2,r,v,5,,,
w1c,VDACtest,176,r,true,776.9000000953674,1,g,h,2,,,
w1c,VDACtest,177,r,false,596.3999998569489,1,g,h,0,,,
w1c,VDACtest,178,r,true,580.7999999523163,2,r,h,1,,,
w1c,VDACtest,179,r,true,794.6999998092651,2,r,v,2,,,
w1c,VDACtest,180,r,true,508,1,g,h,4,,,
w1c,VDACtest,181,r,false,594.7999999523163,2,r,v,2,,,
w1c,VDACtest,182,r,true,594.7000000476837,1,g,v,0,,,
w1c,VDACtest,183,r,true,612.2000000476837,2,r,v,0,,,
w1c,VDACtest,184,r,true,411.2999999523163,2,r,h,4,,,
w1c,VDACtest,185,r,true,466,1,g,h,4,,,
w1c,VDACtest,186,r,true,594.4000000953674,1,g,v,0,,,
w1c,VDACtest,187,r,true,475.2000000476837,1,g,h,1,,,
w1c,VDACtest,188,r,true,451.5,1,g,v,5,,,
w1c,VDACtest,189,r,true,787.3000001907349,1,g,h,0,,,
w1c,VDACtest,190,r,true,595.5,2,r,h,2,,,
w1c,VDACtest,191,r,false,475.89999985694885,2,r,h,0,,,
w1c,VDACtest,192,r,true,618.7000000476837,1,g,v,2,,,
w1c,VDACtest,193,r,false,470.90000009536743,2,r,v,2,,,
w1c,VDACtest,194,r,true,723.7999999523163,2,r,v,3,,,
w1c,VDACtest,195,r,true,547.2999999523163,1,g,v,3,,,
w1c,VDACtest,196,r,true,603.5,2,r,h,3,,,
w1c,VDACtest,197,r,false,693.1000001430511,1,g,h,1,,,
w1c,VDACtest,198,r,true,492.2999999523163,1,g,v,5,,,
w1c,VDACtest,199,r,true,458.60000014305115,2,r,v,5,,,
w1c,VDACtest,200,r,true,459.19999980926514,2,r,v,5,,,
w1c,RSVPtrain,0,r,null,null,2,r,,3,2,1,
w1c,RSVPtrain,0,r,false,813.7000000476837,1,g,,1,0,1,
w1c,RSVPtrain,0,r,false,1084.8999998569489,1,g,,3,0,1,
w1c,RSVPtrain,0,r,true,1116.6000001430511,0,b,,1,3,0,
w1c,RSVPtrain,0,r,true,786.0999999046326,0,b,,3,3,0,
w1c,RSVPtrain,0,r,true,846.2000000476837,0,b,,0,3,0,
w1c,RSVPtrain,0,r,false,491.69999980926514,1,g,,2,2,2,
w1c,RSVPtrain,0,r,true,1196.2000000476837,2,r,,1,1,2,
w1c,RSVPtrain,0,r,true,579.1000001430511,1,g,,3,1,1,
w1c,RSVPtrain,0,r,true,858.7000000476837,2,r,,0,0,2,
w1c,RSVPtest,1,r,false,1053.6999998092651,1,g,,3,0,1,
w1c,RSVPtest,2,r,true,708.7999999523163,2,r,,1,2,1,
w1c,RSVPtest,3,r,true,690.8000001907349,1,g,,2,0,1,
w1c,RSVPtest,4,r,true,668.0999999046326,2,r,,3,0,1,
w1c,RSVPtest,5,r,true,661.9000000953674,1,g,,2,2,2,
w1c,RSVPtest,6,r,true,629,0,b,,3,3,0,
w1c,RSVPtest,7,r,true,720.1000001430511,0,b,,2,3,0,
w1c,RSVPtest,8,r,true,645.6000001430511,0,b,,3,3,0,
w1c,RSVPtest,9,r,true,604.8999998569489,0,b,,3,3,0,
w1c,RSVPtest,10,r,false,870.2000000476837,2,r,,0,2,1,
w1c,RSVPtest,11,r,true,959.5,1,g,,3,2,1,
w1c,RSVPtest,12,r,true,924.3999998569489,2,r,,3,2,1,
w1c,RSVPtest,13,r,true,839.1000001430511,2,r,,2,1,1,
w1c,RSVPtest,14,r,true,772.8999998569489,2,r,,1,0,1,
w1c,RSVPtest,15,r,true,543.2000000476837,0,b,,3,3,0,
w1c,RSVPtest,16,r,true,670,1,g,,3,0,1,
w1c,RSVPtest,17,r,true,670.9000000953674,2,r,,2,1,1,
w1c,RSVPtest,18,r,true,652.0999999046326,0,b,,3,3,0,
w1c,RSVPtest,19,r,false,1054.2000000476837,2,r,,2,2,2,
w1c,RSVPtest,20,r,true,1005.0999999046326,0,b,,3,3,0,
w1c,RSVPtest,21,r,false,662.3999998569489,0,b,,1,3,0,
w1c,RSVPtest,22,r,false,718.4000000953674,2,r,,1,1,2,
w1c,RSVPtest,23,r,true,1017.7000000476837,0,b,,3,3,0,
w1c,RSVPtest,24,r,false,926.7000000476837,2,r,,1,1,2,
w1c,RSVPtest,25,r,true,1070.4000000953674,1,g,,0,1,1,
w1c,RSVPtest,26,r,false,709.8000001907349,0,b,,1,3,0,
w1c,RSVPtest,27,r,false,927.2999999523163,1,g,,2,1,1,
w1c,RSVPtest,28,r,false,588.3999998569489,2,r,,2,0,1,
w1c,RSVPtest,29,r,true,1062.5,0,b,,3,3,0,
w1c,RSVPtest,30,r,false,637.0999999046326,2,r,,1,2,1,
w1c,RSVPtest,31,r,true,693.2000000476837,0,b,,0,3,0,
w1c,RSVPtest,32,r,true,1102.3999998569489,0,b,,2,3,0,
w1c,RSVPtest,33,r,true,902.2000000476837,0,b,,1,3,0,
w1c,RSVPtest,34,r,true,748.5,2,r,,0,1,1,
w1c,RSVPtest,35,r,true,780.8999998569489,2,r,,3,1,1,
w1c,RSVPtest,36,r,true,900.2999999523163,1,g,,1,2,1,
w1c,RSVPtest,37,r,true,678.7999999523163,0,b,,2,3,0,
w1c,RSVPtest,38,r,true,508.2000000476837,2,r,,3,1,1,
w1c,RSVPtest,39,r,true,501.5,1,g,,3,2,1,
w1c,RSVPtest,40,r,false,637.2000000476837,2,r,,0,0,2,
w1c,RSVPtest,41,r,false,846.6999998092651,1,g,,1,0,1,
w1c,RSVPtest,42,r,true,1021.5,2,r,,0,0,2,
w1c,RSVPtest,43,r,true,837.6999998092651,2,r,,3,2,1,
w1c,RSVPtest,44,r,false,892.2999999523163,1,g,,2,0,1,
w1c,RSVPtest,45,r,true,2391.2999999523163,2,r,,0,2,1,
w1c,RSVPtest,46,r,false,774.1000001430511,1,g,,0,1,1,
w1c,RSVPtest,47,r,false,775,2,r,,0,2,1,
w1c,RSVPtest,48,r,true,477.09999990463257,2,r,,0,2,1,
w1c,RSVPtest,49,r,true,718.2000000476837,0,b,,3,3,0,
w1c,RSVPtest,50,r,true,701.8000001907349,2,r,,3,2,1,
w1c,RSVPtest,51,r,true,812.7000000476837,0,b,,3,3,0,
w1c,RSVPtest,52,r,false,724.8000001907349,2,r,,1,2,1,
w1c,RSVPtest,53,r,false,486.69999980926514,1,g,,0,2,1,
w1c,RSVPtest,54,r,false,766.9000000953674,2,r,,3,2,1,
w1c,RSVPtest,55,r,false,754.3999998569489,2,r,,2,2,2,
w1c,RSVPtest,56,r,false,548.2999999523163,2,r,,1,1,2,
w1c,RSVPtest,57,r,true,830.1000001430511,1,g,,3,0,1,
w1c,RSVPtest,58,r,false,915.9000000953674,0,b,,2,3,0,
w1c,RSVPtest,59,r,true,1317.8000001907349,1,g,,1,0,1,
w1c,RSVPtest,60,r,true,661.1999998092651,1,g,,3,0,1,
brk,brk,brk,brk,brk,brk,brk,brk,brk,brk,brk,brk,
w1c,RSVPtest,61,r,null,null,0,b,,3,3,0,
w1c,RSVPtest,62,r,null,null,0,b,,3,3,0,
w1c,RSVPtest,63,r,null,null,1,g,,1,1,2,
w1c,RSVPtest,64,r,null,null,1,g,,3,1,1,
w1c,RSVPtest,65,r,null,null,0,b,,0,3,0,
attCheck,attCheck,attCheck,attCheck,attCheck,attCheck,attCheck,attCheck,attCheck,attCheck,attCheck,attCheck,
w1c,RSVPtest,66,r,null,null,1,g,,3,2,1,
w1c,RSVPtest,67,r,true,538.0999999046326,1,g,,3,0,1,
w1c,RSVPtest,68,r,true,491.2999999523163,2,r,,3,1,1,
w1c,RSVPtest,69,r,false,595.6000001430511,0,b,,0,3,0,
w1c,RSVPtest,70,r,false,517,0,b,,0,3,0,
w1c,RSVPtest,71,r,false,557.1000001430511,0,b,,3,3,0,
w1c,RSVPtest,72,r,null,null,0,b,,1,3,0,
w1c,RSVPtest,73,r,true,1358.5,1,g,,1,2,1,
w1c,RSVPtest,74,r,true,983,1,g,,3,2,1,
w1c,RSVPtest,75,r,true,629.7000000476837,1,g,,3,2,1,
w1c,RSVPtest,76,r,false,596.5,1,g,,0,0,2,
w1c,RSVPtest,77,r,false,670.2000000476837,1,g,,1,1,2,
w1c,RSVPtest,78,r,false,765.2999999523163,0,b,,2,3,0,
w1c,RSVPtest,79,r,true,1109.1000001430511,1,g,,0,2,1,
w1c,RSVPtest,80,r,false,597.0999999046326,1,g,,0,2,1,
w1c,RSVPtest,81,r,true,572.2999999523163,0,b,,3,3,0,
w1c,RSVPtest,82,r,true,510.30000019073486,2,r,,3,1,1,
w1c,RSVPtest,83,r,true,523.2000000476837,0,b,,3,3,0,
w1c,RSVPtest,84,r,true,539.8999998569489,2,r,,2,2,2,
w1c,RSVPtest,85,r,true,488.7000000476837,2,r,,3,1,1,
w1c,RSVPtest,86,r,false,437.2999999523163,1,g,,1,1,2,
w1c,RSVPtest,87,r,false,470.59999990463257,1,g,,1,0,1,
w1c,RSVPtest,88,r,false,684.2999999523163,1,g,,1,1,2,
w1c,RSVPtest,89,r,true,708.3999998569489,1,g,,3,1,1,
w1c,RSVPtest,90,r,false,525.7000000476837,2,r,,2,2,2,
w1c,RSVPtest,91,r,false,571,0,b,,3,3,0,
w1c,RSVPtest,92,r,false,771.0999999046326,2,r,,1,0,1,
w1c,RSVPtest,93,r,false,883.6000001430511,0,b,,2,3,0,
w1c,RSVPtest,94,r,false,721.7000000476837,2,r,,3,0,1,
w1c,RSVPtest,95,r,true,852.7999999523163,0,b,,3,3,0,
w1c,RSVPtest,96,r,true,772.1000001430511,1,g,,0,1,1,
w1c,RSVPtest,97,r,false,508.2000000476837,1,g,,0,0,2,
w1c,RSVPtest,98,r,true,682.3999998569489,1,g,,3,2,1,
w1c,RSVPtest,99,r,false,509.89999985694885,1,g,,1,2,1,
w1c,RSVPtest,100,r,true,612.7000000476837,2,r,,2,1,1,
w1c,RSVPtest,101,r,true,620.3999998569489,1,g,,3,0,1,
w1c,RSVPtest,102,r,true,555,2,r,,1,1,2,
w1c,RSVPtest,103,r,false,668.8999998569489,1,g,,2,1,1,
w1c,RSVPtest,104,r,true,724.8000001907349,2,r,,3,2,1,
w1c,RSVPtest,105,r,true,1236.4000000953674,1,g,,2,1,1,
w1c,RSVPtest,106,r,false,668.7999999523163,1,g,,1,2,1,
w1c,RSVPtest,107,r,false,613.5999999046326,1,g,,0,0,2,
w1c,RSVPtest,108,r,true,643.0999999046326,1,g,,2,2,2,
w1c,RSVPtest,109,r,true,932.2000000476837,1,g,,3,1,1,
w1c,RSVPtest,110,r,false,800.7999999523163,2,r,,0,0,2,
w1c,RSVPtest,111,r,false,932.2000000476837,0,b,,2,3,0,
w1c,RSVPtest,112,r,true,696.0999999046326,2,r,,3,0,1,
w1c,RSVPtest,113,r,true,653.2999999523163,1,g,,3,2,1,
w1c,RSVPtest,114,r,true,490.2999999523163,1,g,,3,2,1,
w1c,RSVPtest,115,r,true,556.2000000476837,0,b,,3,3,0,
w1c,RSVPtest,116,r,false,572.6000001430511,2,r,,1,2,1,
w1c,RSVPtest,117,r,false,628.5,1,g,,2,0,1,
w1c,RSVPtest,118,r,true,628.4000000953674,2,r,,3,1,1,
w1c,RSVPtest,119,r,true,644.2000000476837,0,b,,2,3,0,
w1c,RSVPtest,120,r,false,606.2000000476837,0,b,,1,3,0,
brk,brk,brk,brk,brk,brk,brk,brk,brk,brk,brk,brk,
w1c,RSVPtest,121,r,false,600.2999999523163,2,r,,0,2,1,
w1c,RSVPtest,122,r,true,539.2000000476837,2,r,,3,0,1,
w1c,RSVPtest,123,r,true,525.7000000476837,1,g,,3,1,1,
w1c,RSVPtest,124,r,false,473.80000019073486,2,r,,0,1,1,
w1c,RSVPtest,125,r,true,387.2999999523163,0,b,,2,3,0,
w1c,RSVPtest,126,r,true,579,2,r,,3,2,1,
w1c,RSVPtest,127,r,false,475.2999999523163,1,g,,0,2,1,
w1c,RSVPtest,128,r,true,548.0999999046326,0,b,,1,3,0,
w1c,RSVPtest,129,r,false,429.5,2,r,,1,1,2,
w1c,RSVPtest,130,r,false,699.0999999046326,2,r,,0,1,1,
w1c,RSVPtest,131,r,true,585.5999999046326,2,r,,2,0,1,
w1c,RSVPtest,132,r,false,523,0,b,,0,3,0,
w1c,RSVPtest,133,r,false,852.1000001430511,0,b,,1,3,0,
w1c,RSVPtest,134,r,true,706.5999999046326,0,b,,0,3,0,
w1c,RSVPtest,135,r,true,557.5,2,r,,0,0,2,
w1c,RSVPtest,136,r,false,651.2999999523163,1,g,,3,1,1,
w1c,RSVPtest,137,r,false,579.7000000476837,2,r,,1,2,1,
w1c,RSVPtest,138,r,true,1060.2000000476837,2,r,,3,1,1,
w1c,RSVPtest,139,r,true,692.4000000953674,2,r,,3,1,1,
w1c,RSVPtest,140,r,false,674.5999999046326,1,g,,0,0,2,
w1c,RSVPtest,141,r,true,442.5,1,g,,2,0,1,
w1c,RSVPtest,142,r,false,813.2999999523163,1,g,,0,2,1,
w1c,RSVPtest,143,r,false,516.8999998569489,1,g,,1,0,1,
w1c,RSVPtest,144,r,true,506.40000009536743,2,r,,3,0,1,
w1c,RSVPtest,145,r,false,756.7999999523163,0,b,,0,3,0,
w1c,RSVPtest,146,r,false,577.7000000476837,0,b,,0,3,0,
w1c,RSVPtest,147,r,true,604.2999999523163,2,r,,0,1,1,
w1c,RSVPtest,148,r,false,709,1,g,,1,0,1,
w1c,RSVPtest,149,r,true,610.7000000476837,1,g,,2,1,1,
w1c,RSVPtest,150,r,true,419.5,1,g,,0,1,1,
w1c,RSVPtest,151,r,true,828.7000000476837,1,g,,3,1,1,
w1c,RSVPtest,152,r,true,539.7000000476837,1,g,,0,1,1,
w1c,RSVPtest,153,r,false,651.2000000476837,2,r,,2,0,1,
w1c,RSVPtest,154,r,true,482,2,r,,3,2,1,
w1c,RSVPtest,155,r,true,370.39999985694885,1,g,,2,1,1,
w1c,RSVPtest,156,r,false,609.8999998569489,0,b,,2,3,0,
w1c,RSVPtest,157,r,true,650.7999999523163,2,r,,3,1,1,
w1c,RSVPtest,158,r,true,820.4000000953674,1,g,,3,1,1,
w1c,RSVPtest,159,r,false,716.0999999046326,2,r,,2,0,1,
w1c,RSVPtest,160,r,true,907.5,2,r,,3,0,1,
w1c,RSVPtest,161,r,true,657.4000000953674,2,r,,0,2,1,
w1c,RSVPtest,162,r,true,544.5999999046326,1,g,,2,0,1,
w1c,RSVPtest,163,r,true,572.2000000476837,2,r,,0,0,2,
w1c,RSVPtest,164,r,false,835,2,r,,3,2,1,
w1c,RSVPtest,165,r,true,530.7999999523163,2,r,,3,2,1,
w1c,RSVPtest,166,r,true,767.6000001430511,0,b,,2,3,0,
w1c,RSVPtest,167,r,false,507.7000000476837,1,g,,1,2,1,
w1c,RSVPtest,168,r,false,881.2000000476837,1,g,,2,2,2,
w1c,RSVPtest,169,r,true,315.5,2,r,,2,0,1,
w1c,RSVPtest,170,r,false,530.0999999046326,1,g,,2,2,2,
w1c,RSVPtest,171,r,true,948.5,2,r,,3,0,1,
w1c,RSVPtest,172,r,true,747.5,1,g,,0,0,2,
w1c,RSVPtest,173,r,true,493.2999999523163,2,r,,3,0,1,
w1c,RSVPtest,174,r,true,714.6000001430511,2,r,,3,0,1,
w1c,RSVPtest,175,r,true,995.7000000476837,1,g,,1,1,2,
w1c,RSVPtest,176,r,true,716.7000000476837,1,g,,3,2,1,
w1c,RSVPtest,177,r,true,715.2000000476837,0,b,,1,3,0,
w1c,RSVPtest,178,r,true,634.6000001430511,0,b,,3,3,0,
w1c,RSVPtest,179,r,false,803.7000000476837,0,b,,2,3,0,
w1c,RSVPtest,180,r,true,634.4000000953674,1,g,,3,0,1,
brk,brk,brk,brk,brk,brk,brk,brk,brk,brk,brk,brk,
w1c,RSVPtest,181,r,true,653.5,1,g,,0,0,2,
w1c,RSVPtest,182,r,true,561.4000000953674,1,g,,3,1,1,
w1c,RSVPtest,183,r,true,597.1000001430511,2,r,,1,0,1,
w1c,RSVPtest,184,r,true,778,1,g,,3,2,1,
w1c,RSVPtest,185,r,false,715.8999998569489,1,g,,1,1,2,
w1c,RSVPtest,186,r,false,599.2999999523163,1,g,,1,2,1,
w1c,RSVPtest,187,r,true,2459,2,r,,2,0,1,
w1c,RSVPtest,188,r,false,538.4000000953674,2,r,,0,1,1,
w1c,RSVPtest,189,r,true,540.5,1,g,,3,0,1,
w1c,RSVPtest,190,r,true,490.7999999523163,2,r,,3,0,1,
w1c,RSVPtest,191,r,true,553.5999999046326,0,b,,3,3,0,
w1c,RSVPtest,192,r,true,698.8999998569489,1,g,,0,2,1,
w1c,RSVPtest,193,r,true,604.5999999046326,2,r,,3,0,1,
w1c,RSVPtest,194,r,true,656.7999999523163,2,r,,3,1,1,
w1c,RSVPtest,195,r,true,688.5999999046326,1,g,,3,1,1,
w1c,RSVPtest,196,r,true,826.5999999046326,2,r,,1,0,1,
w1c,RSVPtest,197,r,false,737.2000000476837,2,r,,1,1,2,
w1c,RSVPtest,198,r,true,746.2999999523163,2,r,,3,2,1,
w1c,RSVPtest,199,r,true,940.3999998569489,2,r,,2,2,2,
w1c,RSVPtest,200,r,true,572.2999999523163,2,r,,3,1,1,
w1c,RSVPtest,201,r,true,555,2,r,,0,0,2,
w1c,RSVPtest,202,r,false,610.7000000476837,2,r,,1,2,1,
w1c,RSVPtest,203,r,false,911.8999998569489,0,b,,3,3,0,
w1c,RSVPtest,204,r,true,1058.6000001430511,1,g,,2,0,1,
w1c,RSVPtest,205,r,true,916.6999998092651,2,r,,2,1,1,
w1c,RSVPtest,206,r,true,601,0,b,,3,3,0,
w1c,RSVPtest,207,r,false,548.0999999046326,1,g,,2,2,2,
w1c,RSVPtest,208,r,true,651.5,1,g,,1,0,1,
w1c,RSVPtest,209,r,false,651.9000000953674,2,r,,1,0,1,
w1c,RSVPtest,210,r,true,652.0999999046326,1,g,,3,0,1,
w1c,RSVPtest,211,r,false,836.7000000476837,0,b,,1,3,0,
w1c,RSVPtest,212,r,false,641.9000000953674,2,r,,2,1,1,
w1c,RSVPtest,213,r,true,481.59999990463257,1,g,,3,1,1,
w1c,RSVPtest,214,r,false,603.3999998569489,0,b,,0,3,0,
w1c,RSVPtest,215,r,true,663.5,2,r,,3,1,1,
w1c,RSVPtest,216,r,false,1201.1000001430511,0,b,,1,3,0,
w1c,RSVPtest,217,r,false,655.3999998569489,1,g,,3,2,1,
w1c,RSVPtest,218,r,false,722.2000000476837,0,b,,0,3,0,
w1c,RSVPtest,219,r,true,426.89999985694885,0,b,,0,3,0,
w1c,RSVPtest,220,r,false,595.7000000476837,2,r,,2,1,1,
w1c,RSVPtest,221,r,false,546,2,r,,2,2,2,
w1c,RSVPtest,222,r,true,426.09999990463257,1,g,,0,1,1,
w1c,RSVPtest,223,r,true,633.1000001430511,0,b,,3,3,0,
w1c,RSVPtest,224,r,false,595.5999999046326,0,b,,1,3,0,
w1c,RSVPtest,225,r,true,697.2999999523163,2,r,,3,2,1,
w1c,RSVPtest,226,r,true,569.3999998569489,2,r,,3,2,1,
w1c,RSVPtest,227,r,true,456.5,1,g,,3,1,1,
w1c,RSVPtest,228,r,false,744.7000000476837,0,b,,0,3,0,
w1c,RSVPtest,229,r,true,528.2999999523163,1,g,,3,0,1,
w1c,RSVPtest,230,r,true,631.7000000476837,1,g,,3,0,1,
w1c,RSVPtest,231,r,true,931,1,g,,2,2,2,
w1c,RSVPtest,232,r,true,504.60000014305115,1,g,,3,1,1,
w1c,RSVPtest,233,r,false,723.5999999046326,0,b,,3,3,0,
w1c,RSVPtest,234,r,true,930.8999998569489,0,b,,1,3,0,
w1c,RSVPtest,235,r,true,706.5999999046326,2,r,,1,0,1,
w1c,RSVPtest,236,r,true,482.2000000476837,1,g,,3,0,1,
w1c,RSVPtest,237,r,true,524.2000000476837,1,g,,3,2,1,
w1c,RSVPtest,238,r,true,498.40000009536743,2,r,,3,0,1,
w1c,RSVPtest,239,r,false,547.2999999523163,2,r,,0,1,1,
w1c,RSVPtest,240,r,true,689.1999998092651,1,g,,2,1,1,
