subID,trialType,trialNum,cntBalance,correct,rt,rwdType,tgtCol,tgtDir,tgtPos,colPos,colMatch,
snp,VDACtrain,0,r,null,null,1,g,v,5,,,
snp,VDACtrain,0,r,true,815.4000000953674,1,g,v,0,,,
snp,VDACtrain,0,r,true,672.2999999523163,2,r,h,2,,,
snp,VDACtrain,0,r,true,664.2000000476837,2,r,h,0,,,
snp,VDACtrain,0,r,true,537.5,2,r,v,3,,,
snp,VDACtrain,0,r,true,575.7000000476837,2,r,v,4,,,
snp,VDACtrain,0,r,true,967.6000001430511,2,r,h,1,,,
snp,VDACtrain,0,r,true,496.7000000476837,1,g,h,3,,,
snp,VDACtrain,0,r,false,601,1,g,v,2,,,
snp,VDACtrain,0,r,true,569,1,g,h,5,,,
snp,VDACtest,1,r,true,675.5999999046326,1,g,h,2,,,
snp,VDACtest,2,r,true,520.4000000953674,1,g,h,2,,,
snp,VDACtest,3,r,true,462.7999999523163,1,g,v,0,,,
snp,VDACtest,4,r,true,592.5,1,g,v,4,,,
snp,VDACtest,5,r,true,569.1000001430511,2,r,v,3,,,
snp,VDACtest,6,r,true,591.4000000953674,2,r,h,0,,,
snp,VDACtest,7,r,true,616.4000000953674,1,g,h,0,,,
snp,VDACtest,8,r,true,777.2999999523163,1,g,v,2,,,
snp,VDACtest,9,r,true,486.09999990463257,1,g,v,0,,,
snp,VDACtest,10,r,true,469.7999999523163,1,g,v,0,,,
snp,VDACtest,11,r,true,528.2999999523163,1,g,v,2,,,
snp,VDACtest,12,r,true,497.5,1,g,v,3,,,
snp,VDACtest,13,r,true,664.5999999046326,1,g,v,4,,,
snp,VDACtest,14,r,true,417.2999999523163,1,g,v,0,,,
snp,VDACtest,15,r,true,591.5,2,r,v,4,,,
snp,VDACtest,16,r,true,615.4000000953674,1,g,h,5,,,
snp,VDACtest,17,r,true,584.2000000476837,1,g,h,0,,,
snp,VDACtest,18,r,true,527.5,1,g,h,3,,,
snp,VDACtest,19,r,true,617.3999998569489,2,r,v,0,,,
snp,VDACtest,20,r,true,503.7999999523163,2,r,h,0,,,
snp,VDACtest,21,r,true,785.4000000953674,2,r,v,1,,,
snp,VDACtest,22,r,true,504.5,2,r,v,5,,,
snp,VDACtest,23,r,true,615.6000001430511,2,r,h,2,,,
snp,VDACtest,24,r,true,519.4000000953674,2,r,h,5,,,
snp,VDACtest,25,r,true,729,2,r,h,4,,,
snp,VDACtest,26,r,true,511.90000009536743,2,r,v,5,,,
snp,VDACtest,27,r,true,704,2,r,v,3,,,
snp,VDACtest,28,r,true,640,1,g,h,4,,,
snp,VDACtest,29,r,true,655.5,2,r,v,4,,,
snp,VDACtest,30,r,true,848.5,2,r,v,0,,,
snp,VDACtest,31,r,null,null,2,r,v,1,,,
snp,VDACtest,32,r,true,555,2,r,h,0,,,
snp,VDACtest,33,r,true,553.6000001430511,1,g,h,1,,,
snp,VDACtest,34,r,true,719.2999999523163,2,r,h,2,,,
snp,VDACtest,35,r,true,631.7999999523163,1,g,h,4,,,
snp,VDACtest,36,r,true,464.5,1,g,h,0,,,
snp,VDACtest,37,r,true,432.2000000476837,1,g,h,3,,,
snp,VDACtest,38,r,true,533.5,2,r,h,4,,,
snp,VDACtest,39,r,true,479.60000014305115,1,g,h,0,,,
snp,VDACtest,40,r,true,528.8999998569489,1,g,v,5,,,
snp,VDACtest,41,r,true,590.5,1,g,v,2,,,
snp,VDACtest,42,r,true,806.7999999523163,2,r,h,1,,,
snp,VDACtest,43,r,true,632.9000000953674,2,r,h,3,,,
snp,VDACtest,44,r,true,558.4000000953674,1,g,v,1,,,
snp,VDACtest,45,r,true,616.0999999046326,1,g,h,5,,,
snp,VDACtest,46,r,true,719.6000001430511,2,r,h,1,,,
snp,VDACtest,47,r,true,464.80000019073486,1,g,v,5,,,
snp,VDACtest,48,r,true,558.5,1,g,h,5,,,
snp,VDACtest,49,r,true,576.5999999046326,1,g,h,2,,,
snp,VDACtest,50,r,true,638.6000001430511,2,r,h,3,,,
brk,brk,brk,brk,brk,brk,brk,brk,brk,brk,brk,brk,
snp,VDACtest,51,r,true,667.2999999523163,1,g,v,1,,,
snp,VDACtest,52,r,true,495.5,2,r,h,3,,,
snp,VDACtest,53,r,true,736,2,r,v,2,,,
snp,VDACtest,54,r,true,504.2000000476837,1,g,v,1,,,
snp,VDACtest,55,r,true,494.10000014305115,1,g,h,5,,,
snp,VDACtest,56,r,true,536.1000001430511,1,g,v,2,,,
snp,VDACtest,57,r,true,552.5,2,r,v,4,,,
snp,VDACtest,58,r,true,559.7000000476837,1,g,v,1,,,
snp,VDACtest,59,r,true,487.5,1,g,h,2,,,
snp,VDACtest,60,r,true,537,2,r,v,2,,,
snp,VDACtest,61,r,true,519.7000000476837,2,r,h,5,,,
snp,VDACtest,62,r,true,527.7999999523163,1,g,v,3,,,
snp,VDACtest,63,r,true,517.7999999523163,2,r,v,4,,,
snp,VDACtest,64,r,true,489.09999990463257,1,g,v,5,,,
snp,VDACtest,65,r,true,711.9000000953674,1,g,h,4,,,
snp,VDACtest,66,r,true,456.2999999523163,1,g,v,4,,,
snp,VDACtest,67,r,true,606.6000001430511,2,r,h,2,,,
snp,VDACtest,68,r,true,600.2000000476837,1,g,v,3,,,
snp,VDACtest,69,r,true,528.5,1,g,v,4,,,
snp,VDACtest,70,r,true,576.2000000476837,2,r,v,3,,,
snp,VDACtest,71,r,true,608.2999999523163,1,g,h,1,,,
snp,VDACtest,72,r,true,567.0999999046326,2,r,h,1,,,
snp,VDACtest,73,r,true,527,1,g,h,3,,,
snp,VDACtest,74,r,true,463.7000000476837,2,r,v,5,,,
snp,VDACtest,75,r,true,432.09999990463257,2,r,h,3,,,
snp,VDACtest,76,r,true,543.5,1,g,v,0,,,
snp,VDACtest,77,r,true,557.5999999046326,2,r,h,4,,,
snp,VDACtest,78,r,true,550.7999999523163,2,r,h,5,,,
snp,VDACtest,79,r,true,649,2,r,v,1,,,
snp,VDACtest,80,r,true,688,1,g,h,2,,,
snp,VDACtest,81,r,true,512.7999999523163,1,g,v,0,,,
snp,VDACtest,82,r,true,528.1000001430511,2,r,v,2,,,
snp,VDACtest,83,r,true,487.2000000476837,1,g,h,5,,,
snp,VDACtest,84,r,true,583.6000001430511,1,g,v,2,,,
snp,VDACtest,85,r,true,519.5,1,g,h,5,,,
snp,VDACtest,86,r,true,527.7000000476837,2,r,v,3,,,
snp,VDACtest,87,r,true,535.6000001430511,1,g,v,4,,,
snp,VDACtest,88,r,true,481.5,2,r,v,1,,,
snp,VDACtest,89,r,true,511.59999990463257,1,g,h,1,,,
snp,VDACtest,90,r,true,455.59999990463257,1,g,v,4,,,
snp,VDACtest,91,r,true,559.2000000476837,2,r,v,3,,,
snp,VDACtest,92,r,true,495.90000009536743,1,g,h,0,,,
snp,VDACtest,93,r,true,615.8999998569489,2,r,h,1,,,
snp,VDACtest,94,r,true,478.7000000476837,2,r,v,4,,,
snp,VDACtest,95,r,true,495,2,r,h,2,,,
snp,VDACtest,96,r,true,495,2,r,h,1,,,
snp,VDACtest,97,r,true,581.5,2,r,h,4,,,
snp,VDACtest,98,r,true,504.2999999523163,1,g,h,0,,,
snp,VDACtest,99,r,true,712.5,2,r,h,5,,,
snp,VDACtest,100,r,true,614.5999999046326,1,g,v,3,,,
brk,brk,brk,brk,brk,brk,brk,brk,brk,brk,brk,brk,
snp,VDACtest,101,r,true,711,2,r,h,5,,,
snp,VDACtest,102,r,true,583.2000000476837,2,r,h,3,,,
snp,VDACtest,103,r,true,670.7000000476837,1,g,h,4,,,
snp,VDACtest,104,r,true,490.2999999523163,2,r,h,3,,,
snp,VDACtest,105,r,true,526.0999999046326,2,r,v,1,,,
snp,VDACtest,106,r,true,488.7999999523163,2,r,h,0,,,
snp,VDACtest,107,r,true,441.09999990463257,1,g,v,5,,,
snp,VDACtest,108,r,true,445.2999999523163,1,g,h,5,,,
snp,VDACtest,109,r,true,543.3999998569489,2,r,h,1,,,
snp,VDACtest,110,r,true,488.39999985694885,1,g,v,0,,,
snp,VDACtest,111,r,true,545.4000000953674,1,g,v,2,,,
snp,VDACtest,112,r,true,567.6000001430511,2,r,v,2,,,
snp,VDACtest,113,r,true,428,2,r,v,0,,,
snp,VDACtest,114,r,true,463.30000019073486,2,r,v,2,,,
snp,VDACtest,115,r,true,562,1,g,h,4,,,
snp,VDACtest,116,r,true,456.7000000476837,1,g,v,1,,,
snp,VDACtest,117,r,true,543,2,r,h,0,,,
snp,VDACtest,118,r,true,503,2,r,h,2,,,
snp,VDACtest,119,r,true,439.69999980926514,2,r,v,1,,,
snp,VDACtest,120,r,true,454.59999990463257,2,r,v,0,,,
snp,VDACtest,121,r,true,511.60000014305115,1,g,h,1,,,
snp,VDACtest,122,r,true,527.5999999046326,1,g,h,5,,,
snp,VDACtest,123,r,true,495.7999999523163,2,r,h,3,,,
snp,VDACtest,124,r,true,592,2,r,h,4,,,
snp,VDACtest,125,r,true,512,2,r,v,1,,,
snp,VDACtest,126,r,true,656.2999999523163,1,g,h,2,,,
snp,VDACtest,127,r,true,504.2000000476837,2,r,v,1,,,
snp,VDACtest,128,r,true,511,2,r,v,2,,,
snp,VDACtest,129,r,true,517.9000000953674,1,g,v,1,,,
snp,VDACtest,130,r,true,502.7999999523163,1,g,v,5,,,
snp,VDACtest,131,r,true,512.5999999046326,2,r,h,3,,,
snp,VDACtest,132,r,true,472.90000009536743,2,r,v,5,,,
snp,VDACtest,133,r,true,527.3999998569489,1,g,v,3,,,
snp,VDACtest,134,r,true,535.7999999523163,1,g,h,4,,,
snp,VDACtest,135,r,true,552.7999999523163,1,g,h,3,,,
snp,VDACtest,136,r,true,495.2999999523163,2,r,v,0,,,
snp,VDACtest,137,r,true,494.7000000476837,2,r,v,5,,,
snp,VDACtest,138,r,true,711,2,r,h,1,,,
snp,VDACtest,139,r,true,825,1,g,h,4,,,
snp,VDACtest,140,r,true,544.2999999523163,1,g,h,0,,,
snp,VDACtest,141,r,true,527.5999999046326,1,g,v,5,,,
snp,VDACtest,142,r,true,558.8000001907349,1,g,v,3,,,
snp,VDACtest,143,r,true,512.2000000476837,2,r,h,4,,,
snp,VDACtest,144,r,true,536.2999999523163,2,r,v,5,,,
snp,VDACtest,145,r,true,527.0999999046326,1,g,h,3,,,
snp,VDACtest,146,r,true,671.7000000476837,2,r,v,1,,,
snp,VDACtest,147,r,true,502.2999999523163,2,r,h,2,,,
snp,VDACtest,148,r,true,558.5,2,r,v,4,,,
snp,VDACtest,149,r,true,512,2,r,v,4,,,
snp,VDACtest,150,r,true,735.5,1,g,h,1,,,
brk,brk,brk,brk,brk,brk,brk,brk,brk,brk,brk,brk,
snp,VDACtest,151,r,true,651.4000000953674,1,g,v,0,,,
snp,VDACtest,152,r,true,470.5,1,g,h,3,,,
snp,VDACtest,153,r,true,537.5,2,r,h,4,,,
snp,VDACtest,154,r,true,537,1,g,h,1,,,
snp,VDACtest,155,r,true,519.2999999523163,2,r,h,5,,,
snp,VDACtest,156,r,true,472.60000014305115,2,r,v,5,,,
snp,VDACtest,157,r,true,513.0999999046326,1,g,v,4,,,
snp,VDACtest,158,r,true,447.2000000476837,2,r,h,1,,,
snp,VDACtest,159,r,true,503.5,1,g,h,1,,,
snp,VDACtest,160,r,true,566.5,2,r,v,3,,,
snp,VDACtest,161,r,true,487.09999990463257,2,r,v,3,,,
snp,VDACtest,162,r,true,439.89999985694885,2,r,v,0,,,
snp,VDACtest,163,r,true,447,1,g,v,5,,,
snp,VDACtest,164,r,true,455.5,2,r,v,4,,,
snp,VDACtest,165,r,true,400.5,2,r,v,0,,,
snp,VDACtest,166,r,true,471.09999990463257,2,r,h,0,,,
snp,VDACtest,167,r,true,478.39999985694885,1,g,h,2,,,
snp,VDACtest,168,r,true,470.59999990463257,2,r,h,4,,,
snp,VDACtest,169,r,true,488.59999990463257,1,g,v,3,,,
snp,VDACtest,170,r,true,551.2000000476837,1,g,v,1,,,
snp,VDACtest,171,r,true,518.9000000953674,2,r,h,0,,,
snp,VDACtest,172,r,true,519,1,g,h,2,,,
snp,VDACtest,173,r,true,431.5,2,r,h,2,,,
snp,VDACtest,174,r,true,488.40000009536743,2,r,h,0,,,
snp,VDACtest,175,r,true,437.19999980926514,2,r,v,0,,,
snp,VDACtest,176,r,true,431.60000014305115,2,r,h,2,,,
snp,VDACtest,177,r,true,479.7999999523163,2,r,h,4,,,
snp,VDACtest,178,r,true,479.59999990463257,2,r,v,5,,,
snp,VDACtest,179,r,true,494.60000014305115,2,r,v,2,,,
snp,VDACtest,180,r,true,462.7999999523163,1,g,v,2,,,
snp,VDACtest,181,r,true,439.40000009536743,2,r,v,4,,,
snp,VDACtest,182,r,true,534.5999999046326,1,g,h,3,,,
snp,VDACtest,183,r,true,471.7999999523163,2,r,v,3,,,
snp,VDACtest,184,r,true,487.60000014305115,2,r,h,5,,,
snp,VDACtest,185,r,true,533.5,1,g,h,0,,,
snp,VDACtest,186,r,true,495.5,1,g,v,4,,,
snp,VDACtest,187,r,true,550.2000000476837,2,r,v,2,,,
snp,VDACtest,188,r,true,503.09999990463257,1,g,v,1,,,
snp,VDACtest,189,r,true,495.40000009536743,2,r,h,1,,,
snp,VDACtest,190,r,true,688.2000000476837,1,g,h,3,,,
snp,VDACtest,191,r,true,487.60000014305115,1,g,v,1,,,
snp,VDACtest,192,r,true,456.2000000476837,1,g,h,1,,,
snp,VDACtest,193,r,true,430.89999985694885,1,g,v,2,,,
snp,VDACtest,194,r,true,486.7000000476837,1,g,v,3,,,
snp,VDACtest,195,r,true,416.2000000476837,1,g,v,4,,,
snp,VDACtest,196,r,true,465.2000000476837,1,g,h,4,,,
snp,VDACtest,197,r,true,476.7999999523163,1,g,h,4,,,
snp,VDACtest,198,r,true,559.4000000953674,2,r,h,5,,,
snp,VDACtest,199,r,true,521.0999999046326,1,g,h,1,,,
snp,VDACtest,200,r,true,415.39999985694885,1,g,v,5,,,
snp,RSVPtrain,0,r,true,1823.7999999523163,2,r,,1,1,2,
snp,RSVPtrain,0,r,true,938,0,b,,0,3,0,
snp,RSVPtrain,0,r,true,1889.3999998569489,0,b,,3,3,0,
snp,RSVPtrain,0,r,true,1007.7999999523163,1,g,,3,0,1,
snp,RSVPtrain,0,r,true,1122.5,1,g,,3,1,1,
snp,RSVPtrain,0,r,true,1043.8000001907349,2,r,,0,0,2,
snp,RSVPtrain,0,r,true,1146.0999999046326,0,b,,1,3,0,
snp,RSVPtrain,0,r,false,1130.1000001430511,1,g,,2,2,2,
snp,RSVPtrain,0,r,false,1162.2999999523163,2,r,,3,2,1,
snp,RSVPtrain,0,r,true,1303.7000000476837,1,g,,1,0,1,
snp,RSVPtest,1,r,false,1367.7999999523163,0,b,,3,3,0,
snp,RSVPtest,2,r,true,1045.6000001430511,2,r,,2,0,1,
snp,RSVPtest,3,r,true,1186.4000000953674,1,g,,1,2,1,
snp,RSVPtest,4,r,true,881.2999999523163,1,g,,3,2,1,
snp,RSVPtest,5,r,true,963.2999999523163,2,r,,0,0,2,
snp,RSVPtest,6,r,true,1465,0,b,,0,3,0,
snp,RSVPtest,7,r,true,1115.2000000476837,1,g,,2,2,2,
snp,RSVPtest,8,r,true,841.2999999523163,0,b,,0,3,0,
snp,RSVPtest,9,r,false,826.0999999046326,2,r,,3,0,1,
snp,RSVPtest,10,r,true,801.4000000953674,0,b,,2,3,0,
snp,RSVPtest,11,r,true,706.5,1,g,,2,0,1,
snp,RSVPtest,12,r,true,769.9000000953674,0,b,,3,3,0,
snp,RSVPtest,13,r,false,946.2999999523163,1,g,,0,0,2,
snp,RSVPtest,14,r,true,610.0999999046326,2,r,,2,2,2,
snp,RSVPtest,15,r,true,635.7000000476837,1,g,,0,2,1,
snp,RSVPtest,16,r,true,754.8999998569489,1,g,,3,1,1,
snp,RSVPtest,17,r,false,835.7000000476837,0,b,,3,3,0,
snp,RSVPtest,18,r,true,890.2000000476837,1,g,,3,1,1,
snp,RSVPtest,19,r,true,819.3999998569489,2,r,,0,2,1,
snp,RSVPtest,20,r,true,811.8999998569489,0,b,,1,3,0,
snp,RSVPtest,21,r,true,899.7999999523163,0,b,,2,3,0,
snp,RSVPtest,22,r,true,627.5999999046326,1,g,,0,2,1,
snp,RSVPtest,23,r,true,717.4000000953674,2,r,,0,1,1,
snp,RSVPtest,24,r,true,751,2,r,,3,0,1,
snp,RSVPtest,25,r,true,595.4000000953674,2,r,,1,0,1,
snp,RSVPtest,26,r,true,681.7999999523163,2,r,,1,2,1,
snp,RSVPtest,27,r,false,729.6000001430511,1,g,,3,0,1,
snp,RSVPtest,28,r,true,642.8999998569489,0,b,,1,3,0,
snp,RSVPtest,29,r,true,795.7000000476837,1,g,,3,0,1,
snp,RSVPtest,30,r,true,674.6000001430511,1,g,,1,0,1,
snp,RSVPtest,31,r,true,736.8000001907349,1,g,,0,0,2,
snp,RSVPtest,32,r,true,657.6999998092651,1,g,,1,0,1,
snp,RSVPtest,33,r,true,660,1,g,,2,2,2,
snp,RSVPtest,34,r,true,612,0,b,,2,3,0,
snp,RSVPtest,35,r,true,562.2000000476837,2,r,,1,1,2,
snp,RSVPtest,36,r,true,515.0999999046326,2,r,,2,1,1,
snp,RSVPtest,37,r,false,822.6000001430511,2,r,,0,1,1,
snp,RSVPtest,38,r,true,651.6999998092651,0,b,,0,3,0,
snp,RSVPtest,39,r,false,739.5,2,r,,3,1,1,
snp,RSVPtest,40,r,true,776.6999998092651,1,g,,0,0,2,
snp,RSVPtest,41,r,true,585.5,2,r,,0,2,1,
snp,RSVPtest,42,r,true,785.0999999046326,1,g,,3,1,1,
snp,RSVPtest,43,r,true,698,2,r,,3,1,1,
snp,RSVPtest,44,r,true,913.2999999523163,0,b,,2,3,0,
snp,RSVPtest,45,r,true,570.7000000476837,1,g,,2,2,2,
snp,RSVPtest,46,r,true,1053.5,2,r,,3,1,1,
snp,RSVPtest,47,r,false,1031.0999999046326,2,r,,1,0,1,
snp,RSVPtest,48,r,true,793.0999999046326,2,r,,3,2,1,
snp,RSVPtest,49,r,true,668.2000000476837,1,g,,3,2,1,
snp,RSVPtest,50,r,false,745.4000000953674,2,r,,3,1,1,
snp,RSVPtest,51,r,true,684.5,1,g,,1,0,1,
snp,RSVPtest,52,r,true,553.7999999523163,2,r,,0,0,2,
snp,RSVPtest,53,r,false,729.0999999046326,1,g,,1,2,1,
snp,RSVPtest,54,r,true,594.4000000953674,1,g,,1,2,1,
snp,RSVPtest,55,r,true,602.5,1,g,,0,2,1,
snp,RSVPtest,56,r,true,641.1999998092651,2,r,,2,2,2,
snp,RSVPtest,57,r,true,592.2000000476837,0,b,,0,3,0,
snp,RSVPtest,58,r,false,1198.5999999046326,2,r,,0,1,1,
snp,RSVPtest,59,r,true,552.7999999523163,1,g,,0,2,1,
snp,RSVPtest,60,r,true,638.5999999046326,2,r,,3,2,1,
brk,brk,brk,brk,brk,brk,brk,brk,brk,brk,brk,brk,
snp,RSVPtest,61,r,true,1218.2999999523163,1,g,,1,1,2,
snp,RSVPtest,62,r,true,625.0999999046326,0,b,,3,3,0,
snp,RSVPtest,63,r,true,658.5,0,b,,1,3,0,
snp,RSVPtest,64,r,true,680.4000000953674,0,b,,3,3,0,
snp,RSVPtest,65,r,true,592.8999998569489,1,g,,0,1,1,
snp,RSVPtest,66,r,true,681.1999998092651,2,r,,3,1,1,
snp,RSVPtest,67,r,true,799.7000000476837,2,r,,3,0,1,
snp,RSVPtest,68,r,true,753.7000000476837,0,b,,3,3,0,
snp,RSVPtest,69,r,true,713.4000000953674,2,r,,2,2,2,
snp,RSVPtest,70,r,false,846.5999999046326,2,r,,0,1,1,
snp,RSVPtest,71,r,true,826.8000001907349,2,r,,3,0,1,
snp,RSVPtest,72,r,true,743.5,2,r,,3,2,1,
snp,RSVPtest,73,r,true,736.2000000476837,2,r,,1,2,1,
snp,RSVPtest,74,r,true,915.3999998569489,1,g,,0,0,2,
snp,RSVPtest,75,r,true,665,1,g,,1,2,1,
snp,RSVPtest,76,r,true,1008.2999999523163,1,g,,2,1,1,
snp,RSVPtest,77,r,true,777.7000000476837,2,r,,0,2,1,
snp,RSVPtest,78,r,true,824.0999999046326,1,g,,1,2,1,
snp,RSVPtest,79,r,true,632.8999998569489,1,g,,3,0,1,
snp,RSVPtest,80,r,true,1665.2000000476837,0,b,,3,3,0,
snp,RSVPtest,81,r,true,774.9000000953674,1,g,,3,0,1,
snp,RSVPtest,82,r,true,615,2,r,,1,2,1,
snp,RSVPtest,83,r,true,609.7000000476837,2,r,,3,2,1,
snp,RSVPtest,84,r,true,721.1999998092651,1,g,,3,0,1,
snp,RSVPtest,85,r,true,886.7999999523163,1,g,,2,1,1,
snp,RSVPtest,86,r,true,665.3999998569489,2,r,,3,2,1,
snp,RSVPtest,87,r,true,600.7000000476837,0,b,,3,3,0,
snp,RSVPtest,88,r,true,695.3000001907349,2,r,,0,1,1,
snp,RSVPtest,89,r,true,641.7000000476837,2,r,,3,1,1,
snp,RSVPtest,90,r,true,582.7000000476837,0,b,,0,3,0,
snp,RSVPtest,91,r,true,640.8999998569489,2,r,,0,0,2,
snp,RSVPtest,92,r,true,634,2,r,,0,2,1,
snp,RSVPtest,93,r,true,546.2999999523163,1,g,,3,1,1,
snp,RSVPtest,94,r,true,673.3000001907349,2,r,,2,1,1,
snp,RSVPtest,95,r,true,801.5,0,b,,3,3,0,
snp,RSVPtest,96,r,true,461.40000009536743,1,g,,0,2,1,
snp,RSVPtest,97,r,true,561.4000000953674,1,g,,2,0,1,
snp,RSVPtest,98,r,true,813.5999999046326,1,g,,0,1,1,
snp,RSVPtest,99,r,true,679,2,r,,2,2,2,
snp,RSVPtest,100,r,true,778,1,g,,2,0,1,
snp,RSVPtest,101,r,false,656.4000000953674,1,g,,3,0,1,
snp,RSVPtest,102,r,true,511.40000009536743,0,b,,2,3,0,
snp,RSVPtest,103,r,true,624.2000000476837,1,g,,2,1,1,
snp,RSVPtest,104,r,true,784,1,g,,3,1,1,
snp,RSVPtest,105,r,true,894.7999999523163,2,r,,3,2,1,
snp,RSVPtest,106,r,true,720.8999998569489,1,g,,1,0,1,
snp,RSVPtest,107,r,true,650.8000001907349,0,b,,2,3,0,
snp,RSVPtest,108,r,true,648.5,1,g,,3,0,1,
snp,RSVPtest,109,r,true,638.3999998569489,1,g,,3,2,1,
snp,RSVPtest,110,r,true,689.0999999046326,2,r,,2,2,2,
snp,RSVPtest,111,r,true,553.0999999046326,0,b,,3,3,0,
snp,RSVPtest,112,r,true,712.3999998569489,1,g,,3,2,1,
snp,RSVPtest,113,r,true,712,0,b,,0,3,0,
snp,RSVPtest,114,r,true,614.9000000953674,0,b,,1,3,0,
snp,RSVPtest,115,r,true,814.5,2,r,,1,2,1,
snp,RSVPtest,116,r,true,495.80000019073486,1,g,,1,1,2,
snp,RSVPtest,117,r,true,615.1000001430511,2,r,,0,0,2,
snp,RSVPtest,118,r,true,620,2,r,,2,1,1,
snp,RSVPtest,119,r,true,848.0999999046326,1,g,,3,0,1,
snp,RSVPtest,120,r,true,791.5,2,r,,3,2,1,
brk,brk,brk,brk,brk,brk,brk,brk,brk,brk,brk,brk,
snp,RSVPtest,121,r,true,1014.7000000476837,1,g,,3,2,1,
snp,RSVPtest,122,r,true,753.0999999046326,2,r,,3,1,1,
snp,RSVPtest,123,r,false,902.3999998569489,2,r,,0,0,2,
snp,RSVPtest,124,r,true,951,1,g,,3,1,1,
snp,RSVPtest,125,r,true,753.7000000476837,0,b,,0,3,0,
snp,RSVPtest,126,r,true,592.5999999046326,0,b,,3,3,0,
snp,RSVPtest,127,r,true,601,0,b,,3,3,0,
snp,RSVPtest,128,r,true,560.4000000953674,1,g,,3,2,1,
snp,RSVPtest,129,r,true,543.5,1,g,,3,1,1,
snp,RSVPtest,130,r,true,754.0999999046326,2,r,,1,0,1,
snp,RSVPtest,131,r,true,584.1000001430511,1,g,,0,1,1,
snp,RSVPtest,132,r,true,417.90000009536743,0,b,,1,3,0,
snp,RSVPtest,133,r,true,511.5,2,r,,1,2,1,
snp,RSVPtest,134,r,true,545.4000000953674,2,r,,2,1,1,
snp,RSVPtest,135,r,true,673.1000001430511,2,r,,2,0,1,
snp,RSVPtest,136,r,true,581.2000000476837,1,g,,2,1,1,
snp,RSVPtest,137,r,false,1231.7999999523163,2,r,,3,0,1,
snp,RSVPtest,138,r,true,727.2000000476837,2,r,,0,2,1,
snp,RSVPtest,139,r,true,1127.7999999523163,1,g,,1,0,1,
snp,RSVPtest,140,r,true,519.3999998569489,1,g,,3,2,1,
snp,RSVPtest,141,r,true,1040.3999998569489,1,g,,1,0,1,
snp,RSVPtest,142,r,true,671.5999999046326,2,r,,1,0,1,
snp,RSVPtest,143,r,true,586.2000000476837,2,r,,1,1,2,
snp,RSVPtest,144,r,true,669.3000001907349,1,g,,0,0,2,
snp,RSVPtest,145,r,true,639.7000000476837,0,b,,3,3,0,
snp,RSVPtest,146,r,true,648,2,r,,0,0,2,
snp,RSVPtest,147,r,true,513.1999998092651,0,b,,0,3,0,
snp,RSVPtest,148,r,true,478.30000019073486,2,r,,2,0,1,
snp,RSVPtest,149,r,true,462.7000000476837,1,g,,2,2,2,
snp,RSVPtest,150,r,false,511,2,r,,3,1,1,
snp,RSVPtest,151,r,true,608.5999999046326,2,r,,3,1,1,
snp,RSVPtest,152,r,true,670.7999999523163,2,r,,3,2,1,
snp,RSVPtest,153,r,true,821.2999999523163,0,b,,3,3,0,
snp,RSVPtest,154,r,true,683.3999998569489,2,r,,2,1,1,
snp,RSVPtest,155,r,true,806.7000000476837,0,b,,0,3,0,
snp,RSVPtest,156,r,true,1046.0999999046326,1,g,,2,0,1,
snp,RSVPtest,157,r,true,656.2000000476837,2,r,,3,0,1,
snp,RSVPtest,158,r,true,869.7999999523163,1,g,,3,2,1,
snp,RSVPtest,159,r,true,774.6999998092651,0,b,,2,3,0,
snp,RSVPtest,160,r,false,949.3999998569489,0,b,,1,3,0,
snp,RSVPtest,161,r,true,1028.0999999046326,2,r,,1,1,2,
snp,RSVPtest,162,r,true,688.7000000476837,1,g,,3,1,1,
snp,RSVPtest,163,r,true,481.59999990463257,0,b,,2,3,0,
snp,RSVPtest,164,r,true,780.3000001907349,0,b,,3,3,0,
snp,RSVPtest,165,r,false,1061.5,2,r,,0,1,1,
snp,RSVPtest,166,r,true,597.4000000953674,0,b,,2,3,0,
snp,RSVPtest,167,r,true,743.2999999523163,1,g,,3,2,1,
snp,RSVPtest,168,r,true,829,0,b,,3,3,0,
snp,RSVPtest,169,r,true,631.8999998569489,2,r,,1,0,1,
snp,RSVPtest,170,r,true,798.2000000476837,1,g,,0,1,1,
snp,RSVPtest,171,r,false,614.7999999523163,2,r,,2,1,1,
snp,RSVPtest,172,r,true,629.2000000476837,1,g,,3,2,1,
snp,RSVPtest,173,r,true,461.90000009536743,0,b,,2,3,0,
snp,RSVPtest,174,r,true,824.3999998569489,0,b,,0,3,0,
snp,RSVPtest,175,r,true,616.9000000953674,2,r,,3,1,1,
snp,RSVPtest,176,r,true,582.5,2,r,,2,0,1,
snp,RSVPtest,177,r,true,655.6000001430511,0,b,,1,3,0,
snp,RSVPtest,178,r,true,585.2999999523163,0,b,,3,3,0,
snp,RSVPtest,179,r,true,902.5999999046326,2,r,,1,1,2,
snp,RSVPtest,180,r,true,502.90000009536743,2,r,,2,2,2,
brk,brk,brk,brk,brk,brk,brk,brk,brk,brk,brk,brk,
snp,RSVPtest,181,r,true,505,2,r,,2,0,1,
snp,RSVPtest,182,r,true,687.5,1,g,,3,2,1,
snp,RSVPtest,183,r,true,520,1,g,,1,1,2,
snp,RSVPtest,184,r,true,663.7000000476837,1,g,,3,1,1,
snp,RSVPtest,185,r,true,639.5,0,b,,1,3,0,
snp,RSVPtest,186,r,true,1093,1,g,,0,1,1,
snp,RSVPtest,187,r,true,527.5,1,g,,2,0,1,
snp,RSVPtest,188,r,false,605.5999999046326,1,g,,3,2,1,
snp,RSVPtest,189,r,true,752.0999999046326,1,g,,2,2,2,
snp,RSVPtest,190,r,true,949.4000000953674,1,g,,2,1,1,
snp,RSVPtest,191,r,true,1190.0999999046326,2,r,,1,0,1,
snp,RSVPtest,192,r,true,759.2000000476837,1,g,,3,0,1,
snp,RSVPtest,193,r,true,757.2999999523163,2,r,,3,2,1,
snp,RSVPtest,194,r,true,671.2999999523163,2,r,,1,1,2,
snp,RSVPtest,195,r,false,684.6999998092651,0,b,,3,3,0,
snp,RSVPtest,196,r,true,639.6000001430511,1,g,,1,1,2,
snp,RSVPtest,197,r,true,717.2000000476837,1,g,,0,2,1,
snp,RSVPtest,198,r,true,527.8999998569489,0,b,,1,3,0,
snp,RSVPtest,199,r,true,766.6999998092651,2,r,,3,0,1,
snp,RSVPtest,200,r,false,1070.6999998092651,2,r,,3,2,1,
snp,RSVPtest,201,r,true,910.3999998569489,2,r,,0,2,1,
snp,RSVPtest,202,r,true,766.7000000476837,1,g,,0,0,2,
snp,RSVPtest,203,r,true,479.39999985694885,2,r,,1,1,2,
snp,RSVPtest,204,r,true,414.2000000476837,1,g,,1,1,2,
snp,RSVPtest,205,r,true,1158.7000000476837,0,b,,3,3,0,
snp,RSVPtest,206,r,true,1470.2999999523163,2,r,,3,2,1,
snp,RSVPtest,207,r,true,534.9000000953674,0,b,,1,3,0,
snp,RSVPtest,208,r,true,729.6999998092651,2,r,,3,2,1,
snp,RSVPtest,209,r,true,591.5999999046326,0,b,,0,3,0,
snp,RSVPtest,210,r,true,669,2,r,,3,1,1,
snp,RSVPtest,211,r,true,695.1999998092651,2,r,,2,0,1,
snp,RSVPtest,212,r,true,965.0999999046326,2,r,,3,0,1,
snp,RSVPtest,213,r,true,790.2999999523163,0,b,,3,3,0,
snp,RSVPtest,214,r,true,571.8999998569489,0,b,,2,3,0,
snp,RSVPtest,215,r,true,671.2999999523163,0,b,,2,3,0,
snp,RSVPtest,216,r,true,574,0,b,,3,3,0,
snp,RSVPtest,217,r,true,559,1,g,,1,1,2,
snp,RSVPtest,218,r,true,669.9000000953674,1,g,,3,1,1,
snp,RSVPtest,219,r,true,703.5,0,b,,3,3,0,
snp,RSVPtest,220,r,true,829.2000000476837,0,b,,3,3,0,
snp,RSVPtest,221,r,true,573.7000000476837,1,g,,3,0,1,
snp,RSVPtest,222,r,true,630.3999998569489,2,r,,3,0,1,
snp,RSVPtest,223,r,true,862.2000000476837,1,g,,2,2,2,
snp,RSVPtest,224,r,true,631.1000001430511,0,b,,0,3,0,
snp,RSVPtest,225,r,false,780.9000000953674,1,g,,3,1,1,
snp,RSVPtest,226,r,true,511.39999985694885,0,b,,1,3,0,
snp,RSVPtest,227,r,true,717.0999999046326,2,r,,3,0,1,
snp,RSVPtest,228,r,true,732.0999999046326,2,r,,3,0,1,
snp,RSVPtest,229,r,true,693.4000000953674,2,r,,3,1,1,
snp,RSVPtest,230,r,true,750.0999999046326,0,b,,3,3,0,
snp,RSVPtest,231,r,true,1013,1,g,,1,2,1,
snp,RSVPtest,232,r,true,1078.2999999523163,1,g,,3,1,1,
snp,RSVPtest,233,r,true,459.90000009536743,1,g,,2,1,1,
snp,RSVPtest,234,r,true,637,1,g,,3,0,1,
snp,RSVPtest,235,r,true,546.7000000476837,1,g,,0,1,1,
snp,RSVPtest,236,r,true,646.0999999046326,0,b,,1,3,0,
snp,RSVPtest,237,r,true,568.5999999046326,2,r,,1,2,1,
snp,RSVPtest,238,r,true,789,1,g,,2,0,1,
snp,RSVPtest,239,r,true,541.5999999046326,1,g,,3,0,1,
snp,RSVPtest,240,r,true,583.1999998092651,2,r,,3,0,1,
