subID,trialType,trialNum,cntBalance,correct,rt,rwdType,tgtCol,tgtDir,tgtPos,colPos,colMatch,
5hn,VDACtrain,0,r,null,null,2,r,h,0,,,
5hn,VDACtrain,0,r,null,null,1,g,h,5,,,
5hn,VDACtrain,0,r,false,833.4000000059605,2,r,h,1,,,
5hn,VDACtrain,0,r,true,729.1000000089407,1,g,v,5,,,
5hn,VDACtrain,0,r,false,608.2000000029802,2,r,h,2,,,
5hn,VDACtrain,0,r,false,635.8000000119209,1,g,h,3,,,
5hn,VDACtrain,0,r,null,null,1,g,v,2,,,
5hn,VDACtrain,0,r,true,932.0999999940395,2,r,v,3,,,
5hn,VDACtrain,0,r,true,645.2000000029802,1,g,v,0,,,
5hn,VDACtrain,0,r,true,498.79999999701977,2,r,v,4,,,
5hn,VDACtest,1,r,true,741.4000000059605,1,g,v,2,,,
5hn,VDACtest,2,r,true,553.1000000089407,1,g,v,3,,,
5hn,VDACtest,3,r,true,673.9000000059605,1,g,h,4,,,
5hn,VDACtest,4,r,true,551.7999999970198,2,r,v,5,,,
5hn,VDACtest,5,r,true,593.2999999970198,1,g,v,2,,,
5hn,VDACtest,6,r,true,514.5,2,r,h,4,,,
5hn,VDACtest,7,r,false,978.2000000029802,1,g,h,1,,,
5hn,VDACtest,8,r,true,858.4000000059605,2,r,v,0,,,
5hn,VDACtest,9,r,true,710.7000000029802,2,r,h,4,,,
5hn,VDACtest,10,r,false,858.3999999910593,1,g,h,1,,,
5hn,VDACtest,11,r,null,null,2,r,h,1,,,
5hn,VDACtest,12,r,true,740.1000000089407,1,g,h,5,,,
5hn,VDACtest,13,r,true,611.0999999940395,1,g,v,0,,,
5hn,VDACtest,14,r,null,null,1,g,v,1,,,
5hn,VDACtest,15,r,null,null,2,r,h,2,,,
5hn,VDACtest,16,r,true,645.2999999970198,1,g,h,1,,,
5hn,VDACtest,17,r,true,633.8999999910593,2,r,v,2,,,
5hn,VDACtest,18,r,true,915.0999999940395,2,r,h,3,,,
5hn,VDACtest,19,r,true,794,2,r,h,2,,,
5hn,VDACtest,20,r,true,594.2999999970198,1,g,v,1,,,
5hn,VDACtest,21,r,true,722.3000000119209,2,r,v,1,,,
5hn,VDACtest,22,r,true,686.9000000059605,1,g,h,5,,,
5hn,VDACtest,23,r,false,644,1,g,h,4,,,
5hn,VDACtest,24,r,false,546.7000000029802,2,r,h,4,,,
5hn,VDACtest,25,r,null,null,2,r,v,1,,,
5hn,VDACtest,26,r,true,725.5,1,g,h,3,,,
5hn,VDACtest,27,r,true,716.7000000029802,1,g,h,5,,,
5hn,VDACtest,28,r,true,754.8999999910593,2,r,v,5,,,
5hn,VDACtest,29,r,true,745.9000000059605,2,r,h,4,,,
5hn,VDACtest,30,r,null,null,2,r,h,0,,,
5hn,VDACtest,31,r,true,606.6999999880791,1,g,h,0,,,
5hn,VDACtest,32,r,true,689.4000000059605,2,r,v,4,,,
5hn,VDACtest,33,r,true,745.4000000059605,1,g,h,0,,,
5hn,VDACtest,34,r,true,801.8999999910593,1,g,v,5,,,
5hn,VDACtest,35,r,true,730.5999999940395,1,g,v,2,,,
5hn,VDACtest,36,r,false,745.3999999910593,2,r,v,3,,,
5hn,VDACtest,37,r,true,601.4000000059605,1,g,v,4,,,
5hn,VDACtest,38,r,true,641.2999999970198,1,g,v,1,,,
5hn,VDACtest,39,r,true,576.6000000089407,2,r,v,4,,,
5hn,VDACtest,40,r,true,553.5,1,g,v,5,,,
5hn,VDACtest,41,r,true,602.2000000029802,2,r,h,1,,,
5hn,VDACtest,42,r,true,896.3999999910593,1,g,h,4,,,
5hn,VDACtest,43,r,false,792,1,g,h,1,,,
5hn,VDACtest,44,r,true,963,1,g,v,1,,,
5hn,VDACtest,45,r,null,null,1,g,v,3,,,
5hn,VDACtest,46,r,true,612.9000000059605,1,g,v,2,,,
5hn,VDACtest,47,r,true,619,2,r,v,3,,,
5hn,VDACtest,48,r,true,587.0999999940395,1,g,v,2,,,
5hn,VDACtest,49,r,true,499,1,g,v,4,,,
5hn,VDACtest,50,r,true,667.4000000059605,2,r,h,4,,,
brk,brk,brk,brk,brk,brk,brk,brk,brk,brk,brk,brk,
5hn,VDACtest,51,r,true,854.1000000089407,2,r,h,5,,,
5hn,VDACtest,52,r,true,600.5999999940395,2,r,v,2,,,
5hn,VDACtest,53,r,true,708.0999999940395,2,r,h,1,,,
5hn,VDACtest,54,r,false,617.7999999970198,2,r,h,5,,,
5hn,VDACtest,55,r,true,618.1999999880791,1,g,v,5,,,
5hn,VDACtest,56,r,false,608.4000000059605,2,r,v,2,,,
5hn,VDACtest,57,r,true,586.4000000059605,2,r,v,0,,,
5hn,VDACtest,58,r,true,521,2,r,v,4,,,
5hn,VDACtest,59,r,true,706.4000000059605,1,g,v,3,,,
5hn,VDACtest,60,r,true,546.5,1,g,h,1,,,
5hn,VDACtest,61,r,true,617.9000000059605,1,g,h,2,,,
5hn,VDACtest,62,r,true,603.9000000059605,1,g,v,5,,,
5hn,VDACtest,63,r,true,802,2,r,h,1,,,
5hn,VDACtest,64,r,true,681.5999999940395,1,g,v,5,,,
5hn,VDACtest,65,r,false,592.1000000089407,1,g,h,1,,,
5hn,VDACtest,66,r,true,834.6999999880791,2,r,h,3,,,
5hn,VDACtest,67,r,true,650.4000000059605,1,g,h,3,,,
5hn,VDACtest,68,r,true,594.3000000119209,2,r,v,4,,,
5hn,VDACtest,69,r,true,577.6999999880791,2,r,v,1,,,
5hn,VDACtest,70,r,true,456.70000000298023,1,g,v,1,,,
5hn,VDACtest,71,r,true,914.0999999940395,1,g,h,0,,,
5hn,VDACtest,72,r,false,600,1,g,h,5,,,
5hn,VDACtest,73,r,true,513.7999999970198,2,r,v,5,,,
5hn,VDACtest,74,r,true,578.2999999970198,1,g,h,3,,,
5hn,VDACtest,75,r,true,834.4000000059605,2,r,v,3,,,
5hn,VDACtest,76,r,true,489.70000000298023,2,r,v,3,,,
5hn,VDACtest,77,r,true,560.3999999910593,1,g,h,4,,,
5hn,VDACtest,78,r,true,674.9000000059605,2,r,v,0,,,
5hn,VDACtest,79,r,true,546.5,1,g,h,1,,,
5hn,VDACtest,80,r,false,553.6999999880791,2,r,h,5,,,
5hn,VDACtest,81,r,true,522.2999999970198,1,g,h,2,,,
5hn,VDACtest,82,r,true,467.20000000298023,1,g,h,3,,,
5hn,VDACtest,83,r,true,683.0999999940395,2,r,h,0,,,
5hn,VDACtest,84,r,true,571.1000000089407,2,r,h,2,,,
5hn,VDACtest,85,r,true,648.8999999910593,1,g,v,0,,,
5hn,VDACtest,86,r,true,504.5,2,r,h,5,,,
5hn,VDACtest,87,r,false,552,1,g,v,4,,,
5hn,VDACtest,88,r,true,745.5,2,r,h,1,,,
5hn,VDACtest,89,r,true,762.2999999970198,2,r,v,2,,,
5hn,VDACtest,90,r,true,595.0999999940395,2,r,h,2,,,
5hn,VDACtest,91,r,true,546.1999999880791,1,g,h,2,,,
5hn,VDACtest,92,r,false,609.4000000059605,2,r,v,4,,,
5hn,VDACtest,93,r,true,754.7999999970198,1,g,h,3,,,
5hn,VDACtest,94,r,true,554.7000000029802,2,r,v,1,,,
5hn,VDACtest,95,r,false,615.8000000119209,1,g,h,4,,,
5hn,VDACtest,96,r,true,746.7999999970198,1,g,h,5,,,
5hn,VDACtest,97,r,true,560.2000000029802,1,g,h,2,,,
5hn,VDACtest,98,r,true,465.20000000298023,2,r,v,5,,,
5hn,VDACtest,99,r,false,488.79999999701977,1,g,v,4,,,
5hn,VDACtest,100,r,true,514.1000000089407,1,g,h,4,,,
brk,brk,brk,brk,brk,brk,brk,brk,brk,brk,brk,brk,
5hn,VDACtest,101,r,false,770.6000000089407,2,r,h,3,,,
5hn,VDACtest,102,r,true,534.2000000029802,2,r,h,4,,,
5hn,VDACtest,103,r,true,665.2999999970198,1,g,v,3,,,
5hn,VDACtest,104,r,true,689.2000000029802,1,g,h,3,,,
5hn,VDACtest,105,r,true,440.70000000298023,1,g,h,5,,,
5hn,VDACtest,106,r,true,498,1,g,v,5,,,
5hn,VDACtest,107,r,true,594.9000000059605,1,g,v,0,,,
5hn,VDACtest,108,r,false,489.1000000089407,1,g,v,0,,,
5hn,VDACtest,109,r,true,467.09999999403954,1,g,h,0,,,
5hn,VDACtest,110,r,true,595.2000000029802,1,g,h,2,,,
5hn,VDACtest,111,r,true,488.29999999701977,1,g,h,5,,,
5hn,VDACtest,112,r,false,762.5,2,r,h,1,,,
5hn,VDACtest,113,r,true,657.8999999910593,1,g,h,3,,,
5hn,VDACtest,114,r,true,960.5999999940395,2,r,v,3,,,
5hn,VDACtest,115,r,true,697.1000000089407,2,r,h,0,,,
5hn,VDACtest,116,r,true,648.3999999910593,1,g,v,4,,,
5hn,VDACtest,117,r,true,721.5999999940395,2,r,v,5,,,
5hn,VDACtest,118,r,true,455.29999999701977,2,r,v,5,,,
5hn,VDACtest,119,r,true,625.1000000089407,2,r,h,3,,,
5hn,VDACtest,120,r,true,519.9000000059605,1,g,h,4,,,
5hn,VDACtest,121,r,true,561.6999999880791,1,g,v,4,,,
5hn,VDACtest,122,r,true,666.2999999970198,2,r,h,5,,,
5hn,VDACtest,123,r,true,520.4000000059605,1,g,h,5,,,
5hn,VDACtest,124,r,true,666.5999999940395,1,g,h,0,,,
5hn,VDACtest,125,r,true,584.7999999970198,2,r,h,4,,,
5hn,VDACtest,126,r,true,554,1,g,h,0,,,
5hn,VDACtest,127,r,true,601.2000000029802,1,g,v,0,,,
5hn,VDACtest,128,r,null,null,2,r,h,3,,,
5hn,VDACtest,129,r,true,682.7999999970198,2,r,h,2,,,
5hn,VDACtest,130,r,true,552.6000000089407,2,r,v,2,,,
5hn,VDACtest,131,r,false,481.8999999910593,1,g,v,2,,,
5hn,VDACtest,132,r,true,720.2000000029802,1,g,v,4,,,
5hn,VDACtest,133,r,true,705.7999999970198,2,r,h,2,,,
5hn,VDACtest,134,r,false,623.7999999970198,2,r,v,2,,,
5hn,VDACtest,135,r,true,824.3999999910593,1,g,h,1,,,
5hn,VDACtest,136,r,false,624.5,2,r,v,1,,,
5hn,VDACtest,137,r,true,623.0999999940395,2,r,v,1,,,
5hn,VDACtest,138,r,true,840.6000000089407,2,r,v,0,,,
5hn,VDACtest,139,r,true,697.9000000059605,1,g,v,5,,,
5hn,VDACtest,140,r,true,643.0999999940395,2,r,h,4,,,
5hn,VDACtest,141,r,true,593.0999999940395,1,g,v,1,,,
5hn,VDACtest,142,r,true,728.1000000089407,1,g,h,1,,,
5hn,VDACtest,143,r,true,562.9000000059605,1,g,v,2,,,
5hn,VDACtest,144,r,true,874.7000000029802,2,r,v,2,,,
5hn,VDACtest,145,r,true,488,2,r,h,2,,,
5hn,VDACtest,146,r,false,778.8999999910593,2,r,h,3,,,
5hn,VDACtest,147,r,false,515,1,g,v,3,,,
5hn,VDACtest,148,r,null,null,1,g,h,2,,,
5hn,VDACtest,149,r,true,560.2000000029802,2,r,v,4,,,
5hn,VDACtest,150,r,true,729.6999999880791,1,g,h,0,,,
brk,brk,brk,brk,brk,brk,brk,brk,brk,brk,brk,brk,
5hn,VDACtest,151,r,true,805.3999999910593,1,g,v,2,,,
5hn,VDACtest,152,r,true,642,1,g,v,1,,,
5hn,VDACtest,153,r,true,506.20000000298023,2,r,h,5,,,
5hn,VDACtest,154,r,true,586,2,r,h,0,,,
5hn,VDACtest,155,r,true,825.9000000059605,1,g,v,4,,,
5hn,VDACtest,156,r,true,602.5999999940395,1,g,v,4,,,
5hn,VDACtest,157,r,true,617.9000000059605,2,r,v,5,,,
5hn,VDACtest,158,r,true,680.9000000059605,2,r,v,1,,,
5hn,VDACtest,159,r,true,482.70000000298023,2,r,v,0,,,
5hn,VDACtest,160,r,true,826.1000000089407,1,g,v,3,,,
5hn,VDACtest,161,r,true,411.5,2,r,h,0,,,
5hn,VDACtest,162,r,true,576.5,2,r,h,4,,,
5hn,VDACtest,163,r,true,582.2999999970198,1,g,v,1,,,
5hn,VDACtest,164,r,false,652.5,2,r,h,2,,,
5hn,VDACtest,165,r,true,641.2999999970198,2,r,h,0,,,
5hn,VDACtest,166,r,true,513.5999999940395,2,r,v,5,,,
5hn,VDACtest,167,r,true,778.0999999940395,1,g,h,4,,,
5hn,VDACtest,168,r,true,609.9000000059605,1,g,v,3,,,
5hn,VDACtest,169,r,false,705.7000000029802,1,g,v,0,,,
5hn,VDACtest,170,r,true,705.7000000029802,1,g,h,2,,,
5hn,VDACtest,171,r,true,842.2000000029802,1,g,v,0,,,
5hn,VDACtest,172,r,true,577.3000000119209,2,r,h,1,,,
5hn,VDACtest,173,r,true,512.7999999970198,1,g,v,3,,,
5hn,VDACtest,174,r,true,472.5,1,g,h,2,,,
5hn,VDACtest,175,r,true,711.6000000089407,2,r,v,0,,,
5hn,VDACtest,176,r,false,650.7999999970198,2,r,v,2,,,
5hn,VDACtest,177,r,false,599.8999999910593,2,r,v,0,,,
5hn,VDACtest,178,r,false,722,1,g,h,0,,,
5hn,VDACtest,179,r,false,642.7999999970198,2,r,v,1,,,
5hn,VDACtest,180,r,true,994.0999999940395,2,r,h,1,,,
5hn,VDACtest,181,r,true,690.6000000089407,2,r,h,0,,,
5hn,VDACtest,182,r,true,761,2,r,v,3,,,
5hn,VDACtest,183,r,null,null,2,r,v,4,,,
5hn,VDACtest,184,r,true,682.0999999940395,1,g,v,0,,,
5hn,VDACtest,185,r,true,569,1,g,v,1,,,
5hn,VDACtest,186,r,true,569.7999999970198,2,r,v,3,,,
5hn,VDACtest,187,r,true,634.7999999970198,1,g,h,4,,,
5hn,VDACtest,188,r,true,641.7000000029802,2,r,h,3,,,
5hn,VDACtest,189,r,true,481.3999999910593,2,r,h,3,,,
5hn,VDACtest,190,r,true,753.3999999910593,2,r,v,3,,,
5hn,VDACtest,191,r,true,577,1,g,v,5,,,
5hn,VDACtest,192,r,true,586.1000000089407,2,r,h,1,,,
5hn,VDACtest,193,r,null,null,2,r,v,0,,,
5hn,VDACtest,194,r,true,528.9000000059605,2,r,v,1,,,
5hn,VDACtest,195,r,true,713.8999999910593,2,r,h,0,,,
5hn,VDACtest,196,r,true,761.1999999880791,2,r,v,4,,,
5hn,VDACtest,197,r,true,688.5,1,g,h,3,,,
5hn,VDACtest,198,r,false,553.3999999910593,2,r,h,5,,,
5hn,VDACtest,199,r,null,null,2,r,v,4,,,
5hn,VDACtest,200,r,true,552.7999999970198,2,r,h,5,,,
5hn,RSVPtrain,0,r,false,2008,2,r,,0,0,2,
5hn,RSVPtrain,0,r,false,2325.800000011921,1,g,,2,2,2,
5hn,RSVPtrain,0,r,true,1044.0999999940395,0,b,,3,3,0,
5hn,RSVPtrain,0,r,true,1533.7000000029802,1,g,,1,0,1,
5hn,RSVPtrain,0,r,null,null,2,r,,3,2,1,
5hn,RSVPtrain,0,r,true,1228.5,1,g,,3,0,1,
5hn,RSVPtrain,0,r,false,1939.5,0,b,,1,3,0,
5hn,RSVPtrain,0,r,false,1660.0999999940395,2,r,,1,1,2,
5hn,RSVPtrain,0,r,true,1604.7999999970198,1,g,,3,1,1,
5hn,RSVPtrain,0,r,false,2083.5,0,b,,0,3,0,
5hn,RSVPtest,1,r,true,1701.199999988079,2,r,,3,0,1,
5hn,RSVPtest,2,r,true,1100.7999999970198,2,r,,2,0,1,
5hn,RSVPtest,3,r,false,1244,1,g,,2,0,1,
5hn,RSVPtest,4,r,true,1115.7999999970198,0,b,,3,3,0,
5hn,RSVPtest,5,r,true,1093.9000000059605,2,r,,2,0,1,
5hn,RSVPtest,6,r,true,882.1000000089407,2,r,,0,2,1,
5hn,RSVPtest,7,r,true,1003.7000000029802,2,r,,3,2,1,
5hn,RSVPtest,8,r,true,924,2,r,,1,0,1,
5hn,RSVPtest,9,r,false,1378.5,2,r,,0,2,1,
5hn,RSVPtest,10,r,true,915.6999999880791,0,b,,3,3,0,
5hn,RSVPtest,11,r,true,1029.300000011921,1,g,,2,2,2,
5hn,RSVPtest,12,r,false,1098.3999999910593,1,g,,0,0,2,
5hn,RSVPtest,13,r,true,1161.5,1,g,,0,2,1,
5hn,RSVPtest,14,r,true,1380.5,2,r,,1,0,1,
5hn,RSVPtest,15,r,true,1239.7000000029802,0,b,,1,3,0,
5hn,RSVPtest,16,r,true,1835.7000000029802,2,r,,3,1,1,
5hn,RSVPtest,17,r,true,958.5999999940395,0,b,,1,3,0,
5hn,RSVPtest,18,r,true,1149.2000000029802,2,r,,0,1,1,
5hn,RSVPtest,19,r,true,1410.2000000029802,0,b,,3,3,0,
5hn,RSVPtest,20,r,false,1111.4000000059605,2,r,,2,1,1,
5hn,RSVPtest,21,r,true,1309.2999999970198,1,g,,2,1,1,
5hn,RSVPtest,22,r,true,1700.5,0,b,,0,3,0,
5hn,RSVPtest,23,r,true,1779.0999999940395,2,r,,1,0,1,
5hn,RSVPtest,24,r,true,1365.300000011921,1,g,,3,1,1,
5hn,RSVPtest,25,r,true,1435.5999999940395,0,b,,2,3,0,
5hn,RSVPtest,26,r,true,827.2000000029802,1,g,,3,0,1,
5hn,RSVPtest,27,r,true,851.5,1,g,,3,1,1,
5hn,RSVPtest,28,r,true,1028.1000000089407,0,b,,3,3,0,
5hn,RSVPtest,29,r,true,1107.2000000029802,1,g,,3,0,1,
5hn,RSVPtest,30,r,true,1169.5999999940395,2,r,,2,1,1,
5hn,RSVPtest,31,r,true,1361.4000000059605,1,g,,0,0,2,
5hn,RSVPtest,32,r,true,1009.7999999970198,2,r,,2,1,1,
5hn,RSVPtest,33,r,true,765.0999999940395,0,b,,3,3,0,
5hn,RSVPtest,34,r,false,1363.2000000029802,1,g,,3,1,1,
5hn,RSVPtest,35,r,true,1746,0,b,,1,3,0,
5hn,RSVPtest,36,r,true,1714.2000000029802,2,r,,3,2,1,
5hn,RSVPtest,37,r,true,1139.5,0,b,,1,3,0,
5hn,RSVPtest,38,r,false,1395.5999999940395,1,g,,0,0,2,
5hn,RSVPtest,39,r,true,778.2999999970198,1,g,,2,0,1,
5hn,RSVPtest,40,r,false,2124.5999999940395,2,r,,0,1,1,
5hn,RSVPtest,41,r,true,762.2000000029802,2,r,,1,0,1,
5hn,RSVPtest,42,r,true,1250.4000000059605,2,r,,2,2,2,
5hn,RSVPtest,43,r,true,1235.2000000029802,2,r,,0,1,1,
5hn,RSVPtest,44,r,true,1282.300000011921,1,g,,3,1,1,
5hn,RSVPtest,45,r,false,1547,1,g,,0,0,2,
5hn,RSVPtest,46,r,true,884,2,r,,3,1,1,
5hn,RSVPtest,47,r,true,1275.1000000089407,1,g,,1,2,1,
5hn,RSVPtest,48,r,null,null,0,b,,3,3,0,
5hn,RSVPtest,49,r,false,1600.8999999910593,0,b,,2,3,0,
5hn,RSVPtest,50,r,true,1089.4000000059605,1,g,,3,2,1,
5hn,RSVPtest,51,r,true,1492.2999999970198,1,g,,3,2,1,
5hn,RSVPtest,52,r,true,1355.699999988079,1,g,,3,2,1,
5hn,RSVPtest,53,r,true,1930.8999999910593,0,b,,3,3,0,
5hn,RSVPtest,54,r,true,1994.2000000029802,1,g,,1,1,2,
5hn,RSVPtest,55,r,true,1520.4000000059605,2,r,,3,0,1,
5hn,RSVPtest,56,r,true,1569.5,1,g,,0,1,1,
5hn,RSVPtest,57,r,false,2484,2,r,,2,2,2,
5hn,RSVPtest,58,r,null,null,0,b,,0,3,0,
5hn,RSVPtest,59,r,false,1454.8999999910593,2,r,,1,1,2,
5hn,RSVPtest,60,r,true,1378.7000000029802,1,g,,3,1,1,
brk,brk,brk,brk,brk,brk,brk,brk,brk,brk,brk,brk,
5hn,RSVPtest,61,r,false,1457.2999999970198,2,r,,3,0,1,
5hn,RSVPtest,62,r,true,1201.8999999910593,2,r,,1,1,2,
5hn,RSVPtest,63,r,true,1570.2999999970198,0,b,,2,3,0,
5hn,RSVPtest,64,r,true,1186.2000000029802,0,b,,0,3,0,
5hn,RSVPtest,65,r,true,1364.199999988079,0,b,,3,3,0,
5hn,RSVPtest,66,r,true,1203.7000000029802,0,b,,0,3,0,
5hn,RSVPtest,67,r,false,1643.2999999970198,0,b,,3,3,0,
5hn,RSVPtest,68,r,false,1745.2999999970198,2,r,,2,0,1,
5hn,RSVPtest,69,r,true,1473.2000000029802,2,r,,2,2,2,
5hn,RSVPtest,70,r,true,2145.7000000029802,0,b,,1,3,0,
5hn,RSVPtest,71,r,false,1553.9000000059605,2,r,,1,1,2,
5hn,RSVPtest,72,r,true,1474,0,b,,3,3,0,
5hn,RSVPtest,73,r,true,1237.7000000029802,0,b,,0,3,0,
5hn,RSVPtest,74,r,false,1364.699999988079,1,g,,1,0,1,
5hn,RSVPtest,75,r,true,1683.3999999910593,0,b,,3,3,0,
5hn,RSVPtest,76,r,true,1568.2000000029802,2,r,,3,1,1,
5hn,RSVPtest,77,r,true,1485.2000000029802,0,b,,3,3,0,
5hn,RSVPtest,78,r,true,1593.8999999910593,1,g,,3,1,1,
5hn,RSVPtest,79,r,null,null,1,g,,2,0,1,
5hn,RSVPtest,80,r,true,1552.5999999940395,2,r,,3,2,1,
5hn,RSVPtest,81,r,true,1477.3999999910593,0,b,,2,3,0,
5hn,RSVPtest,82,r,false,1845.9000000059605,2,r,,0,1,1,
5hn,RSVPtest,83,r,true,1107.5,1,g,,3,1,1,
5hn,RSVPtest,84,r,true,1706.0999999940395,0,b,,1,3,0,
5hn,RSVPtest,85,r,true,1547.7999999970198,1,g,,1,1,2,
5hn,RSVPtest,86,r,true,1034.8999999910593,1,g,,1,2,1,
5hn,RSVPtest,87,r,true,1345.5,2,r,,0,0,2,
5hn,RSVPtest,88,r,false,1196.5999999940395,2,r,,1,2,1,
5hn,RSVPtest,89,r,true,1187.7000000029802,1,g,,1,0,1,
5hn,RSVPtest,90,r,true,1602.0999999940395,2,r,,0,0,2,
5hn,RSVPtest,91,r,false,1601.9000000059605,2,r,,1,2,1,
5hn,RSVPtest,92,r,true,938.7000000029802,0,b,,0,3,0,
5hn,RSVPtest,93,r,null,null,2,r,,3,0,1,
5hn,RSVPtest,94,r,true,1215.5999999940395,0,b,,3,3,0,
5hn,RSVPtest,95,r,false,1553.7999999970198,0,b,,2,3,0,
5hn,RSVPtest,96,r,true,1808.9000000059605,2,r,,3,2,1,
5hn,RSVPtest,97,r,true,1162.5999999940395,2,r,,3,0,1,
5hn,RSVPtest,98,r,true,1824.7000000029802,1,g,,0,2,1,
5hn,RSVPtest,99,r,true,1507.7999999970198,0,b,,3,3,0,
5hn,RSVPtest,100,r,true,1218.2000000029802,1,g,,3,2,1,
5hn,RSVPtest,101,r,false,1737.0999999940395,2,r,,0,2,1,
5hn,RSVPtest,102,r,true,2080,1,g,,0,0,2,
5hn,RSVPtest,103,r,null,null,1,g,,1,2,1,
5hn,RSVPtest,104,r,false,1544.3999999910593,2,r,,0,2,1,
5hn,RSVPtest,105,r,true,984.7000000029802,2,r,,1,2,1,
5hn,RSVPtest,106,r,true,1226.699999988079,2,r,,1,2,1,
5hn,RSVPtest,107,r,false,2035.5,1,g,,0,2,1,
5hn,RSVPtest,108,r,false,1323.2999999970198,1,g,,2,0,1,
5hn,RSVPtest,109,r,null,null,2,r,,3,2,1,
5hn,RSVPtest,110,r,false,1195.2999999970198,1,g,,3,1,1,
5hn,RSVPtest,111,r,true,1097.6000000089407,0,b,,2,3,0,
5hn,RSVPtest,112,r,true,1528.2000000029802,1,g,,2,1,1,
5hn,RSVPtest,113,r,true,1003,1,g,,3,0,1,
5hn,RSVPtest,114,r,false,1784.4000000059605,1,g,,2,2,2,
5hn,RSVPtest,115,r,null,null,1,g,,3,0,1,
5hn,RSVPtest,116,r,false,1188.1000000089407,2,r,,2,0,1,
5hn,RSVPtest,117,r,true,1192.0999999940395,1,g,,2,1,1,
5hn,RSVPtest,118,r,null,null,1,g,,3,0,1,
5hn,RSVPtest,119,r,true,1845.2000000029802,1,g,,2,1,1,
5hn,RSVPtest,120,r,true,1382.2999999970198,2,r,,2,0,1,
brk,brk,brk,brk,brk,brk,brk,brk,brk,brk,brk,brk,
5hn,RSVPtest,121,r,true,1476.9000000059605,2,r,,0,2,1,
5hn,RSVPtest,122,r,null,null,1,g,,3,2,1,
5hn,RSVPtest,123,r,false,1636.2000000029802,2,r,,3,1,1,
5hn,RSVPtest,124,r,true,1281.1000000089407,2,r,,3,1,1,
5hn,RSVPtest,125,r,false,1422.5,2,r,,0,1,1,
5hn,RSVPtest,126,r,true,1328.699999988079,1,g,,1,0,1,
5hn,RSVPtest,127,r,false,2192.2999999970198,1,g,,1,1,2,
5hn,RSVPtest,128,r,true,1064.0999999940395,0,b,,0,3,0,
5hn,RSVPtest,129,r,true,1728.5,1,g,,3,2,1,
5hn,RSVPtest,130,r,true,1906.0999999940395,0,b,,3,3,0,
5hn,RSVPtest,131,r,true,1650.5,1,g,,3,0,1,
5hn,RSVPtest,132,r,true,1332.2000000029802,2,r,,3,0,1,
5hn,RSVPtest,133,r,true,1237.5999999940395,2,r,,2,1,1,
5hn,RSVPtest,134,r,false,1740,0,b,,3,3,0,
5hn,RSVPtest,135,r,false,1297.5999999940395,1,g,,1,0,1,
5hn,RSVPtest,136,r,true,1872.7000000029802,2,r,,3,0,1,
5hn,RSVPtest,137,r,true,1023.5,2,r,,3,0,1,
5hn,RSVPtest,138,r,false,1195.0999999940395,1,g,,3,0,1,
5hn,RSVPtest,139,r,true,1683.7000000029802,1,g,,3,1,1,
5hn,RSVPtest,140,r,true,1684.4000000059605,2,r,,3,0,1,
5hn,RSVPtest,141,r,true,1419.4000000059605,0,b,,3,3,0,
5hn,RSVPtest,142,r,true,1545.7999999970198,2,r,,0,2,1,
5hn,RSVPtest,143,r,true,1481.800000011921,0,b,,2,3,0,
5hn,RSVPtest,144,r,true,1193.699999988079,1,g,,0,2,1,
5hn,RSVPtest,145,r,true,552.5,2,r,,3,1,1,
5hn,RSVPtest,146,r,false,1177.2999999970198,0,b,,0,3,0,
5hn,RSVPtest,147,r,true,793.6000000089407,1,g,,3,1,1,
5hn,RSVPtest,148,r,true,1171.0999999940395,2,r,,3,2,1,
5hn,RSVPtest,149,r,true,775.8999999910593,1,g,,3,1,1,
5hn,RSVPtest,150,r,true,1097.5999999940395,1,g,,3,2,1,
5hn,RSVPtest,151,r,false,684.1000000089407,2,r,,3,0,1,
5hn,RSVPtest,152,r,true,1530.2000000029802,0,b,,3,3,0,
5hn,RSVPtest,153,r,null,null,1,g,,3,2,1,
5hn,RSVPtest,154,r,true,1494.1000000089407,2,r,,3,1,1,
5hn,RSVPtest,155,r,false,1608.5999999940395,0,b,,0,3,0,
5hn,RSVPtest,156,r,true,782.7999999970198,1,g,,3,2,1,
5hn,RSVPtest,157,r,null,null,0,b,,0,3,0,
5hn,RSVPtest,158,r,false,1334.5,2,r,,0,0,2,
5hn,RSVPtest,159,r,true,927.7000000029802,2,r,,2,2,2,
5hn,RSVPtest,160,r,false,1768.7000000029802,1,g,,3,0,1,
5hn,RSVPtest,161,r,true,1670.7999999970198,1,g,,2,1,1,
5hn,RSVPtest,162,r,true,1361.2000000029802,1,g,,3,0,1,
5hn,RSVPtest,163,r,null,null,1,g,,0,1,1,
5hn,RSVPtest,164,r,true,1002.9000000059605,2,r,,3,2,1,
5hn,RSVPtest,165,r,false,1207.9000000059605,0,b,,1,3,0,
5hn,RSVPtest,166,r,null,null,2,r,,3,2,1,
5hn,RSVPtest,167,r,false,2363.800000011921,2,r,,0,0,2,
5hn,RSVPtest,168,r,null,null,1,g,,1,0,1,
5hn,RSVPtest,169,r,null,null,0,b,,3,3,0,
5hn,RSVPtest,170,r,true,1099.7999999970198,2,r,,3,2,1,
5hn,RSVPtest,171,r,false,1080.2999999970198,1,g,,2,2,2,
5hn,RSVPtest,172,r,false,902.5,1,g,,1,2,1,
5hn,RSVPtest,173,r,true,1305.4000000059605,2,r,,3,1,1,
5hn,RSVPtest,174,r,false,1408.7999999970198,0,b,,2,3,0,
5hn,RSVPtest,175,r,true,1641.5,1,g,,1,1,2,
5hn,RSVPtest,176,r,false,2089.1000000089407,0,b,,1,3,0,
5hn,RSVPtest,177,r,false,961.2000000029802,2,r,,1,0,1,
5hn,RSVPtest,178,r,true,1015.1999999880791,2,r,,1,1,2,
5hn,RSVPtest,179,r,false,719.1000000089407,0,b,,0,3,0,
5hn,RSVPtest,180,r,true,839.7999999970198,1,g,,0,1,1,
brk,brk,brk,brk,brk,brk,brk,brk,brk,brk,brk,brk,
5hn,RSVPtest,181,r,true,655,0,b,,1,3,0,
5hn,RSVPtest,182,r,true,973.7999999970198,2,r,,0,1,1,
5hn,RSVPtest,183,r,false,2120.2000000029802,1,g,,3,0,1,
5hn,RSVPtest,184,r,true,608.0999999940395,1,g,,2,0,1,
5hn,RSVPtest,185,r,true,638.5999999940395,2,r,,3,0,1,
5hn,RSVPtest,186,r,true,1721.2000000029802,1,g,,0,2,1,
5hn,RSVPtest,187,r,true,993.5,1,g,,1,1,2,
5hn,RSVPtest,188,r,true,899,2,r,,2,1,1,
5hn,RSVPtest,189,r,true,1163.9000000059605,1,g,,0,0,2,
5hn,RSVPtest,190,r,true,938.7000000029802,2,r,,3,2,1,
5hn,RSVPtest,191,r,false,1536,0,b,,3,3,0,
5hn,RSVPtest,192,r,true,1153.5,2,r,,2,2,2,
5hn,RSVPtest,193,r,true,1049.1000000089407,1,g,,0,1,1,
5hn,RSVPtest,194,r,false,1168.5,2,r,,1,1,2,
5hn,RSVPtest,195,r,false,1411.5,2,r,,3,0,1,
5hn,RSVPtest,196,r,false,722.6000000089407,1,g,,3,2,1,
5hn,RSVPtest,197,r,false,974.1000000089407,0,b,,0,3,0,
5hn,RSVPtest,198,r,true,1280.5999999940395,1,g,,3,2,1,
5hn,RSVPtest,199,r,true,1048.300000011921,0,b,,1,3,0,
5hn,RSVPtest,200,r,true,816.9000000059605,2,r,,0,0,2,
5hn,RSVPtest,201,r,true,601.8999999910593,2,r,,1,2,1,
5hn,RSVPtest,202,r,true,1268.7000000029802,1,g,,1,0,1,
5hn,RSVPtest,203,r,true,2016.7000000029802,2,r,,3,1,1,
5hn,RSVPtest,204,r,true,629.9000000059605,2,r,,2,1,1,
5hn,RSVPtest,205,r,true,1193.6000000089407,0,b,,2,3,0,
5hn,RSVPtest,206,r,true,2031.4000000059605,2,r,,3,2,1,
5hn,RSVPtest,207,r,true,896.4000000059605,2,r,,3,1,1,
5hn,RSVPtest,208,r,false,1319.5,1,g,,0,2,1,
5hn,RSVPtest,209,r,true,1031.5,2,r,,1,1,2,
5hn,RSVPtest,210,r,true,966.7999999970198,2,r,,1,0,1,
5hn,RSVPtest,211,r,null,null,2,r,,2,2,2,
5hn,RSVPtest,212,r,true,1201.5,1,g,,2,2,2,
5hn,RSVPtest,213,r,true,655.5,0,b,,3,3,0,
5hn,RSVPtest,214,r,true,1320.5999999940395,1,g,,3,0,1,
5hn,RSVPtest,215,r,false,857.2999999970198,0,b,,2,3,0,
5hn,RSVPtest,216,r,true,718.4000000059605,0,b,,1,3,0,
5hn,RSVPtest,217,r,true,1065.2999999970198,0,b,,1,3,0,
5hn,RSVPtest,218,r,false,888.2000000029802,1,g,,1,2,1,
5hn,RSVPtest,219,r,false,1121.3999999910593,1,g,,2,1,1,
5hn,RSVPtest,220,r,true,1863.7000000029802,0,b,,3,3,0,
5hn,RSVPtest,221,r,false,960,0,b,,2,3,0,
5hn,RSVPtest,222,r,true,592.7000000029802,2,r,,3,2,1,
5hn,RSVPtest,223,r,true,848.0999999940395,2,r,,3,1,1,
5hn,RSVPtest,224,r,true,976.2000000029802,1,g,,2,2,2,
5hn,RSVPtest,225,r,false,990.5,1,g,,3,0,1,
5hn,RSVPtest,226,r,null,null,2,r,,2,0,1,
5hn,RSVPtest,227,r,false,818.1000000089407,0,b,,2,3,0,
5hn,RSVPtest,228,r,true,998.6999999880791,1,g,,2,0,1,
5hn,RSVPtest,229,r,true,1008.8999999910593,1,g,,1,2,1,
5hn,RSVPtest,230,r,true,911.1000000089407,2,r,,1,2,1,
5hn,RSVPtest,231,r,false,580.4000000059605,2,r,,0,0,2,
5hn,RSVPtest,232,r,true,951.6999999880791,2,r,,3,1,1,
5hn,RSVPtest,233,r,false,1213.4000000059605,1,g,,2,2,2,
5hn,RSVPtest,234,r,false,1474.2000000029802,1,g,,1,1,2,
5hn,RSVPtest,235,r,true,695,0,b,,3,3,0,
5hn,RSVPtest,236,r,true,1064.300000011921,1,g,,3,1,1,
5hn,RSVPtest,237,r,true,2351.2999999970198,0,b,,3,3,0,
5hn,RSVPtest,238,r,false,1134.9000000059605,1,g,,3,2,1,
5hn,RSVPtest,239,r,true,638.7999999970198,1,g,,0,1,1,
5hn,RSVPtest,240,r,false,1286.1000000089407,1,g,,0,1,1,
