"success","trial_type","trial_index","time_elapsed","internal_node_id","subject","condition","rt","stimulus","key_press","url","responses","question_order","value","view_history","trialType","color","tgtPosition","orientation","correct","rewardType","reward","colorPosition"
"true","fullscreen","0","3264","0.0-0.0-0.0","tk14meo2sj","red","","","","","","","","","","","","","","","",""
"","html-keyboard-response","1","6163","0.0-0.0-1.0","tk14meo2sj","red","2897.530000016559","<div style= ""font-size:20px;"" <p> <strong> Welcome to the experiment! </strong><br> <p style=""color:red; font-size:25px;""> Please do NOT exit full screen until you are done with the experiment. </p><p style=""color:red;""> The experiment will be canceled and your data will be lost if you try to go back or refresh the page at any time during the experiment.</p><p style=""color:red;""> Please rely on your memory and do NOT write anything down throughout the experiment. </p><br><p style=""color:black;"">Press any key to continue.</p> </span>","32","","","","","","","","","","","","",""
"","external-html","2","54511","0.0-0.0-2.0","tk14meo2sj","red","48287.959999986924","","","http://labs.psychology.illinois.edu/~jy57/memory_capture/supportFiles/Consent.html","","","","","","","","","","","",""
"","survey-text","3","65675","0.0-0.0-3.0","tk14meo2sj","red","11154.7750000027","","","","{""Q0"":""18"",""Q1"":""0""}","","","","","","","","","","",""
"","survey-multi-select","4","67529","0.0-0.0-4.0","tk14meo2sj","red","1850.910000037402","","","","{""Q0"":[""White""]}","[0]","","","","","","","","","",""
"","survey-multi-choice","5","78894","0.0-0.0-5.0","tk14meo2sj","red","11361.109999998007","","","","{""Q0"":""Female"",""Q1"":""No"",""Q2"":""Somewhat worse than average""}","[0,1,2]","","","","","","","","","",""
"","call-function","6","78898","0.0-0.0-6.0","tk14meo2sj","red","","","","","","","","","","","","","","","",""
"","instructions","7","161211","0.0-1.0-0.0","tk14meo2sj","red","82313.43500001822","","","","","","","[{""page_index"":0,""viewing_time"":32357.81000001589},{""page_index"":1,""viewing_time"":13539.540000027046},{""page_index"":2,""viewing_time"":3706.724999996368},{""page_index"":3,""viewing_time"":4495.454999967478},{""page_index"":4,""viewing_time"":1373.7700000056066},{""page_index"":5,""viewing_time"":5082.315000006929},{""page_index"":6,""viewing_time"":12303.865000023507},{""page_index"":7,""viewing_time"":9453.319999971427}]","","","","","","","",""
"","html-keyboard-response","8","163216","0.0-1.0-1.0-0.0","tk14meo2sj","red","null","<p>Place your fingers on the <b>Z</b> and <b>M</b> keys. The experiment will begin shortly.</p><p>&nbsp</p>","null","","","","","","","","","","","","",""
"","html-keyboard-response","9","164218","0.0-1.0-1.0-1.0","tk14meo2sj","red","null","<p>Place your fingers on the <b>Z</b> and <b>M</b> keys. The experiment will begin shortly.</p><p>3</p>","null","","","","","","","","","","","","",""
"","html-keyboard-response","10","165220","0.0-1.0-1.0-2.0","tk14meo2sj","red","null","<p>Place your fingers on the <b>Z</b> and <b>M</b> keys. The experiment will begin shortly.</p><p>2</p>","null","","","","","","","","","","","","",""
"","html-keyboard-response","11","166224","0.0-1.0-1.0-3.0","tk14meo2sj","red","null","<p>Place your fingers on the <b>Z</b> and <b>M</b> keys. The experiment will begin shortly.</p><p>1</p>","null","","","","","","","","","","","","",""
"","html-keyboard-response","12","167181","0.0-1.0-2.0-0.0","tk14meo2sj","red","null","<svg viewBox=""0 0 100 100"" > <path d=""M 50 52 L 50 48"" stroke=""black"" stroke-width="".5""/> <path d=""M 52 50 L 48 50"" stroke=""black"" stroke-width="".5""/>","null","","","","","","","","","","","","",""
"","html-keyboard-response","13","167856","0.0-1.0-2.0-1.0","tk14meo2sj","red","672.0050000003539","<svg viewBox=""0 0 100 100"" ><text font-size=""10%"" text-anchor=""middle""  x=""50"" y=""98"">Press Z for horizontal or M for vertical</text><circle cx=""50"" cy=""50"" r=""10"" fill=""none"" transform=""translate( 26  15)"" stroke=""magenta"" /><circle cx=""50"" cy=""50"" r=""10"" fill=""none"" transform=""translate(  0  30)"" stroke=""blueviolet"" /><circle cx=""50"" cy=""50"" r=""10"" fill=""none"" transform=""translate(-26  15)"" stroke=""cyan"" /><circle cx=""50"" cy=""50"" r=""10"" fill=""none"" transform=""translate(-26 -15)"" stroke=""red"" /><circle cx=""50"" cy=""50"" r=""10"" fill=""none"" transform=""translate(  0 -30)"" stroke=""black"" /><circle cx=""50"" cy=""50"" r=""10"" fill=""none"" transform=""translate( 26 -15)"" stroke=""gold"" /><path d=""M 50 57 L 50 43"" stroke=""black"" transform=""translate( 26  15) rotate(45 50 50)""/><path d=""M 50 57 L 50 43"" stroke=""black"" transform=""translate(  0  30) rotate(-45 50 50)""/><path d=""M 50 57 L 50 43"" stroke=""black"" transform=""translate(-26  15) rotate(-45 50 50)""/><path d=""M 50 57 L 50 43"" stroke=""black"" transform=""translate(-26 -15) rotate(0 50 50)""/><path d=""M 50 57 L 50 43"" stroke=""black"" transform=""translate(  0 -30) rotate(45 50 50)""/><path d=""M 50 57 L 50 43"" stroke=""black"" transform=""translate( 26 -15) rotate(45 50 50)""/><path d=""M 50 52 L 50 48"" stroke=""black"" stroke-width="".5""/> <path d=""M 52 50 L 48 50"" stroke=""black"" stroke-width="".5""/></svg>","90","","","","","","VDACtraining","red","3","vertical","false","","",""
"","html-keyboard-response","14","170365","0.0-1.0-2.0-2.0","tk14meo2sj","red","null","<p style=""font-size:300%;"">Miss.</p> <p style=""font-size:300%;"">Wrong response.</p>","null","","","","","","","","","","","","",""
"","html-keyboard-response","15","172325","0.0-1.0-2.0-0.1","tk14meo2sj","red","null","<svg viewBox=""0 0 100 100"" > <path d=""M 50 52 L 50 48"" stroke=""black"" stroke-width="".5""/> <path d=""M 52 50 L 48 50"" stroke=""black"" stroke-width="".5""/>","null","","","","","","","","","","","","",""
"","html-keyboard-response","16","173323","0.0-1.0-2.0-1.1","tk14meo2sj","red","995.4149999539368","<svg viewBox=""0 0 100 100"" ><text font-size=""10%"" text-anchor=""middle""  x=""50"" y=""98"">Press Z for horizontal or M for vertical</text><circle cx=""50"" cy=""50"" r=""10"" fill=""none"" transform=""translate( 26  15)"" stroke=""blueviolet"" /><circle cx=""50"" cy=""50"" r=""10"" fill=""none"" transform=""translate(  0  30)"" stroke=""cyan"" /><circle cx=""50"" cy=""50"" r=""10"" fill=""none"" transform=""translate(-26  15)"" stroke=""black"" /><circle cx=""50"" cy=""50"" r=""10"" fill=""none"" transform=""translate(-26 -15)"" stroke=""magenta"" /><circle cx=""50"" cy=""50"" r=""10"" fill=""none"" transform=""translate(  0 -30)"" stroke=""gold"" /><circle cx=""50"" cy=""50"" r=""10"" fill=""none"" transform=""translate( 26 -15)"" stroke=""red"" /><path d=""M 50 57 L 50 43"" stroke=""black"" transform=""translate( 26  15) rotate(45 50 50)""/><path d=""M 50 57 L 50 43"" stroke=""black"" transform=""translate(  0  30) rotate(-45 50 50)""/><path d=""M 50 57 L 50 43"" stroke=""black"" transform=""translate(-26  15) rotate(-45 50 50)""/><path d=""M 50 57 L 50 43"" stroke=""black"" transform=""translate(-26 -15) rotate(45 50 50)""/><path d=""M 50 57 L 50 43"" stroke=""black"" transform=""translate(  0 -30) rotate(-45 50 50)""/><path d=""M 50 57 L 50 43"" stroke=""black"" transform=""translate( 26 -15) rotate(0 50 50)""/><path d=""M 50 52 L 50 48"" stroke=""black"" stroke-width="".5""/> <path d=""M 52 50 L 48 50"" stroke=""black"" stroke-width="".5""/></svg>","77","","","","","","VDACtraining","red","5","vertical","true","","",""
"","html-keyboard-response","17","175831","0.0-1.0-2.0-2.1","tk14meo2sj","red","null","<p style=""font-size:300%;"">Correct!</p>","null","","","","","","","","","","","","",""
"","html-keyboard-response","18","177789","0.0-1.0-2.0-0.2","tk14meo2sj","red","null","<svg viewBox=""0 0 100 100"" > <path d=""M 50 52 L 50 48"" stroke=""black"" stroke-width="".5""/> <path d=""M 52 50 L 48 50"" stroke=""black"" stroke-width="".5""/>","null","","","","","","","","","","","","",""
"","html-keyboard-response","19","178794","0.0-1.0-2.0-1.2","tk14meo2sj","red","null","<svg viewBox=""0 0 100 100"" ><text font-size=""10%"" text-anchor=""middle""  x=""50"" y=""98"">Press Z for horizontal or M for vertical</text><circle cx=""50"" cy=""50"" r=""10"" fill=""none"" transform=""translate( 26  15)"" stroke=""black"" /><circle cx=""50"" cy=""50"" r=""10"" fill=""none"" transform=""translate(  0  30)"" stroke=""magenta"" /><circle cx=""50"" cy=""50"" r=""10"" fill=""none"" transform=""translate(-26  15)"" stroke=""blueviolet"" /><circle cx=""50"" cy=""50"" r=""10"" fill=""none"" transform=""translate(-26 -15)"" stroke=""green"" /><circle cx=""50"" cy=""50"" r=""10"" fill=""none"" transform=""translate(  0 -30)"" stroke=""cyan"" /><circle cx=""50"" cy=""50"" r=""10"" fill=""none"" transform=""translate( 26 -15)"" stroke=""gold"" /><path d=""M 50 57 L 50 43"" stroke=""black"" transform=""translate( 26  15) rotate(45 50 50)""/><path d=""M 50 57 L 50 43"" stroke=""black"" transform=""translate(  0  30) rotate(-45 50 50)""/><path d=""M 50 57 L 50 43"" stroke=""black"" transform=""translate(-26  15) rotate(45 50 50)""/><path d=""M 50 57 L 50 43"" stroke=""black"" transform=""translate(-26 -15) rotate(90 50 50)""/><path d=""M 50 57 L 50 43"" stroke=""black"" transform=""translate(  0 -30) rotate(-45 50 50)""/><path d=""M 50 57 L 50 43"" stroke=""black"" transform=""translate( 26 -15) rotate(45 50 50)""/><path d=""M 50 52 L 50 48"" stroke=""black"" stroke-width="".5""/> <path d=""M 52 50 L 48 50"" stroke=""black"" stroke-width="".5""/></svg>","null","","","","","","VDACtraining","green","3","horizontal","null","","",""
"","html-keyboard-response","20","181302","0.0-1.0-2.0-2.2","tk14meo2sj","red","null","<p style=""font-size:300%;"">Miss.</p> <p style=""font-size:300%;"">Too slow.</p>","null","","","","","","","","","","","","",""
"","html-keyboard-response","21","183257","0.0-1.0-2.0-0.3","tk14meo2sj","red","null","<svg viewBox=""0 0 100 100"" > <path d=""M 50 52 L 50 48"" stroke=""black"" stroke-width="".5""/> <path d=""M 52 50 L 48 50"" stroke=""black"" stroke-width="".5""/>","null","","","","","","","","","","","","",""
"","html-keyboard-response","22","183979","0.0-1.0-2.0-1.3","tk14meo2sj","red","718.944999971427","<svg viewBox=""0 0 100 100"" ><text font-size=""10%"" text-anchor=""middle""  x=""50"" y=""98"">Press Z for horizontal or M for vertical</text><circle cx=""50"" cy=""50"" r=""10"" fill=""none"" transform=""translate( 26  15)"" stroke=""magenta"" /><circle cx=""50"" cy=""50"" r=""10"" fill=""none"" transform=""translate(  0  30)"" stroke=""blueviolet"" /><circle cx=""50"" cy=""50"" r=""10"" fill=""none"" transform=""translate(-26  15)"" stroke=""green"" /><circle cx=""50"" cy=""50"" r=""10"" fill=""none"" transform=""translate(-26 -15)"" stroke=""black"" /><circle cx=""50"" cy=""50"" r=""10"" fill=""none"" transform=""translate(  0 -30)"" stroke=""cyan"" /><circle cx=""50"" cy=""50"" r=""10"" fill=""none"" transform=""translate( 26 -15)"" stroke=""gold"" /><path d=""M 50 57 L 50 43"" stroke=""black"" transform=""translate( 26  15) rotate(45 50 50)""/><path d=""M 50 57 L 50 43"" stroke=""black"" transform=""translate(  0  30) rotate(45 50 50)""/><path d=""M 50 57 L 50 43"" stroke=""black"" transform=""translate(-26  15) rotate(0 50 50)""/><path d=""M 50 57 L 50 43"" stroke=""black"" transform=""translate(-26 -15) rotate(45 50 50)""/><path d=""M 50 57 L 50 43"" stroke=""black"" transform=""translate(  0 -30) rotate(45 50 50)""/><path d=""M 50 57 L 50 43"" stroke=""black"" transform=""translate( 26 -15) rotate(45 50 50)""/><path d=""M 50 52 L 50 48"" stroke=""black"" stroke-width="".5""/> <path d=""M 52 50 L 48 50"" stroke=""black"" stroke-width="".5""/></svg>","77","","","","","","VDACtraining","green","2","vertical","true","","",""
"","html-keyboard-response","23","186485","0.0-1.0-2.0-2.3","tk14meo2sj","red","null","<p style=""font-size:300%;"">Correct!</p>","null","","","","","","","","","","","","",""
"","html-keyboard-response","24","188442","0.0-1.0-2.0-0.4","tk14meo2sj","red","null","<svg viewBox=""0 0 100 100"" > <path d=""M 50 52 L 50 48"" stroke=""black"" stroke-width="".5""/> <path d=""M 52 50 L 48 50"" stroke=""black"" stroke-width="".5""/>","null","","","","","","","","","","","","",""
"","html-keyboard-response","25","189325","0.0-1.0-2.0-1.4","tk14meo2sj","red","880.2150000119582","<svg viewBox=""0 0 100 100"" ><text font-size=""10%"" text-anchor=""middle""  x=""50"" y=""98"">Press Z for horizontal or M for vertical</text><circle cx=""50"" cy=""50"" r=""10"" fill=""none"" transform=""translate( 26  15)"" stroke=""cyan"" /><circle cx=""50"" cy=""50"" r=""10"" fill=""none"" transform=""translate(  0  30)"" stroke=""green"" /><circle cx=""50"" cy=""50"" r=""10"" fill=""none"" transform=""translate(-26  15)"" stroke=""black"" /><circle cx=""50"" cy=""50"" r=""10"" fill=""none"" transform=""translate(-26 -15)"" stroke=""magenta"" /><circle cx=""50"" cy=""50"" r=""10"" fill=""none"" transform=""translate(  0 -30)"" stroke=""gold"" /><circle cx=""50"" cy=""50"" r=""10"" fill=""none"" transform=""translate( 26 -15)"" stroke=""blueviolet"" /><path d=""M 50 57 L 50 43"" stroke=""black"" transform=""translate( 26  15) rotate(45 50 50)""/><path d=""M 50 57 L 50 43"" stroke=""black"" transform=""translate(  0  30) rotate(90 50 50)""/><path d=""M 50 57 L 50 43"" stroke=""black"" transform=""translate(-26  15) rotate(45 50 50)""/><path d=""M 50 57 L 50 43"" stroke=""black"" transform=""translate(-26 -15) rotate(-45 50 50)""/><path d=""M 50 57 L 50 43"" stroke=""black"" transform=""translate(  0 -30) rotate(-45 50 50)""/><path d=""M 50 57 L 50 43"" stroke=""black"" transform=""translate( 26 -15) rotate(45 50 50)""/><path d=""M 50 52 L 50 48"" stroke=""black"" stroke-width="".5""/> <path d=""M 52 50 L 48 50"" stroke=""black"" stroke-width="".5""/></svg>","90","","","","","","VDACtraining","green","1","horizontal","true","","",""
"","html-keyboard-response","26","191829","0.0-1.0-2.0-2.4","tk14meo2sj","red","null","<p style=""font-size:300%;"">Correct!</p>","null","","","","","","","","","","","","",""
"","html-keyboard-response","27","193788","0.0-1.0-2.0-0.5","tk14meo2sj","red","null","<svg viewBox=""0 0 100 100"" > <path d=""M 50 52 L 50 48"" stroke=""black"" stroke-width="".5""/> <path d=""M 52 50 L 48 50"" stroke=""black"" stroke-width="".5""/>","null","","","","","","","","","","","","",""
"","html-keyboard-response","28","194744","0.0-1.0-2.0-1.5","tk14meo2sj","red","953.5349999787286","<svg viewBox=""0 0 100 100"" ><text font-size=""10%"" text-anchor=""middle""  x=""50"" y=""98"">Press Z for horizontal or M for vertical</text><circle cx=""50"" cy=""50"" r=""10"" fill=""none"" transform=""translate( 26  15)"" stroke=""green"" /><circle cx=""50"" cy=""50"" r=""10"" fill=""none"" transform=""translate(  0  30)"" stroke=""gold"" /><circle cx=""50"" cy=""50"" r=""10"" fill=""none"" transform=""translate(-26  15)"" stroke=""magenta"" /><circle cx=""50"" cy=""50"" r=""10"" fill=""none"" transform=""translate(-26 -15)"" stroke=""blueviolet"" /><circle cx=""50"" cy=""50"" r=""10"" fill=""none"" transform=""translate(  0 -30)"" stroke=""cyan"" /><circle cx=""50"" cy=""50"" r=""10"" fill=""none"" transform=""translate( 26 -15)"" stroke=""black"" /><path d=""M 50 57 L 50 43"" stroke=""black"" transform=""translate( 26  15) rotate(0 50 50)""/><path d=""M 50 57 L 50 43"" stroke=""black"" transform=""translate(  0  30) rotate(-45 50 50)""/><path d=""M 50 57 L 50 43"" stroke=""black"" transform=""translate(-26  15) rotate(-45 50 50)""/><path d=""M 50 57 L 50 43"" stroke=""black"" transform=""translate(-26 -15) rotate(-45 50 50)""/><path d=""M 50 57 L 50 43"" stroke=""black"" transform=""translate(  0 -30) rotate(45 50 50)""/><path d=""M 50 57 L 50 43"" stroke=""black"" transform=""translate( 26 -15) rotate(-45 50 50)""/><path d=""M 50 52 L 50 48"" stroke=""black"" stroke-width="".5""/> <path d=""M 52 50 L 48 50"" stroke=""black"" stroke-width="".5""/></svg>","77","","","","","","VDACtraining","green","0","vertical","true","","",""
"","html-keyboard-response","29","197247","0.0-1.0-2.0-2.5","tk14meo2sj","red","null","<p style=""font-size:300%;"">Correct!</p>","null","","","","","","","","","","","","",""
"","html-keyboard-response","30","199205","0.0-1.0-2.0-0.6","tk14meo2sj","red","null","<svg viewBox=""0 0 100 100"" > <path d=""M 50 52 L 50 48"" stroke=""black"" stroke-width="".5""/> <path d=""M 52 50 L 48 50"" stroke=""black"" stroke-width="".5""/>","null","","","","","","","","","","","","",""
"","html-keyboard-response","31","199802","0.0-1.0-2.0-1.6","tk14meo2sj","red","595.1699999859557","<svg viewBox=""0 0 100 100"" ><text font-size=""10%"" text-anchor=""middle""  x=""50"" y=""98"">Press Z for horizontal or M for vertical</text><circle cx=""50"" cy=""50"" r=""10"" fill=""none"" transform=""translate( 26  15)"" stroke=""cyan"" /><circle cx=""50"" cy=""50"" r=""10"" fill=""none"" transform=""translate(  0  30)"" stroke=""gold"" /><circle cx=""50"" cy=""50"" r=""10"" fill=""none"" transform=""translate(-26  15)"" stroke=""magenta"" /><circle cx=""50"" cy=""50"" r=""10"" fill=""none"" transform=""translate(-26 -15)"" stroke=""blueviolet"" /><circle cx=""50"" cy=""50"" r=""10"" fill=""none"" transform=""translate(  0 -30)"" stroke=""red"" /><circle cx=""50"" cy=""50"" r=""10"" fill=""none"" transform=""translate( 26 -15)"" stroke=""black"" /><path d=""M 50 57 L 50 43"" stroke=""black"" transform=""translate( 26  15) rotate(45 50 50)""/><path d=""M 50 57 L 50 43"" stroke=""black"" transform=""translate(  0  30) rotate(-45 50 50)""/><path d=""M 50 57 L 50 43"" stroke=""black"" transform=""translate(-26  15) rotate(-45 50 50)""/><path d=""M 50 57 L 50 43"" stroke=""black"" transform=""translate(-26 -15) rotate(45 50 50)""/><path d=""M 50 57 L 50 43"" stroke=""black"" transform=""translate(  0 -30) rotate(90 50 50)""/><path d=""M 50 57 L 50 43"" stroke=""black"" transform=""translate( 26 -15) rotate(45 50 50)""/><path d=""M 50 52 L 50 48"" stroke=""black"" stroke-width="".5""/> <path d=""M 52 50 L 48 50"" stroke=""black"" stroke-width="".5""/></svg>","77","","","","","","VDACtraining","red","4","horizontal","false","","",""
"","html-keyboard-response","32","202307","0.0-1.0-2.0-2.6","tk14meo2sj","red","null","<p style=""font-size:300%;"">Miss.</p> <p style=""font-size:300%;"">Wrong response.</p>","null","","","","","","","","","","","","",""
"","html-keyboard-response","33","204269","0.0-1.0-2.0-0.7","tk14meo2sj","red","null","<svg viewBox=""0 0 100 100"" > <path d=""M 50 52 L 50 48"" stroke=""black"" stroke-width="".5""/> <path d=""M 52 50 L 48 50"" stroke=""black"" stroke-width="".5""/>","null","","","","","","","","","","","","",""
"","html-keyboard-response","34","205276","0.0-1.0-2.0-1.7","tk14meo2sj","red","null","<svg viewBox=""0 0 100 100"" ><text font-size=""10%"" text-anchor=""middle""  x=""50"" y=""98"">Press Z for horizontal or M for vertical</text><circle cx=""50"" cy=""50"" r=""10"" fill=""none"" transform=""translate( 26  15)"" stroke=""blueviolet"" /><circle cx=""50"" cy=""50"" r=""10"" fill=""none"" transform=""translate(  0  30)"" stroke=""black"" /><circle cx=""50"" cy=""50"" r=""10"" fill=""none"" transform=""translate(-26  15)"" stroke=""magenta"" /><circle cx=""50"" cy=""50"" r=""10"" fill=""none"" transform=""translate(-26 -15)"" stroke=""gold"" /><circle cx=""50"" cy=""50"" r=""10"" fill=""none"" transform=""translate(  0 -30)"" stroke=""cyan"" /><circle cx=""50"" cy=""50"" r=""10"" fill=""none"" transform=""translate( 26 -15)"" stroke=""green"" /><path d=""M 50 57 L 50 43"" stroke=""black"" transform=""translate( 26  15) rotate(45 50 50)""/><path d=""M 50 57 L 50 43"" stroke=""black"" transform=""translate(  0  30) rotate(45 50 50)""/><path d=""M 50 57 L 50 43"" stroke=""black"" transform=""translate(-26  15) rotate(-45 50 50)""/><path d=""M 50 57 L 50 43"" stroke=""black"" transform=""translate(-26 -15) rotate(-45 50 50)""/><path d=""M 50 57 L 50 43"" stroke=""black"" transform=""translate(  0 -30) rotate(-45 50 50)""/><path d=""M 50 57 L 50 43"" stroke=""black"" transform=""translate( 26 -15) rotate(90 50 50)""/><path d=""M 50 52 L 50 48"" stroke=""black"" stroke-width="".5""/> <path d=""M 52 50 L 48 50"" stroke=""black"" stroke-width="".5""/></svg>","null","","","","","","VDACtraining","green","5","horizontal","null","","",""
"","html-keyboard-response","35","207786","0.0-1.0-2.0-2.7","tk14meo2sj","red","null","<p style=""font-size:300%;"">Miss.</p> <p style=""font-size:300%;"">Too slow.</p>","null","","","","","","","","","","","","",""
"","html-keyboard-response","36","209745","0.0-1.0-2.0-0.8","tk14meo2sj","red","null","<svg viewBox=""0 0 100 100"" > <path d=""M 50 52 L 50 48"" stroke=""black"" stroke-width="".5""/> <path d=""M 52 50 L 48 50"" stroke=""black"" stroke-width="".5""/>","null","","","","","","","","","","","","",""
"","html-keyboard-response","37","210417","0.0-1.0-2.0-1.8","tk14meo2sj","red","668.9799999585375","<svg viewBox=""0 0 100 100"" ><text font-size=""10%"" text-anchor=""middle""  x=""50"" y=""98"">Press Z for horizontal or M for vertical</text><circle cx=""50"" cy=""50"" r=""10"" fill=""none"" transform=""translate( 26  15)"" stroke=""magenta"" /><circle cx=""50"" cy=""50"" r=""10"" fill=""none"" transform=""translate(  0  30)"" stroke=""red"" /><circle cx=""50"" cy=""50"" r=""10"" fill=""none"" transform=""translate(-26  15)"" stroke=""gold"" /><circle cx=""50"" cy=""50"" r=""10"" fill=""none"" transform=""translate(-26 -15)"" stroke=""blueviolet"" /><circle cx=""50"" cy=""50"" r=""10"" fill=""none"" transform=""translate(  0 -30)"" stroke=""cyan"" /><circle cx=""50"" cy=""50"" r=""10"" fill=""none"" transform=""translate( 26 -15)"" stroke=""black"" /><path d=""M 50 57 L 50 43"" stroke=""black"" transform=""translate( 26  15) rotate(45 50 50)""/><path d=""M 50 57 L 50 43"" stroke=""black"" transform=""translate(  0  30) rotate(0 50 50)""/><path d=""M 50 57 L 50 43"" stroke=""black"" transform=""translate(-26  15) rotate(-45 50 50)""/><path d=""M 50 57 L 50 43"" stroke=""black"" transform=""translate(-26 -15) rotate(45 50 50)""/><path d=""M 50 57 L 50 43"" stroke=""black"" transform=""translate(  0 -30) rotate(-45 50 50)""/><path d=""M 50 57 L 50 43"" stroke=""black"" transform=""translate( 26 -15) rotate(45 50 50)""/><path d=""M 50 52 L 50 48"" stroke=""black"" stroke-width="".5""/> <path d=""M 52 50 L 48 50"" stroke=""black"" stroke-width="".5""/></svg>","77","","","","","","VDACtraining","red","1","vertical","true","","",""
"","html-keyboard-response","38","212922","0.0-1.0-2.0-2.8","tk14meo2sj","red","null","<p style=""font-size:300%;"">Correct!</p>","null","","","","","","","","","","","","",""
"","html-keyboard-response","39","214883","0.0-1.0-2.0-0.9","tk14meo2sj","red","null","<svg viewBox=""0 0 100 100"" > <path d=""M 50 52 L 50 48"" stroke=""black"" stroke-width="".5""/> <path d=""M 52 50 L 48 50"" stroke=""black"" stroke-width="".5""/>","null","","","","","","","","","","","","",""
"","html-keyboard-response","40","215465","0.0-1.0-2.0-1.9","tk14meo2sj","red","579.4500000192784","<svg viewBox=""0 0 100 100"" ><text font-size=""10%"" text-anchor=""middle""  x=""50"" y=""98"">Press Z for horizontal or M for vertical</text><circle cx=""50"" cy=""50"" r=""10"" fill=""none"" transform=""translate( 26  15)"" stroke=""cyan"" /><circle cx=""50"" cy=""50"" r=""10"" fill=""none"" transform=""translate(  0  30)"" stroke=""black"" /><circle cx=""50"" cy=""50"" r=""10"" fill=""none"" transform=""translate(-26  15)"" stroke=""red"" /><circle cx=""50"" cy=""50"" r=""10"" fill=""none"" transform=""translate(-26 -15)"" stroke=""blueviolet"" /><circle cx=""50"" cy=""50"" r=""10"" fill=""none"" transform=""translate(  0 -30)"" stroke=""gold"" /><circle cx=""50"" cy=""50"" r=""10"" fill=""none"" transform=""translate( 26 -15)"" stroke=""magenta"" /><path d=""M 50 57 L 50 43"" stroke=""black"" transform=""translate( 26  15) rotate(-45 50 50)""/><path d=""M 50 57 L 50 43"" stroke=""black"" transform=""translate(  0  30) rotate(-45 50 50)""/><path d=""M 50 57 L 50 43"" stroke=""black"" transform=""translate(-26  15) rotate(90 50 50)""/><path d=""M 50 57 L 50 43"" stroke=""black"" transform=""translate(-26 -15) rotate(-45 50 50)""/><path d=""M 50 57 L 50 43"" stroke=""black"" transform=""translate(  0 -30) rotate(45 50 50)""/><path d=""M 50 57 L 50 43"" stroke=""black"" transform=""translate( 26 -15) rotate(-45 50 50)""/><path d=""M 50 52 L 50 48"" stroke=""black"" stroke-width="".5""/> <path d=""M 52 50 L 48 50"" stroke=""black"" stroke-width="".5""/></svg>","77","","","","","","VDACtraining","red","2","horizontal","false","","",""
"","html-keyboard-response","41","217967","0.0-1.0-2.0-2.9","tk14meo2sj","red","null","<p style=""font-size:300%;"">Miss.</p> <p style=""font-size:300%;"">Wrong response.</p>","null","","","","","","","","","","","","",""
"","call-function","42","218971","0.0-1.0-3.0","tk14meo2sj","red","","","","","","","","","","","","","","","",""
"","html-keyboard-response","43","223584","0.0-1.0-4.0","tk14meo2sj","red","4611.4650000236","<p>You have now finished the training exercise. If you would like to repeat the instructions and training exercise, press R. If you are ready to continue to the task, press C. </p>","82","","","","","","","","","","","","",""
"","instructions","44","244656","0.0-1.1-0.1","tk14meo2sj","red","21070.059999998193","","","","","","","[{""page_index"":0,""viewing_time"":1589.5199999795295},{""page_index"":1,""viewing_time"":2723.200000007637},{""page_index"":2,""viewing_time"":443.7199999811128},{""page_index"":3,""viewing_time"":10193.124999990687},{""page_index"":4,""viewing_time"":576.3100000331178},{""page_index"":5,""viewing_time"":2795.400000002701},{""page_index"":6,""viewing_time"":1656.0750000062399},{""page_index"":7,""viewing_time"":1092.514999967534}]","","","","","","","",""
"","html-keyboard-response","45","246660","0.0-1.1-1.1-0.1","tk14meo2sj","red","null","<p>Place your fingers on the <b>Z</b> and <b>M</b> keys. The experiment will begin shortly.</p><p>&nbsp</p>","null","","","","","","","","","","","","",""
"","html-keyboard-response","46","247665","0.0-1.1-1.1-1.1","tk14meo2sj","red","null","<p>Place your fingers on the <b>Z</b> and <b>M</b> keys. The experiment will begin shortly.</p><p>3</p>","null","","","","","","","","","","","","",""
"","html-keyboard-response","47","248670","0.0-1.1-1.1-2.1","tk14meo2sj","red","null","<p>Place your fingers on the <b>Z</b> and <b>M</b> keys. The experiment will begin shortly.</p><p>2</p>","null","","","","","","","","","","","","",""
"","html-keyboard-response","48","249674","0.0-1.1-1.1-3.1","tk14meo2sj","red","null","<p>Place your fingers on the <b>Z</b> and <b>M</b> keys. The experiment will begin shortly.</p><p>1</p>","null","","","","","","","","","","","","",""
"","html-keyboard-response","49","250632","0.0-1.1-2.1-0.10","tk14meo2sj","red","null","<svg viewBox=""0 0 100 100"" > <path d=""M 50 52 L 50 48"" stroke=""black"" stroke-width="".5""/> <path d=""M 52 50 L 48 50"" stroke=""black"" stroke-width="".5""/>","null","","","","","","","","","","","","",""
"","html-keyboard-response","50","251640","0.0-1.1-2.1-1.10","tk14meo2sj","red","null","<svg viewBox=""0 0 100 100"" ><text font-size=""10%"" text-anchor=""middle""  x=""50"" y=""98"">Press Z for horizontal or M for vertical</text><circle cx=""50"" cy=""50"" r=""10"" fill=""none"" transform=""translate( 26  15)"" stroke=""green"" /><circle cx=""50"" cy=""50"" r=""10"" fill=""none"" transform=""translate(  0  30)"" stroke=""gold"" /><circle cx=""50"" cy=""50"" r=""10"" fill=""none"" transform=""translate(-26  15)"" stroke=""magenta"" /><circle cx=""50"" cy=""50"" r=""10"" fill=""none"" transform=""translate(-26 -15)"" stroke=""blueviolet"" /><circle cx=""50"" cy=""50"" r=""10"" fill=""none"" transform=""translate(  0 -30)"" stroke=""cyan"" /><circle cx=""50"" cy=""50"" r=""10"" fill=""none"" transform=""translate( 26 -15)"" stroke=""black"" /><path d=""M 50 57 L 50 43"" stroke=""black"" transform=""translate( 26  15) rotate(0 50 50)""/><path d=""M 50 57 L 50 43"" stroke=""black"" transform=""translate(  0  30) rotate(-45 50 50)""/><path d=""M 50 57 L 50 43"" stroke=""black"" transform=""translate(-26  15) rotate(-45 50 50)""/><path d=""M 50 57 L 50 43"" stroke=""black"" transform=""translate(-26 -15) rotate(-45 50 50)""/><path d=""M 50 57 L 50 43"" stroke=""black"" transform=""translate(  0 -30) rotate(45 50 50)""/><path d=""M 50 57 L 50 43"" stroke=""black"" transform=""translate( 26 -15) rotate(-45 50 50)""/><path d=""M 50 52 L 50 48"" stroke=""black"" stroke-width="".5""/> <path d=""M 52 50 L 48 50"" stroke=""black"" stroke-width="".5""/></svg>","null","","","","","","VDACtraining","green","0","vertical","null","","",""
"","html-keyboard-response","51","254145","0.0-1.1-2.1-2.10","tk14meo2sj","red","null","<p style=""font-size:300%;"">Miss.</p> <p style=""font-size:300%;"">Too slow.</p>","null","","","","","","","","","","","","",""
"","html-keyboard-response","52","256106","0.0-1.1-2.1-0.11","tk14meo2sj","red","null","<svg viewBox=""0 0 100 100"" > <path d=""M 50 52 L 50 48"" stroke=""black"" stroke-width="".5""/> <path d=""M 52 50 L 48 50"" stroke=""black"" stroke-width="".5""/>","null","","","","","","","","","","","","",""
"","html-keyboard-response","53","256660","0.0-1.1-2.1-1.11","tk14meo2sj","red","551.6799999750219","<svg viewBox=""0 0 100 100"" ><text font-size=""10%"" text-anchor=""middle""  x=""50"" y=""98"">Press Z for horizontal or M for vertical</text><circle cx=""50"" cy=""50"" r=""10"" fill=""none"" transform=""translate( 26  15)"" stroke=""cyan"" /><circle cx=""50"" cy=""50"" r=""10"" fill=""none"" transform=""translate(  0  30)"" stroke=""black"" /><circle cx=""50"" cy=""50"" r=""10"" fill=""none"" transform=""translate(-26  15)"" stroke=""red"" /><circle cx=""50"" cy=""50"" r=""10"" fill=""none"" transform=""translate(-26 -15)"" stroke=""blueviolet"" /><circle cx=""50"" cy=""50"" r=""10"" fill=""none"" transform=""translate(  0 -30)"" stroke=""gold"" /><circle cx=""50"" cy=""50"" r=""10"" fill=""none"" transform=""translate( 26 -15)"" stroke=""magenta"" /><path d=""M 50 57 L 50 43"" stroke=""black"" transform=""translate( 26  15) rotate(-45 50 50)""/><path d=""M 50 57 L 50 43"" stroke=""black"" transform=""translate(  0  30) rotate(-45 50 50)""/><path d=""M 50 57 L 50 43"" stroke=""black"" transform=""translate(-26  15) rotate(90 50 50)""/><path d=""M 50 57 L 50 43"" stroke=""black"" transform=""translate(-26 -15) rotate(-45 50 50)""/><path d=""M 50 57 L 50 43"" stroke=""black"" transform=""translate(  0 -30) rotate(45 50 50)""/><path d=""M 50 57 L 50 43"" stroke=""black"" transform=""translate( 26 -15) rotate(-45 50 50)""/><path d=""M 50 52 L 50 48"" stroke=""black"" stroke-width="".5""/> <path d=""M 52 50 L 48 50"" stroke=""black"" stroke-width="".5""/></svg>","90","","","","","","VDACtraining","red","2","horizontal","true","","",""
"","html-keyboard-response","54","259165","0.0-1.1-2.1-2.11","tk14meo2sj","red","null","<p style=""font-size:300%;"">Correct!</p>","null","","","","","","","","","","","","",""
"","html-keyboard-response","55","261124","0.0-1.1-2.1-0.12","tk14meo2sj","red","null","<svg viewBox=""0 0 100 100"" > <path d=""M 50 52 L 50 48"" stroke=""black"" stroke-width="".5""/> <path d=""M 52 50 L 48 50"" stroke=""black"" stroke-width="".5""/>","null","","","","","","","","","","","","",""
"","html-keyboard-response","56","261642","0.0-1.1-2.1-1.12","tk14meo2sj","red","514.7650000290014","<svg viewBox=""0 0 100 100"" ><text font-size=""10%"" text-anchor=""middle""  x=""50"" y=""98"">Press Z for horizontal or M for vertical</text><circle cx=""50"" cy=""50"" r=""10"" fill=""none"" transform=""translate( 26  15)"" stroke=""magenta"" /><circle cx=""50"" cy=""50"" r=""10"" fill=""none"" transform=""translate(  0  30)"" stroke=""red"" /><circle cx=""50"" cy=""50"" r=""10"" fill=""none"" transform=""translate(-26  15)"" stroke=""gold"" /><circle cx=""50"" cy=""50"" r=""10"" fill=""none"" transform=""translate(-26 -15)"" stroke=""blueviolet"" /><circle cx=""50"" cy=""50"" r=""10"" fill=""none"" transform=""translate(  0 -30)"" stroke=""cyan"" /><circle cx=""50"" cy=""50"" r=""10"" fill=""none"" transform=""translate( 26 -15)"" stroke=""black"" /><path d=""M 50 57 L 50 43"" stroke=""black"" transform=""translate( 26  15) rotate(45 50 50)""/><path d=""M 50 57 L 50 43"" stroke=""black"" transform=""translate(  0  30) rotate(0 50 50)""/><path d=""M 50 57 L 50 43"" stroke=""black"" transform=""translate(-26  15) rotate(-45 50 50)""/><path d=""M 50 57 L 50 43"" stroke=""black"" transform=""translate(-26 -15) rotate(45 50 50)""/><path d=""M 50 57 L 50 43"" stroke=""black"" transform=""translate(  0 -30) rotate(-45 50 50)""/><path d=""M 50 57 L 50 43"" stroke=""black"" transform=""translate( 26 -15) rotate(45 50 50)""/><path d=""M 50 52 L 50 48"" stroke=""black"" stroke-width="".5""/> <path d=""M 52 50 L 48 50"" stroke=""black"" stroke-width="".5""/></svg>","77","","","","","","VDACtraining","red","1","vertical","true","","",""
"","html-keyboard-response","57","264148","0.0-1.1-2.1-2.12","tk14meo2sj","red","null","<p style=""font-size:300%;"">Correct!</p>","null","","","","","","","","","","","","",""
"","html-keyboard-response","58","266106","0.0-1.1-2.1-0.13","tk14meo2sj","red","null","<svg viewBox=""0 0 100 100"" > <path d=""M 50 52 L 50 48"" stroke=""black"" stroke-width="".5""/> <path d=""M 52 50 L 48 50"" stroke=""black"" stroke-width="".5""/>","null","","","","","","","","","","","","",""
"","html-keyboard-response","59","266649","0.0-1.1-2.1-1.13","tk14meo2sj","red","540.5650000320747","<svg viewBox=""0 0 100 100"" ><text font-size=""10%"" text-anchor=""middle""  x=""50"" y=""98"">Press Z for horizontal or M for vertical</text><circle cx=""50"" cy=""50"" r=""10"" fill=""none"" transform=""translate( 26  15)"" stroke=""black"" /><circle cx=""50"" cy=""50"" r=""10"" fill=""none"" transform=""translate(  0  30)"" stroke=""magenta"" /><circle cx=""50"" cy=""50"" r=""10"" fill=""none"" transform=""translate(-26  15)"" stroke=""blueviolet"" /><circle cx=""50"" cy=""50"" r=""10"" fill=""none"" transform=""translate(-26 -15)"" stroke=""green"" /><circle cx=""50"" cy=""50"" r=""10"" fill=""none"" transform=""translate(  0 -30)"" stroke=""cyan"" /><circle cx=""50"" cy=""50"" r=""10"" fill=""none"" transform=""translate( 26 -15)"" stroke=""gold"" /><path d=""M 50 57 L 50 43"" stroke=""black"" transform=""translate( 26  15) rotate(45 50 50)""/><path d=""M 50 57 L 50 43"" stroke=""black"" transform=""translate(  0  30) rotate(-45 50 50)""/><path d=""M 50 57 L 50 43"" stroke=""black"" transform=""translate(-26  15) rotate(45 50 50)""/><path d=""M 50 57 L 50 43"" stroke=""black"" transform=""translate(-26 -15) rotate(90 50 50)""/><path d=""M 50 57 L 50 43"" stroke=""black"" transform=""translate(  0 -30) rotate(-45 50 50)""/><path d=""M 50 57 L 50 43"" stroke=""black"" transform=""translate( 26 -15) rotate(45 50 50)""/><path d=""M 50 52 L 50 48"" stroke=""black"" stroke-width="".5""/> <path d=""M 52 50 L 48 50"" stroke=""black"" stroke-width="".5""/></svg>","90","","","","","","VDACtraining","green","3","horizontal","true","","",""
"","html-keyboard-response","60","269156","0.0-1.1-2.1-2.13","tk14meo2sj","red","null","<p style=""font-size:300%;"">Correct!</p>","null","","","","","","","","","","","","",""
"","html-keyboard-response","61","271114","0.0-1.1-2.1-0.14","tk14meo2sj","red","null","<svg viewBox=""0 0 100 100"" > <path d=""M 50 52 L 50 48"" stroke=""black"" stroke-width="".5""/> <path d=""M 52 50 L 48 50"" stroke=""black"" stroke-width="".5""/>","null","","","","","","","","","","","","",""
"","html-keyboard-response","62","271645","0.0-1.1-2.1-1.14","tk14meo2sj","red","528.9399999892339","<svg viewBox=""0 0 100 100"" ><text font-size=""10%"" text-anchor=""middle""  x=""50"" y=""98"">Press Z for horizontal or M for vertical</text><circle cx=""50"" cy=""50"" r=""10"" fill=""none"" transform=""translate( 26  15)"" stroke=""blueviolet"" /><circle cx=""50"" cy=""50"" r=""10"" fill=""none"" transform=""translate(  0  30)"" stroke=""cyan"" /><circle cx=""50"" cy=""50"" r=""10"" fill=""none"" transform=""translate(-26  15)"" stroke=""black"" /><circle cx=""50"" cy=""50"" r=""10"" fill=""none"" transform=""translate(-26 -15)"" stroke=""magenta"" /><circle cx=""50"" cy=""50"" r=""10"" fill=""none"" transform=""translate(  0 -30)"" stroke=""gold"" /><circle cx=""50"" cy=""50"" r=""10"" fill=""none"" transform=""translate( 26 -15)"" stroke=""red"" /><path d=""M 50 57 L 50 43"" stroke=""black"" transform=""translate( 26  15) rotate(45 50 50)""/><path d=""M 50 57 L 50 43"" stroke=""black"" transform=""translate(  0  30) rotate(-45 50 50)""/><path d=""M 50 57 L 50 43"" stroke=""black"" transform=""translate(-26  15) rotate(-45 50 50)""/><path d=""M 50 57 L 50 43"" stroke=""black"" transform=""translate(-26 -15) rotate(45 50 50)""/><path d=""M 50 57 L 50 43"" stroke=""black"" transform=""translate(  0 -30) rotate(-45 50 50)""/><path d=""M 50 57 L 50 43"" stroke=""black"" transform=""translate( 26 -15) rotate(0 50 50)""/><path d=""M 50 52 L 50 48"" stroke=""black"" stroke-width="".5""/> <path d=""M 52 50 L 48 50"" stroke=""black"" stroke-width="".5""/></svg>","77","","","","","","VDACtraining","red","5","vertical","true","","",""
"","html-keyboard-response","63","274154","0.0-1.1-2.1-2.14","tk14meo2sj","red","null","<p style=""font-size:300%;"">Correct!</p>","null","","","","","","","","","","","","",""
"","html-keyboard-response","64","276116","0.0-1.1-2.1-0.15","tk14meo2sj","red","null","<svg viewBox=""0 0 100 100"" > <path d=""M 50 52 L 50 48"" stroke=""black"" stroke-width="".5""/> <path d=""M 52 50 L 48 50"" stroke=""black"" stroke-width="".5""/>","null","","","","","","","","","","","","",""
"","html-keyboard-response","65","276982","0.0-1.1-2.1-1.15","tk14meo2sj","red","862.9850000143051","<svg viewBox=""0 0 100 100"" ><text font-size=""10%"" text-anchor=""middle""  x=""50"" y=""98"">Press Z for horizontal or M for vertical</text><circle cx=""50"" cy=""50"" r=""10"" fill=""none"" transform=""translate( 26  15)"" stroke=""magenta"" /><circle cx=""50"" cy=""50"" r=""10"" fill=""none"" transform=""translate(  0  30)"" stroke=""blueviolet"" /><circle cx=""50"" cy=""50"" r=""10"" fill=""none"" transform=""translate(-26  15)"" stroke=""green"" /><circle cx=""50"" cy=""50"" r=""10"" fill=""none"" transform=""translate(-26 -15)"" stroke=""black"" /><circle cx=""50"" cy=""50"" r=""10"" fill=""none"" transform=""translate(  0 -30)"" stroke=""cyan"" /><circle cx=""50"" cy=""50"" r=""10"" fill=""none"" transform=""translate( 26 -15)"" stroke=""gold"" /><path d=""M 50 57 L 50 43"" stroke=""black"" transform=""translate( 26  15) rotate(45 50 50)""/><path d=""M 50 57 L 50 43"" stroke=""black"" transform=""translate(  0  30) rotate(45 50 50)""/><path d=""M 50 57 L 50 43"" stroke=""black"" transform=""translate(-26  15) rotate(0 50 50)""/><path d=""M 50 57 L 50 43"" stroke=""black"" transform=""translate(-26 -15) rotate(45 50 50)""/><path d=""M 50 57 L 50 43"" stroke=""black"" transform=""translate(  0 -30) rotate(45 50 50)""/><path d=""M 50 57 L 50 43"" stroke=""black"" transform=""translate( 26 -15) rotate(45 50 50)""/><path d=""M 50 52 L 50 48"" stroke=""black"" stroke-width="".5""/> <path d=""M 52 50 L 48 50"" stroke=""black"" stroke-width="".5""/></svg>","77","","","","","","VDACtraining","green","2","vertical","true","","",""
"","html-keyboard-response","66","279487","0.0-1.1-2.1-2.15","tk14meo2sj","red","null","<p style=""font-size:300%;"">Correct!</p>","null","","","","","","","","","","","","",""
"","html-keyboard-response","67","281448","0.0-1.1-2.1-0.16","tk14meo2sj","red","null","<svg viewBox=""0 0 100 100"" > <path d=""M 50 52 L 50 48"" stroke=""black"" stroke-width="".5""/> <path d=""M 52 50 L 48 50"" stroke=""black"" stroke-width="".5""/>","null","","","","","","","","","","","","",""
"","html-keyboard-response","68","282132","0.0-1.1-2.1-1.16","tk14meo2sj","red","681.3700000056997","<svg viewBox=""0 0 100 100"" ><text font-size=""10%"" text-anchor=""middle""  x=""50"" y=""98"">Press Z for horizontal or M for vertical</text><circle cx=""50"" cy=""50"" r=""10"" fill=""none"" transform=""translate( 26  15)"" stroke=""blueviolet"" /><circle cx=""50"" cy=""50"" r=""10"" fill=""none"" transform=""translate(  0  30)"" stroke=""black"" /><circle cx=""50"" cy=""50"" r=""10"" fill=""none"" transform=""translate(-26  15)"" stroke=""magenta"" /><circle cx=""50"" cy=""50"" r=""10"" fill=""none"" transform=""translate(-26 -15)"" stroke=""gold"" /><circle cx=""50"" cy=""50"" r=""10"" fill=""none"" transform=""translate(  0 -30)"" stroke=""cyan"" /><circle cx=""50"" cy=""50"" r=""10"" fill=""none"" transform=""translate( 26 -15)"" stroke=""green"" /><path d=""M 50 57 L 50 43"" stroke=""black"" transform=""translate( 26  15) rotate(45 50 50)""/><path d=""M 50 57 L 50 43"" stroke=""black"" transform=""translate(  0  30) rotate(45 50 50)""/><path d=""M 50 57 L 50 43"" stroke=""black"" transform=""translate(-26  15) rotate(-45 50 50)""/><path d=""M 50 57 L 50 43"" stroke=""black"" transform=""translate(-26 -15) rotate(-45 50 50)""/><path d=""M 50 57 L 50 43"" stroke=""black"" transform=""translate(  0 -30) rotate(-45 50 50)""/><path d=""M 50 57 L 50 43"" stroke=""black"" transform=""translate( 26 -15) rotate(90 50 50)""/><path d=""M 50 52 L 50 48"" stroke=""black"" stroke-width="".5""/> <path d=""M 52 50 L 48 50"" stroke=""black"" stroke-width="".5""/></svg>","90","","","","","","VDACtraining","green","5","horizontal","true","","",""
"","html-keyboard-response","69","284639","0.0-1.1-2.1-2.16","tk14meo2sj","red","null","<p style=""font-size:300%;"">Correct!</p>","null","","","","","","","","","","","","",""
"","html-keyboard-response","70","286597","0.0-1.1-2.1-0.17","tk14meo2sj","red","null","<svg viewBox=""0 0 100 100"" > <path d=""M 50 52 L 50 48"" stroke=""black"" stroke-width="".5""/> <path d=""M 52 50 L 48 50"" stroke=""black"" stroke-width="".5""/>","null","","","","","","","","","","","","",""
"","html-keyboard-response","71","287277","0.0-1.1-2.1-1.17","tk14meo2sj","red","677.7849999489263","<svg viewBox=""0 0 100 100"" ><text font-size=""10%"" text-anchor=""middle""  x=""50"" y=""98"">Press Z for horizontal or M for vertical</text><circle cx=""50"" cy=""50"" r=""10"" fill=""none"" transform=""translate( 26  15)"" stroke=""cyan"" /><circle cx=""50"" cy=""50"" r=""10"" fill=""none"" transform=""translate(  0  30)"" stroke=""green"" /><circle cx=""50"" cy=""50"" r=""10"" fill=""none"" transform=""translate(-26  15)"" stroke=""black"" /><circle cx=""50"" cy=""50"" r=""10"" fill=""none"" transform=""translate(-26 -15)"" stroke=""magenta"" /><circle cx=""50"" cy=""50"" r=""10"" fill=""none"" transform=""translate(  0 -30)"" stroke=""gold"" /><circle cx=""50"" cy=""50"" r=""10"" fill=""none"" transform=""translate( 26 -15)"" stroke=""blueviolet"" /><path d=""M 50 57 L 50 43"" stroke=""black"" transform=""translate( 26  15) rotate(45 50 50)""/><path d=""M 50 57 L 50 43"" stroke=""black"" transform=""translate(  0  30) rotate(90 50 50)""/><path d=""M 50 57 L 50 43"" stroke=""black"" transform=""translate(-26  15) rotate(45 50 50)""/><path d=""M 50 57 L 50 43"" stroke=""black"" transform=""translate(-26 -15) rotate(-45 50 50)""/><path d=""M 50 57 L 50 43"" stroke=""black"" transform=""translate(  0 -30) rotate(-45 50 50)""/><path d=""M 50 57 L 50 43"" stroke=""black"" transform=""translate( 26 -15) rotate(45 50 50)""/><path d=""M 50 52 L 50 48"" stroke=""black"" stroke-width="".5""/> <path d=""M 52 50 L 48 50"" stroke=""black"" stroke-width="".5""/></svg>","90","","","","","","VDACtraining","green","1","horizontal","true","","",""
"","html-keyboard-response","72","289786","0.0-1.1-2.1-2.17","tk14meo2sj","red","null","<p style=""font-size:300%;"">Correct!</p>","null","","","","","","","","","","","","",""
"","html-keyboard-response","73","291743","0.0-1.1-2.1-0.18","tk14meo2sj","red","null","<svg viewBox=""0 0 100 100"" > <path d=""M 50 52 L 50 48"" stroke=""black"" stroke-width="".5""/> <path d=""M 52 50 L 48 50"" stroke=""black"" stroke-width="".5""/>","null","","","","","","","","","","","","",""
"","html-keyboard-response","74","292301","0.0-1.1-2.1-1.18","tk14meo2sj","red","555.785000033211","<svg viewBox=""0 0 100 100"" ><text font-size=""10%"" text-anchor=""middle""  x=""50"" y=""98"">Press Z for horizontal or M for vertical</text><circle cx=""50"" cy=""50"" r=""10"" fill=""none"" transform=""translate( 26  15)"" stroke=""magenta"" /><circle cx=""50"" cy=""50"" r=""10"" fill=""none"" transform=""translate(  0  30)"" stroke=""blueviolet"" /><circle cx=""50"" cy=""50"" r=""10"" fill=""none"" transform=""translate(-26  15)"" stroke=""cyan"" /><circle cx=""50"" cy=""50"" r=""10"" fill=""none"" transform=""translate(-26 -15)"" stroke=""red"" /><circle cx=""50"" cy=""50"" r=""10"" fill=""none"" transform=""translate(  0 -30)"" stroke=""black"" /><circle cx=""50"" cy=""50"" r=""10"" fill=""none"" transform=""translate( 26 -15)"" stroke=""gold"" /><path d=""M 50 57 L 50 43"" stroke=""black"" transform=""translate( 26  15) rotate(45 50 50)""/><path d=""M 50 57 L 50 43"" stroke=""black"" transform=""translate(  0  30) rotate(-45 50 50)""/><path d=""M 50 57 L 50 43"" stroke=""black"" transform=""translate(-26  15) rotate(-45 50 50)""/><path d=""M 50 57 L 50 43"" stroke=""black"" transform=""translate(-26 -15) rotate(0 50 50)""/><path d=""M 50 57 L 50 43"" stroke=""black"" transform=""translate(  0 -30) rotate(45 50 50)""/><path d=""M 50 57 L 50 43"" stroke=""black"" transform=""translate( 26 -15) rotate(45 50 50)""/><path d=""M 50 52 L 50 48"" stroke=""black"" stroke-width="".5""/> <path d=""M 52 50 L 48 50"" stroke=""black"" stroke-width="".5""/></svg>","77","","","","","","VDACtraining","red","3","vertical","true","","",""
"","html-keyboard-response","75","294807","0.0-1.1-2.1-2.18","tk14meo2sj","red","null","<p style=""font-size:300%;"">Correct!</p>","null","","","","","","","","","","","","",""
"","html-keyboard-response","76","296761","0.0-1.1-2.1-0.19","tk14meo2sj","red","null","<svg viewBox=""0 0 100 100"" > <path d=""M 50 52 L 50 48"" stroke=""black"" stroke-width="".5""/> <path d=""M 52 50 L 48 50"" stroke=""black"" stroke-width="".5""/>","null","","","","","","","","","","","","",""
"","html-keyboard-response","77","297329","0.0-1.1-2.1-1.19","tk14meo2sj","red","565.9150000428781","<svg viewBox=""0 0 100 100"" ><text font-size=""10%"" text-anchor=""middle""  x=""50"" y=""98"">Press Z for horizontal or M for vertical</text><circle cx=""50"" cy=""50"" r=""10"" fill=""none"" transform=""translate( 26  15)"" stroke=""cyan"" /><circle cx=""50"" cy=""50"" r=""10"" fill=""none"" transform=""translate(  0  30)"" stroke=""gold"" /><circle cx=""50"" cy=""50"" r=""10"" fill=""none"" transform=""translate(-26  15)"" stroke=""magenta"" /><circle cx=""50"" cy=""50"" r=""10"" fill=""none"" transform=""translate(-26 -15)"" stroke=""blueviolet"" /><circle cx=""50"" cy=""50"" r=""10"" fill=""none"" transform=""translate(  0 -30)"" stroke=""red"" /><circle cx=""50"" cy=""50"" r=""10"" fill=""none"" transform=""translate( 26 -15)"" stroke=""black"" /><path d=""M 50 57 L 50 43"" stroke=""black"" transform=""translate( 26  15) rotate(45 50 50)""/><path d=""M 50 57 L 50 43"" stroke=""black"" transform=""translate(  0  30) rotate(-45 50 50)""/><path d=""M 50 57 L 50 43"" stroke=""black"" transform=""translate(-26  15) rotate(-45 50 50)""/><path d=""M 50 57 L 50 43"" stroke=""black"" transform=""translate(-26 -15) rotate(45 50 50)""/><path d=""M 50 57 L 50 43"" stroke=""black"" transform=""translate(  0 -30) rotate(90 50 50)""/><path d=""M 50 57 L 50 43"" stroke=""black"" transform=""translate( 26 -15) rotate(45 50 50)""/><path d=""M 50 52 L 50 48"" stroke=""black"" stroke-width="".5""/> <path d=""M 52 50 L 48 50"" stroke=""black"" stroke-width="".5""/></svg>","90","","","","","","VDACtraining","red","4","horizontal","true","","",""
"","html-keyboard-response","78","299835","0.0-1.1-2.1-2.19","tk14meo2sj","red","null","<p style=""font-size:300%;"">Correct!</p>","null","","","","","","","","","","","","",""
"","call-function","79","300838","0.0-1.1-3.1","tk14meo2sj","red","","","","","","","","","","","","","","","",""
"","html-keyboard-response","80","304347","0.0-1.1-4.1","tk14meo2sj","red","3508.0650000018068","<p>You have now finished the training exercise. If you would like to repeat the instructions and training exercise, press R. If you are ready to continue to the task, press C. </p>","67","","","","","","","","","","","","",""
"","html-keyboard-response","81","306351","0.0-2.0-0.0","tk14meo2sj","red","null","<p>Place your fingers on the <b>Z</b> and <b>M</b> keys. The experiment will begin shortly.</p><p>&nbsp</p>","null","","","","","","","","","","","","",""
"","html-keyboard-response","82","307354","0.0-2.0-1.0","tk14meo2sj","red","null","<p>Place your fingers on the <b>Z</b> and <b>M</b> keys. The experiment will begin shortly.</p><p>3</p>","null","","","","","","","","","","","","",""
"","html-keyboard-response","83","308356","0.0-2.0-2.0","tk14meo2sj","red","null","<p>Place your fingers on the <b>Z</b> and <b>M</b> keys. The experiment will begin shortly.</p><p>2</p>","null","","","","","","","","","","","","",""
"","html-keyboard-response","84","309361","0.0-2.0-3.0","tk14meo2sj","red","null","<p>Place your fingers on the <b>Z</b> and <b>M</b> keys. The experiment will begin shortly.</p><p>1</p>","null","","","","","","","","","","","","",""
"","html-keyboard-response","85","310319","0.0-3.0-1.0-0.0","tk14meo2sj","red","null","<svg viewBox=""0 0 100 100"" > <path d=""M 50 52 L 50 48"" stroke=""black"" stroke-width="".5""/> <path d=""M 52 50 L 48 50"" stroke=""black"" stroke-width="".5""/>","null","","","","","","","","","","","","",""
"","html-keyboard-response","86","311112","0.0-3.0-1.0-1.0","tk14meo2sj","red","791.254999989178","<svg viewBox=""0 0 100 100"" ><circle cx=""50"" cy=""50"" r=""10"" fill=""none"" transform=""translate( 26  15)"" stroke=""cyan"" /><circle cx=""50"" cy=""50"" r=""10"" fill=""none"" transform=""translate(  0  30)"" stroke=""green"" /><circle cx=""50"" cy=""50"" r=""10"" fill=""none"" transform=""translate(-26  15)"" stroke=""gold"" /><circle cx=""50"" cy=""50"" r=""10"" fill=""none"" transform=""translate(-26 -15)"" stroke=""magenta"" /><circle cx=""50"" cy=""50"" r=""10"" fill=""none"" transform=""translate(  0 -30)"" stroke=""blueviolet"" /><circle cx=""50"" cy=""50"" r=""10"" fill=""none"" transform=""translate( 26 -15)"" stroke=""black"" /><path d=""M 50 57 L 50 43"" stroke=""black"" transform=""translate( 26  15) rotate(-45 50 50)""/><path d=""M 50 57 L 50 43"" stroke=""black"" transform=""translate(  0  30) rotate(0 50 50)""/><path d=""M 50 57 L 50 43"" stroke=""black"" transform=""translate(-26  15) rotate(-45 50 50)""/><path d=""M 50 57 L 50 43"" stroke=""black"" transform=""translate(-26 -15) rotate(-45 50 50)""/><path d=""M 50 57 L 50 43"" stroke=""black"" transform=""translate(  0 -30) rotate(-45 50 50)""/><path d=""M 50 57 L 50 43"" stroke=""black"" transform=""translate( 26 -15) rotate(-45 50 50)""/><path d=""M 50 52 L 50 48"" stroke=""black"" stroke-width="".5""/> <path d=""M 52 50 L 48 50"" stroke=""black"" stroke-width="".5""/></svg>","77","","","","","","VDACtest","green","2nd","vertical","true","low","",""
"","html-keyboard-response","87","313620","0.0-3.0-1.0-2.0","tk14meo2sj","red","null","<p style=""font-size:300%;""> + 10 points.</p><p style=""font-size:300%"">Total: 10 points.</p>","null","","","","","","","","","","","","10",""
"","html-keyboard-response","88","315577","0.0-3.0-1.0-0.1","tk14meo2sj","red","null","<svg viewBox=""0 0 100 100"" > <path d=""M 50 52 L 50 48"" stroke=""black"" stroke-width="".5""/> <path d=""M 52 50 L 48 50"" stroke=""black"" stroke-width="".5""/>","null","","","","","","","","","","","","",""
"","html-keyboard-response","89","316310","0.0-3.0-1.0-1.1","tk14meo2sj","red","730.2050000289455","<svg viewBox=""0 0 100 100"" ><circle cx=""50"" cy=""50"" r=""10"" fill=""none"" transform=""translate( 26  15)"" stroke=""magenta"" /><circle cx=""50"" cy=""50"" r=""10"" fill=""none"" transform=""translate(  0  30)"" stroke=""gold"" /><circle cx=""50"" cy=""50"" r=""10"" fill=""none"" transform=""translate(-26  15)"" stroke=""cyan"" /><circle cx=""50"" cy=""50"" r=""10"" fill=""none"" transform=""translate(-26 -15)"" stroke=""black"" /><circle cx=""50"" cy=""50"" r=""10"" fill=""none"" transform=""translate(  0 -30)"" stroke=""green"" /><circle cx=""50"" cy=""50"" r=""10"" fill=""none"" transform=""translate( 26 -15)"" stroke=""blueviolet"" /><path d=""M 50 57 L 50 43"" stroke=""black"" transform=""translate( 26  15) rotate(45 50 50)""/><path d=""M 50 57 L 50 43"" stroke=""black"" transform=""translate(  0  30) rotate(-45 50 50)""/><path d=""M 50 57 L 50 43"" stroke=""black"" transform=""translate(-26  15) rotate(-45 50 50)""/><path d=""M 50 57 L 50 43"" stroke=""black"" transform=""translate(-26 -15) rotate(-45 50 50)""/><path d=""M 50 57 L 50 43"" stroke=""black"" transform=""translate(  0 -30) rotate(0 50 50)""/><path d=""M 50 57 L 50 43"" stroke=""black"" transform=""translate( 26 -15) rotate(-45 50 50)""/><path d=""M 50 52 L 50 48"" stroke=""black"" stroke-width="".5""/> <path d=""M 52 50 L 48 50"" stroke=""black"" stroke-width="".5""/></svg>","90","","","","","","VDACtest","green","5th","vertical","false","low","",""
"","html-keyboard-response","90","318812","0.0-3.0-1.0-2.1","tk14meo2sj","red","null","<p style=""font-size:300%;"">Miss.</p><p style=""font-size:300%"">Total: 10 points.</p>","null","","","","","","","","","","","","10",""
"","html-keyboard-response","91","320767","0.0-3.0-1.0-0.2","tk14meo2sj","red","null","<svg viewBox=""0 0 100 100"" > <path d=""M 50 52 L 50 48"" stroke=""black"" stroke-width="".5""/> <path d=""M 52 50 L 48 50"" stroke=""black"" stroke-width="".5""/>","null","","","","","","","","","","","","",""
"","html-keyboard-response","92","321509","0.0-3.0-1.0-1.2","tk14meo2sj","red","740.010000008624","<svg viewBox=""0 0 100 100"" ><circle cx=""50"" cy=""50"" r=""10"" fill=""none"" transform=""translate( 26  15)"" stroke=""black"" /><circle cx=""50"" cy=""50"" r=""10"" fill=""none"" transform=""translate(  0  30)"" stroke=""red"" /><circle cx=""50"" cy=""50"" r=""10"" fill=""none"" transform=""translate(-26  15)"" stroke=""cyan"" /><circle cx=""50"" cy=""50"" r=""10"" fill=""none"" transform=""translate(-26 -15)"" stroke=""magenta"" /><circle cx=""50"" cy=""50"" r=""10"" fill=""none"" transform=""translate(  0 -30)"" stroke=""gold"" /><circle cx=""50"" cy=""50"" r=""10"" fill=""none"" transform=""translate( 26 -15)"" stroke=""blueviolet"" /><path d=""M 50 57 L 50 43"" stroke=""black"" transform=""translate( 26  15) rotate(-45 50 50)""/><path d=""M 50 57 L 50 43"" stroke=""black"" transform=""translate(  0  30) rotate(0 50 50)""/><path d=""M 50 57 L 50 43"" stroke=""black"" transform=""translate(-26  15) rotate(-45 50 50)""/><path d=""M 50 57 L 50 43"" stroke=""black"" transform=""translate(-26 -15) rotate(-45 50 50)""/><path d=""M 50 57 L 50 43"" stroke=""black"" transform=""translate(  0 -30) rotate(45 50 50)""/><path d=""M 50 57 L 50 43"" stroke=""black"" transform=""translate( 26 -15) rotate(45 50 50)""/><path d=""M 50 52 L 50 48"" stroke=""black"" stroke-width="".5""/> <path d=""M 52 50 L 48 50"" stroke=""black"" stroke-width="".5""/></svg>","77","","","","","","VDACtest","red","2nd","vertical","true","high","",""
"","html-keyboard-response","93","324015","0.0-3.0-1.0-2.2","tk14meo2sj","red","null","<p style=""font-size:300%;""> + 10 points.</p><p style=""font-size:300%"">Total: 20 points.</p>","null","","","","","","","","","","","","20",""
"","html-keyboard-response","94","325972","0.0-3.0-1.0-0.3","tk14meo2sj","red","null","<svg viewBox=""0 0 100 100"" > <path d=""M 50 52 L 50 48"" stroke=""black"" stroke-width="".5""/> <path d=""M 52 50 L 48 50"" stroke=""black"" stroke-width="".5""/>","null","","","","","","","","","","","","",""
"","html-keyboard-response","95","326863","0.0-3.0-1.0-1.3","tk14meo2sj","red","888.4800000232644","<svg viewBox=""0 0 100 100"" ><circle cx=""50"" cy=""50"" r=""10"" fill=""none"" transform=""translate( 26  15)"" stroke=""cyan"" /><circle cx=""50"" cy=""50"" r=""10"" fill=""none"" transform=""translate(  0  30)"" stroke=""gold"" /><circle cx=""50"" cy=""50"" r=""10"" fill=""none"" transform=""translate(-26  15)"" stroke=""red"" /><circle cx=""50"" cy=""50"" r=""10"" fill=""none"" transform=""translate(-26 -15)"" stroke=""blueviolet"" /><circle cx=""50"" cy=""50"" r=""10"" fill=""none"" transform=""translate(  0 -30)"" stroke=""magenta"" /><circle cx=""50"" cy=""50"" r=""10"" fill=""none"" transform=""translate( 26 -15)"" stroke=""black"" /><path d=""M 50 57 L 50 43"" stroke=""black"" transform=""translate( 26  15) rotate(-45 50 50)""/><path d=""M 50 57 L 50 43"" stroke=""black"" transform=""translate(  0  30) rotate(-45 50 50)""/><path d=""M 50 57 L 50 43"" stroke=""black"" transform=""translate(-26  15) rotate(90 50 50)""/><path d=""M 50 57 L 50 43"" stroke=""black"" transform=""translate(-26 -15) rotate(-45 50 50)""/><path d=""M 50 57 L 50 43"" stroke=""black"" transform=""translate(  0 -30) rotate(45 50 50)""/><path d=""M 50 57 L 50 43"" stroke=""black"" transform=""translate( 26 -15) rotate(-45 50 50)""/><path d=""M 50 52 L 50 48"" stroke=""black"" stroke-width="".5""/> <path d=""M 52 50 L 48 50"" stroke=""black"" stroke-width="".5""/></svg>","90","","","","","","VDACtest","red","3rd","horizontal","true","high","",""
"","html-keyboard-response","96","329369","0.0-3.0-1.0-2.3","tk14meo2sj","red","null","<p style=""font-size:300%;""> + 10 points.</p><p style=""font-size:300%"">Total: 30 points.</p>","null","","","","","","","","","","","","30",""
"","html-keyboard-response","97","331324","0.0-3.0-1.0-0.4","tk14meo2sj","red","null","<svg viewBox=""0 0 100 100"" > <path d=""M 50 52 L 50 48"" stroke=""black"" stroke-width="".5""/> <path d=""M 52 50 L 48 50"" stroke=""black"" stroke-width="".5""/>","null","","","","","","","","","","","","",""
"","html-keyboard-response","98","332092","0.0-3.0-1.0-1.4","tk14meo2sj","red","765.4000000329688","<svg viewBox=""0 0 100 100"" ><circle cx=""50"" cy=""50"" r=""10"" fill=""none"" transform=""translate( 26  15)"" stroke=""gold"" /><circle cx=""50"" cy=""50"" r=""10"" fill=""none"" transform=""translate(  0  30)"" stroke=""blueviolet"" /><circle cx=""50"" cy=""50"" r=""10"" fill=""none"" transform=""translate(-26  15)"" stroke=""cyan"" /><circle cx=""50"" cy=""50"" r=""10"" fill=""none"" transform=""translate(-26 -15)"" stroke=""magenta"" /><circle cx=""50"" cy=""50"" r=""10"" fill=""none"" transform=""translate(  0 -30)"" stroke=""red"" /><circle cx=""50"" cy=""50"" r=""10"" fill=""none"" transform=""translate( 26 -15)"" stroke=""black"" /><path d=""M 50 57 L 50 43"" stroke=""black"" transform=""translate( 26  15) rotate(-45 50 50)""/><path d=""M 50 57 L 50 43"" stroke=""black"" transform=""translate(  0  30) rotate(45 50 50)""/><path d=""M 50 57 L 50 43"" stroke=""black"" transform=""translate(-26  15) rotate(45 50 50)""/><path d=""M 50 57 L 50 43"" stroke=""black"" transform=""translate(-26 -15) rotate(45 50 50)""/><path d=""M 50 57 L 50 43"" stroke=""black"" transform=""translate(  0 -30) rotate(90 50 50)""/><path d=""M 50 57 L 50 43"" stroke=""black"" transform=""translate( 26 -15) rotate(45 50 50)""/><path d=""M 50 52 L 50 48"" stroke=""black"" stroke-width="".5""/> <path d=""M 52 50 L 48 50"" stroke=""black"" stroke-width="".5""/></svg>","77","","","","","","VDACtest","red","5th","horizontal","false","high","",""
"","html-keyboard-response","99","334601","0.0-3.0-1.0-2.4","tk14meo2sj","red","null","<p style=""font-size:300%;"">Miss.</p><p style=""font-size:300%"">Total: 30 points.</p>","null","","","","","","","","","","","","30",""
"","html-keyboard-response","100","336563","0.0-3.0-1.0-0.5","tk14meo2sj","red","null","<svg viewBox=""0 0 100 100"" > <path d=""M 50 52 L 50 48"" stroke=""black"" stroke-width="".5""/> <path d=""M 52 50 L 48 50"" stroke=""black"" stroke-width="".5""/>","null","","","","","","","","","","","","",""
"","html-keyboard-response","101","337325","0.0-3.0-1.0-1.5","tk14meo2sj","red","759.8250000155531","<svg viewBox=""0 0 100 100"" ><circle cx=""50"" cy=""50"" r=""10"" fill=""none"" transform=""translate( 26  15)"" stroke=""blueviolet"" /><circle cx=""50"" cy=""50"" r=""10"" fill=""none"" transform=""translate(  0  30)"" stroke=""gold"" /><circle cx=""50"" cy=""50"" r=""10"" fill=""none"" transform=""translate(-26  15)"" stroke=""black"" /><circle cx=""50"" cy=""50"" r=""10"" fill=""none"" transform=""translate(-26 -15)"" stroke=""cyan"" /><circle cx=""50"" cy=""50"" r=""10"" fill=""none"" transform=""translate(  0 -30)"" stroke=""red"" /><circle cx=""50"" cy=""50"" r=""10"" fill=""none"" transform=""translate( 26 -15)"" stroke=""magenta"" /><path d=""M 50 57 L 50 43"" stroke=""black"" transform=""translate( 26  15) rotate(45 50 50)""/><path d=""M 50 57 L 50 43"" stroke=""black"" transform=""translate(  0  30) rotate(45 50 50)""/><path d=""M 50 57 L 50 43"" stroke=""black"" transform=""translate(-26  15) rotate(-45 50 50)""/><path d=""M 50 57 L 50 43"" stroke=""black"" transform=""translate(-26 -15) rotate(-45 50 50)""/><path d=""M 50 57 L 50 43"" stroke=""black"" transform=""translate(  0 -30) rotate(0 50 50)""/><path d=""M 50 57 L 50 43"" stroke=""black"" transform=""translate( 26 -15) rotate(45 50 50)""/><path d=""M 50 52 L 50 48"" stroke=""black"" stroke-width="".5""/> <path d=""M 52 50 L 48 50"" stroke=""black"" stroke-width="".5""/></svg>","77","","","","","","VDACtest","red","5th","vertical","true","high","",""
"","html-keyboard-response","102","339835","0.0-3.0-1.0-2.5","tk14meo2sj","red","null","<p style=""font-size:300%;""> + 10 points.</p><p style=""font-size:300%"">Total: 40 points.</p>","null","","","","","","","","","","","","40",""
"","html-keyboard-response","103","341793","0.0-3.0-1.0-0.6","tk14meo2sj","red","null","<svg viewBox=""0 0 100 100"" > <path d=""M 50 52 L 50 48"" stroke=""black"" stroke-width="".5""/> <path d=""M 52 50 L 48 50"" stroke=""black"" stroke-width="".5""/>","null","","","","","","","","","","","","",""
"","html-keyboard-response","104","342643","0.0-3.0-1.0-1.6","tk14meo2sj","red","847.5099999923259","<svg viewBox=""0 0 100 100"" ><circle cx=""50"" cy=""50"" r=""10"" fill=""none"" transform=""translate( 26  15)"" stroke=""cyan"" /><circle cx=""50"" cy=""50"" r=""10"" fill=""none"" transform=""translate(  0  30)"" stroke=""blueviolet"" /><circle cx=""50"" cy=""50"" r=""10"" fill=""none"" transform=""translate(-26  15)"" stroke=""black"" /><circle cx=""50"" cy=""50"" r=""10"" fill=""none"" transform=""translate(-26 -15)"" stroke=""gold"" /><circle cx=""50"" cy=""50"" r=""10"" fill=""none"" transform=""translate(  0 -30)"" stroke=""magenta"" /><circle cx=""50"" cy=""50"" r=""10"" fill=""none"" transform=""translate( 26 -15)"" stroke=""green"" /><path d=""M 50 57 L 50 43"" stroke=""black"" transform=""translate( 26  15) rotate(45 50 50)""/><path d=""M 50 57 L 50 43"" stroke=""black"" transform=""translate(  0  30) rotate(45 50 50)""/><path d=""M 50 57 L 50 43"" stroke=""black"" transform=""translate(-26  15) rotate(45 50 50)""/><path d=""M 50 57 L 50 43"" stroke=""black"" transform=""translate(-26 -15) rotate(-45 50 50)""/><path d=""M 50 57 L 50 43"" stroke=""black"" transform=""translate(  0 -30) rotate(45 50 50)""/><path d=""M 50 57 L 50 43"" stroke=""black"" transform=""translate( 26 -15) rotate(90 50 50)""/><path d=""M 50 52 L 50 48"" stroke=""black"" stroke-width="".5""/> <path d=""M 52 50 L 48 50"" stroke=""black"" stroke-width="".5""/></svg>","90","","","","","","VDACtest","green","6th","horizontal","true","low","",""
"","html-keyboard-response","105","345152","0.0-3.0-1.0-2.6","tk14meo2sj","red","null","<p style=""font-size:300%;""> + 2 points.</p><p style=""font-size:300%"">Total: 42 points.</p>","null","","","","","","","","","","","","42",""
"","html-keyboard-response","106","347107","0.0-3.0-1.0-0.7","tk14meo2sj","red","null","<svg viewBox=""0 0 100 100"" > <path d=""M 50 52 L 50 48"" stroke=""black"" stroke-width="".5""/> <path d=""M 52 50 L 48 50"" stroke=""black"" stroke-width="".5""/>","null","","","","","","","","","","","","",""
"","html-keyboard-response","107","347839","0.0-3.0-1.0-1.7","tk14meo2sj","red","730.5649999761954","<svg viewBox=""0 0 100 100"" ><circle cx=""50"" cy=""50"" r=""10"" fill=""none"" transform=""translate( 26  15)"" stroke=""gold"" /><circle cx=""50"" cy=""50"" r=""10"" fill=""none"" transform=""translate(  0  30)"" stroke=""cyan"" /><circle cx=""50"" cy=""50"" r=""10"" fill=""none"" transform=""translate(-26  15)"" stroke=""black"" /><circle cx=""50"" cy=""50"" r=""10"" fill=""none"" transform=""translate(-26 -15)"" stroke=""magenta"" /><circle cx=""50"" cy=""50"" r=""10"" fill=""none"" transform=""translate(  0 -30)"" stroke=""blueviolet"" /><circle cx=""50"" cy=""50"" r=""10"" fill=""none"" transform=""translate( 26 -15)"" stroke=""green"" /><path d=""M 50 57 L 50 43"" stroke=""black"" transform=""translate( 26  15) rotate(-45 50 50)""/><path d=""M 50 57 L 50 43"" stroke=""black"" transform=""translate(  0  30) rotate(45 50 50)""/><path d=""M 50 57 L 50 43"" stroke=""black"" transform=""translate(-26  15) rotate(45 50 50)""/><path d=""M 50 57 L 50 43"" stroke=""black"" transform=""translate(-26 -15) rotate(-45 50 50)""/><path d=""M 50 57 L 50 43"" stroke=""black"" transform=""translate(  0 -30) rotate(-45 50 50)""/><path d=""M 50 57 L 50 43"" stroke=""black"" transform=""translate( 26 -15) rotate(90 50 50)""/><path d=""M 50 52 L 50 48"" stroke=""black"" stroke-width="".5""/> <path d=""M 52 50 L 48 50"" stroke=""black"" stroke-width="".5""/></svg>","90","","","","","","VDACtest","green","6th","horizontal","true","low","",""
"","html-keyboard-response","108","350345","0.0-3.0-1.0-2.7","tk14meo2sj","red","null","<p style=""font-size:300%;""> + 2 points.</p><p style=""font-size:300%"">Total: 44 points.</p>","null","","","","","","","","","","","","44",""
"","html-keyboard-response","109","352305","0.0-3.0-1.0-0.8","tk14meo2sj","red","null","<svg viewBox=""0 0 100 100"" > <path d=""M 50 52 L 50 48"" stroke=""black"" stroke-width="".5""/> <path d=""M 52 50 L 48 50"" stroke=""black"" stroke-width="".5""/>","null","","","","","","","","","","","","",""
"","html-keyboard-response","110","352960","0.0-3.0-1.0-1.8","tk14meo2sj","red","653.5499999881722","<svg viewBox=""0 0 100 100"" ><circle cx=""50"" cy=""50"" r=""10"" fill=""none"" transform=""translate( 26  15)"" stroke=""magenta"" /><circle cx=""50"" cy=""50"" r=""10"" fill=""none"" transform=""translate(  0  30)"" stroke=""gold"" /><circle cx=""50"" cy=""50"" r=""10"" fill=""none"" transform=""translate(-26  15)"" stroke=""green"" /><circle cx=""50"" cy=""50"" r=""10"" fill=""none"" transform=""translate(-26 -15)"" stroke=""black"" /><circle cx=""50"" cy=""50"" r=""10"" fill=""none"" transform=""translate(  0 -30)"" stroke=""blueviolet"" /><circle cx=""50"" cy=""50"" r=""10"" fill=""none"" transform=""translate( 26 -15)"" stroke=""cyan"" /><path d=""M 50 57 L 50 43"" stroke=""black"" transform=""translate( 26  15) rotate(-45 50 50)""/><path d=""M 50 57 L 50 43"" stroke=""black"" transform=""translate(  0  30) rotate(-45 50 50)""/><path d=""M 50 57 L 50 43"" stroke=""black"" transform=""translate(-26  15) rotate(90 50 50)""/><path d=""M 50 57 L 50 43"" stroke=""black"" transform=""translate(-26 -15) rotate(45 50 50)""/><path d=""M 50 57 L 50 43"" stroke=""black"" transform=""translate(  0 -30) rotate(-45 50 50)""/><path d=""M 50 57 L 50 43"" stroke=""black"" transform=""translate( 26 -15) rotate(45 50 50)""/><path d=""M 50 52 L 50 48"" stroke=""black"" stroke-width="".5""/> <path d=""M 52 50 L 48 50"" stroke=""black"" stroke-width="".5""/></svg>","77","","","","","","VDACtest","green","3rd","horizontal","false","low","",""
"","html-keyboard-response","111","355465","0.0-3.0-1.0-2.8","tk14meo2sj","red","null","<p style=""font-size:300%;"">Miss.</p><p style=""font-size:300%"">Total: 44 points.</p>","null","","","","","","","","","","","","44",""
"","html-keyboard-response","112","357421","0.0-3.0-1.0-0.9","tk14meo2sj","red","null","<svg viewBox=""0 0 100 100"" > <path d=""M 50 52 L 50 48"" stroke=""black"" stroke-width="".5""/> <path d=""M 52 50 L 48 50"" stroke=""black"" stroke-width="".5""/>","null","","","","","","","","","","","","",""
"","html-keyboard-response","113","358388","0.0-3.0-1.0-1.9","tk14meo2sj","red","964.7649999824353","<svg viewBox=""0 0 100 100"" ><circle cx=""50"" cy=""50"" r=""10"" fill=""none"" transform=""translate( 26  15)"" stroke=""magenta"" /><circle cx=""50"" cy=""50"" r=""10"" fill=""none"" transform=""translate(  0  30)"" stroke=""blueviolet"" /><circle cx=""50"" cy=""50"" r=""10"" fill=""none"" transform=""translate(-26  15)"" stroke=""black"" /><circle cx=""50"" cy=""50"" r=""10"" fill=""none"" transform=""translate(-26 -15)"" stroke=""cyan"" /><circle cx=""50"" cy=""50"" r=""10"" fill=""none"" transform=""translate(  0 -30)"" stroke=""red"" /><circle cx=""50"" cy=""50"" r=""10"" fill=""none"" transform=""translate( 26 -15)"" stroke=""gold"" /><path d=""M 50 57 L 50 43"" stroke=""black"" transform=""translate( 26  15) rotate(45 50 50)""/><path d=""M 50 57 L 50 43"" stroke=""black"" transform=""translate(  0  30) rotate(45 50 50)""/><path d=""M 50 57 L 50 43"" stroke=""black"" transform=""translate(-26  15) rotate(-45 50 50)""/><path d=""M 50 57 L 50 43"" stroke=""black"" transform=""translate(-26 -15) rotate(-45 50 50)""/><path d=""M 50 57 L 50 43"" stroke=""black"" transform=""translate(  0 -30) rotate(0 50 50)""/><path d=""M 50 57 L 50 43"" stroke=""black"" transform=""translate( 26 -15) rotate(45 50 50)""/><path d=""M 50 52 L 50 48"" stroke=""black"" stroke-width="".5""/> <path d=""M 52 50 L 48 50"" stroke=""black"" stroke-width="".5""/></svg>","77","","","","","","VDACtest","red","5th","vertical","true","high","",""
"","html-keyboard-response","114","360893","0.0-3.0-1.0-2.9","tk14meo2sj","red","null","<p style=""font-size:300%;""> + 10 points.</p><p style=""font-size:300%"">Total: 54 points.</p>","null","","","","","","","","","","","","54",""
"","html-keyboard-response","115","362850","0.0-3.0-1.0-0.10","tk14meo2sj","red","null","<svg viewBox=""0 0 100 100"" > <path d=""M 50 52 L 50 48"" stroke=""black"" stroke-width="".5""/> <path d=""M 52 50 L 48 50"" stroke=""black"" stroke-width="".5""/>","null","","","","","","","","","","","","",""
"","html-keyboard-response","116","363771","0.0-3.0-1.0-1.10","tk14meo2sj","red","918.8699999940582","<svg viewBox=""0 0 100 100"" ><circle cx=""50"" cy=""50"" r=""10"" fill=""none"" transform=""translate( 26  15)"" stroke=""gold"" /><circle cx=""50"" cy=""50"" r=""10"" fill=""none"" transform=""translate(  0  30)"" stroke=""blueviolet"" /><circle cx=""50"" cy=""50"" r=""10"" fill=""none"" transform=""translate(-26  15)"" stroke=""red"" /><circle cx=""50"" cy=""50"" r=""10"" fill=""none"" transform=""translate(-26 -15)"" stroke=""black"" /><circle cx=""50"" cy=""50"" r=""10"" fill=""none"" transform=""translate(  0 -30)"" stroke=""cyan"" /><circle cx=""50"" cy=""50"" r=""10"" fill=""none"" transform=""translate( 26 -15)"" stroke=""magenta"" /><path d=""M 50 57 L 50 43"" stroke=""black"" transform=""translate( 26  15) rotate(-45 50 50)""/><path d=""M 50 57 L 50 43"" stroke=""black"" transform=""translate(  0  30) rotate(-45 50 50)""/><path d=""M 50 57 L 50 43"" stroke=""black"" transform=""translate(-26  15) rotate(0 50 50)""/><path d=""M 50 57 L 50 43"" stroke=""black"" transform=""translate(-26 -15) rotate(45 50 50)""/><path d=""M 50 57 L 50 43"" stroke=""black"" transform=""translate(  0 -30) rotate(-45 50 50)""/><path d=""M 50 57 L 50 43"" stroke=""black"" transform=""translate( 26 -15) rotate(45 50 50)""/><path d=""M 50 52 L 50 48"" stroke=""black"" stroke-width="".5""/> <path d=""M 52 50 L 48 50"" stroke=""black"" stroke-width="".5""/></svg>","77","","","","","","VDACtest","red","3rd","vertical","true","high","",""
"","html-keyboard-response","117","366278","0.0-3.0-1.0-2.10","tk14meo2sj","red","null","<p style=""font-size:300%;""> + 2 points.</p><p style=""font-size:300%"">Total: 56 points.</p>","null","","","","","","","","","","","","56",""
"","html-keyboard-response","118","368235","0.0-3.0-1.0-0.11","tk14meo2sj","red","null","<svg viewBox=""0 0 100 100"" > <path d=""M 50 52 L 50 48"" stroke=""black"" stroke-width="".5""/> <path d=""M 52 50 L 48 50"" stroke=""black"" stroke-width="".5""/>","null","","","","","","","","","","","","",""
"","html-keyboard-response","119","369073","0.0-3.0-1.0-1.11","tk14meo2sj","red","834.8300000070594","<svg viewBox=""0 0 100 100"" ><circle cx=""50"" cy=""50"" r=""10"" fill=""none"" transform=""translate( 26  15)"" stroke=""magenta"" /><circle cx=""50"" cy=""50"" r=""10"" fill=""none"" transform=""translate(  0  30)"" stroke=""cyan"" /><circle cx=""50"" cy=""50"" r=""10"" fill=""none"" transform=""translate(-26  15)"" stroke=""gold"" /><circle cx=""50"" cy=""50"" r=""10"" fill=""none"" transform=""translate(-26 -15)"" stroke=""blueviolet"" /><circle cx=""50"" cy=""50"" r=""10"" fill=""none"" transform=""translate(  0 -30)"" stroke=""red"" /><circle cx=""50"" cy=""50"" r=""10"" fill=""none"" transform=""translate( 26 -15)"" stroke=""black"" /><path d=""M 50 57 L 50 43"" stroke=""black"" transform=""translate( 26  15) rotate(45 50 50)""/><path d=""M 50 57 L 50 43"" stroke=""black"" transform=""translate(  0  30) rotate(-45 50 50)""/><path d=""M 50 57 L 50 43"" stroke=""black"" transform=""translate(-26  15) rotate(-45 50 50)""/><path d=""M 50 57 L 50 43"" stroke=""black"" transform=""translate(-26 -15) rotate(-45 50 50)""/><path d=""M 50 57 L 50 43"" stroke=""black"" transform=""translate(  0 -30) rotate(0 50 50)""/><path d=""M 50 57 L 50 43"" stroke=""black"" transform=""translate( 26 -15) rotate(45 50 50)""/><path d=""M 50 52 L 50 48"" stroke=""black"" stroke-width="".5""/> <path d=""M 52 50 L 48 50"" stroke=""black"" stroke-width="".5""/></svg>","90","","","","","","VDACtest","red","5th","vertical","false","high","",""
"","html-keyboard-response","120","371579","0.0-3.0-1.0-2.11","tk14meo2sj","red","null","<p style=""font-size:300%;"">Miss.</p><p style=""font-size:300%"">Total: 56 points.</p>","null","","","","","","","","","","","","56",""
"","html-keyboard-response","121","373535","0.0-3.0-1.0-0.12","tk14meo2sj","red","null","<svg viewBox=""0 0 100 100"" > <path d=""M 50 52 L 50 48"" stroke=""black"" stroke-width="".5""/> <path d=""M 52 50 L 48 50"" stroke=""black"" stroke-width="".5""/>","null","","","","","","","","","","","","",""
"","html-keyboard-response","122","374535","0.0-3.0-1.0-1.12","tk14meo2sj","red","997.6850000093691","<svg viewBox=""0 0 100 100"" ><circle cx=""50"" cy=""50"" r=""10"" fill=""none"" transform=""translate( 26  15)"" stroke=""black"" /><circle cx=""50"" cy=""50"" r=""10"" fill=""none"" transform=""translate(  0  30)"" stroke=""green"" /><circle cx=""50"" cy=""50"" r=""10"" fill=""none"" transform=""translate(-26  15)"" stroke=""blueviolet"" /><circle cx=""50"" cy=""50"" r=""10"" fill=""none"" transform=""translate(-26 -15)"" stroke=""magenta"" /><circle cx=""50"" cy=""50"" r=""10"" fill=""none"" transform=""translate(  0 -30)"" stroke=""gold"" /><circle cx=""50"" cy=""50"" r=""10"" fill=""none"" transform=""translate( 26 -15)"" stroke=""cyan"" /><path d=""M 50 57 L 50 43"" stroke=""black"" transform=""translate( 26  15) rotate(45 50 50)""/><path d=""M 50 57 L 50 43"" stroke=""black"" transform=""translate(  0  30) rotate(0 50 50)""/><path d=""M 50 57 L 50 43"" stroke=""black"" transform=""translate(-26  15) rotate(45 50 50)""/><path d=""M 50 57 L 50 43"" stroke=""black"" transform=""translate(-26 -15) rotate(45 50 50)""/><path d=""M 50 57 L 50 43"" stroke=""black"" transform=""translate(  0 -30) rotate(-45 50 50)""/><path d=""M 50 57 L 50 43"" stroke=""black"" transform=""translate( 26 -15) rotate(45 50 50)""/><path d=""M 50 52 L 50 48"" stroke=""black"" stroke-width="".5""/> <path d=""M 52 50 L 48 50"" stroke=""black"" stroke-width="".5""/></svg>","77","","","","","","VDACtest","green","2nd","vertical","true","low","",""
"","html-keyboard-response","123","377044","0.0-3.0-1.0-2.12","tk14meo2sj","red","null","<p style=""font-size:300%;""> + 2 points.</p><p style=""font-size:300%"">Total: 58 points.</p>","null","","","","","","","","","","","","58",""
"","html-keyboard-response","124","379004","0.0-3.0-1.0-0.13","tk14meo2sj","red","null","<svg viewBox=""0 0 100 100"" > <path d=""M 50 52 L 50 48"" stroke=""black"" stroke-width="".5""/> <path d=""M 52 50 L 48 50"" stroke=""black"" stroke-width="".5""/>","null","","","","","","","","","","","","",""
"","html-keyboard-response","125","379807","0.0-3.0-1.0-1.13","tk14meo2sj","red","801.1299999780022","<svg viewBox=""0 0 100 100"" ><circle cx=""50"" cy=""50"" r=""10"" fill=""none"" transform=""translate( 26  15)"" stroke=""magenta"" /><circle cx=""50"" cy=""50"" r=""10"" fill=""none"" transform=""translate(  0  30)"" stroke=""blueviolet"" /><circle cx=""50"" cy=""50"" r=""10"" fill=""none"" transform=""translate(-26  15)"" stroke=""green"" /><circle cx=""50"" cy=""50"" r=""10"" fill=""none"" transform=""translate(-26 -15)"" stroke=""cyan"" /><circle cx=""50"" cy=""50"" r=""10"" fill=""none"" transform=""translate(  0 -30)"" stroke=""black"" /><circle cx=""50"" cy=""50"" r=""10"" fill=""none"" transform=""translate( 26 -15)"" stroke=""gold"" /><path d=""M 50 57 L 50 43"" stroke=""black"" transform=""translate( 26  15) rotate(-45 50 50)""/><path d=""M 50 57 L 50 43"" stroke=""black"" transform=""translate(  0  30) rotate(-45 50 50)""/><path d=""M 50 57 L 50 43"" stroke=""black"" transform=""translate(-26  15) rotate(90 50 50)""/><path d=""M 50 57 L 50 43"" stroke=""black"" transform=""translate(-26 -15) rotate(45 50 50)""/><path d=""M 50 57 L 50 43"" stroke=""black"" transform=""translate(  0 -30) rotate(45 50 50)""/><path d=""M 50 57 L 50 43"" stroke=""black"" transform=""translate( 26 -15) rotate(45 50 50)""/><path d=""M 50 52 L 50 48"" stroke=""black"" stroke-width="".5""/> <path d=""M 52 50 L 48 50"" stroke=""black"" stroke-width="".5""/></svg>","90","","","","","","VDACtest","green","3rd","horizontal","true","low","",""
"","html-keyboard-response","126","382313","0.0-3.0-1.0-2.13","tk14meo2sj","red","null","<p style=""font-size:300%;""> + 2 points.</p><p style=""font-size:300%"">Total: 60 points.</p>","null","","","","","","","","","","","","60",""
"","html-keyboard-response","127","384274","0.0-3.0-1.0-0.14","tk14meo2sj","red","null","<svg viewBox=""0 0 100 100"" > <path d=""M 50 52 L 50 48"" stroke=""black"" stroke-width="".5""/> <path d=""M 52 50 L 48 50"" stroke=""black"" stroke-width="".5""/>","null","","","","","","","","","","","","",""
"","html-keyboard-response","128","385017","0.0-3.0-1.0-1.14","tk14meo2sj","red","740.6400000327267","<svg viewBox=""0 0 100 100"" ><circle cx=""50"" cy=""50"" r=""10"" fill=""none"" transform=""translate( 26  15)"" stroke=""gold"" /><circle cx=""50"" cy=""50"" r=""10"" fill=""none"" transform=""translate(  0  30)"" stroke=""magenta"" /><circle cx=""50"" cy=""50"" r=""10"" fill=""none"" transform=""translate(-26  15)"" stroke=""black"" /><circle cx=""50"" cy=""50"" r=""10"" fill=""none"" transform=""translate(-26 -15)"" stroke=""red"" /><circle cx=""50"" cy=""50"" r=""10"" fill=""none"" transform=""translate(  0 -30)"" stroke=""cyan"" /><circle cx=""50"" cy=""50"" r=""10"" fill=""none"" transform=""translate( 26 -15)"" stroke=""blueviolet"" /><path d=""M 50 57 L 50 43"" stroke=""black"" transform=""translate( 26  15) rotate(-45 50 50)""/><path d=""M 50 57 L 50 43"" stroke=""black"" transform=""translate(  0  30) rotate(45 50 50)""/><path d=""M 50 57 L 50 43"" stroke=""black"" transform=""translate(-26  15) rotate(45 50 50)""/><path d=""M 50 57 L 50 43"" stroke=""black"" transform=""translate(-26 -15) rotate(90 50 50)""/><path d=""M 50 57 L 50 43"" stroke=""black"" transform=""translate(  0 -30) rotate(45 50 50)""/><path d=""M 50 57 L 50 43"" stroke=""black"" transform=""translate( 26 -15) rotate(-45 50 50)""/><path d=""M 50 52 L 50 48"" stroke=""black"" stroke-width="".5""/> <path d=""M 52 50 L 48 50"" stroke=""black"" stroke-width="".5""/></svg>","90","","","","","","VDACtest","red","4th","horizontal","true","high","",""
"","html-keyboard-response","129","387524","0.0-3.0-1.0-2.14","tk14meo2sj","red","null","<p style=""font-size:300%;""> + 10 points.</p><p style=""font-size:300%"">Total: 70 points.</p>","null","","","","","","","","","","","","70",""
"","html-keyboard-response","130","389483","0.0-3.0-1.0-0.15","tk14meo2sj","red","null","<svg viewBox=""0 0 100 100"" > <path d=""M 50 52 L 50 48"" stroke=""black"" stroke-width="".5""/> <path d=""M 52 50 L 48 50"" stroke=""black"" stroke-width="".5""/>","null","","","","","","","","","","","","",""
"","html-keyboard-response","131","390114","0.0-3.0-1.0-1.15","tk14meo2sj","red","629.1649999911897","<svg viewBox=""0 0 100 100"" ><circle cx=""50"" cy=""50"" r=""10"" fill=""none"" transform=""translate( 26  15)"" stroke=""black"" /><circle cx=""50"" cy=""50"" r=""10"" fill=""none"" transform=""translate(  0  30)"" stroke=""gold"" /><circle cx=""50"" cy=""50"" r=""10"" fill=""none"" transform=""translate(-26  15)"" stroke=""blueviolet"" /><circle cx=""50"" cy=""50"" r=""10"" fill=""none"" transform=""translate(-26 -15)"" stroke=""red"" /><circle cx=""50"" cy=""50"" r=""10"" fill=""none"" transform=""translate(  0 -30)"" stroke=""magenta"" /><circle cx=""50"" cy=""50"" r=""10"" fill=""none"" transform=""translate( 26 -15)"" stroke=""cyan"" /><path d=""M 50 57 L 50 43"" stroke=""black"" transform=""translate( 26  15) rotate(45 50 50)""/><path d=""M 50 57 L 50 43"" stroke=""black"" transform=""translate(  0  30) rotate(45 50 50)""/><path d=""M 50 57 L 50 43"" stroke=""black"" transform=""translate(-26  15) rotate(-45 50 50)""/><path d=""M 50 57 L 50 43"" stroke=""black"" transform=""translate(-26 -15) rotate(0 50 50)""/><path d=""M 50 57 L 50 43"" stroke=""black"" transform=""translate(  0 -30) rotate(45 50 50)""/><path d=""M 50 57 L 50 43"" stroke=""black"" transform=""translate( 26 -15) rotate(45 50 50)""/><path d=""M 50 52 L 50 48"" stroke=""black"" stroke-width="".5""/> <path d=""M 52 50 L 48 50"" stroke=""black"" stroke-width="".5""/></svg>","77","","","","","","VDACtest","red","4th","vertical","true","high","",""
"","html-keyboard-response","132","392617","0.0-3.0-1.0-2.15","tk14meo2sj","red","null","<p style=""font-size:300%;""> + 2 points.</p><p style=""font-size:300%"">Total: 72 points.</p>","null","","","","","","","","","","","","72",""
"","html-keyboard-response","133","394576","0.0-3.0-1.0-0.16","tk14meo2sj","red","null","<svg viewBox=""0 0 100 100"" > <path d=""M 50 52 L 50 48"" stroke=""black"" stroke-width="".5""/> <path d=""M 52 50 L 48 50"" stroke=""black"" stroke-width="".5""/>","null","","","","","","","","","","","","",""
"","html-keyboard-response","134","395290","0.0-3.0-1.0-1.16","tk14meo2sj","red","711.3549999776296","<svg viewBox=""0 0 100 100"" ><circle cx=""50"" cy=""50"" r=""10"" fill=""none"" transform=""translate( 26  15)"" stroke=""black"" /><circle cx=""50"" cy=""50"" r=""10"" fill=""none"" transform=""translate(  0  30)"" stroke=""magenta"" /><circle cx=""50"" cy=""50"" r=""10"" fill=""none"" transform=""translate(-26  15)"" stroke=""red"" /><circle cx=""50"" cy=""50"" r=""10"" fill=""none"" transform=""translate(-26 -15)"" stroke=""blueviolet"" /><circle cx=""50"" cy=""50"" r=""10"" fill=""none"" transform=""translate(  0 -30)"" stroke=""cyan"" /><circle cx=""50"" cy=""50"" r=""10"" fill=""none"" transform=""translate( 26 -15)"" stroke=""gold"" /><path d=""M 50 57 L 50 43"" stroke=""black"" transform=""translate( 26  15) rotate(-45 50 50)""/><path d=""M 50 57 L 50 43"" stroke=""black"" transform=""translate(  0  30) rotate(-45 50 50)""/><path d=""M 50 57 L 50 43"" stroke=""black"" transform=""translate(-26  15) rotate(0 50 50)""/><path d=""M 50 57 L 50 43"" stroke=""black"" transform=""translate(-26 -15) rotate(-45 50 50)""/><path d=""M 50 57 L 50 43"" stroke=""black"" transform=""translate(  0 -30) rotate(-45 50 50)""/><path d=""M 50 57 L 50 43"" stroke=""black"" transform=""translate( 26 -15) rotate(45 50 50)""/><path d=""M 50 52 L 50 48"" stroke=""black"" stroke-width="".5""/> <path d=""M 52 50 L 48 50"" stroke=""black"" stroke-width="".5""/></svg>","77","","","","","","VDACtest","red","3rd","vertical","true","high","",""
"","html-keyboard-response","135","397795","0.0-3.0-1.0-2.16","tk14meo2sj","red","null","<p style=""font-size:300%;""> + 10 points.</p><p style=""font-size:300%"">Total: 82 points.</p>","null","","","","","","","","","","","","82",""
"","html-keyboard-response","136","399753","0.0-3.0-1.0-0.17","tk14meo2sj","red","null","<svg viewBox=""0 0 100 100"" > <path d=""M 50 52 L 50 48"" stroke=""black"" stroke-width="".5""/> <path d=""M 52 50 L 48 50"" stroke=""black"" stroke-width="".5""/>","null","","","","","","","","","","","","",""
"","html-keyboard-response","137","400760","0.0-3.0-1.0-1.17","tk14meo2sj","red","null","<svg viewBox=""0 0 100 100"" ><circle cx=""50"" cy=""50"" r=""10"" fill=""none"" transform=""translate( 26  15)"" stroke=""red"" /><circle cx=""50"" cy=""50"" r=""10"" fill=""none"" transform=""translate(  0  30)"" stroke=""gold"" /><circle cx=""50"" cy=""50"" r=""10"" fill=""none"" transform=""translate(-26  15)"" stroke=""magenta"" /><circle cx=""50"" cy=""50"" r=""10"" fill=""none"" transform=""translate(-26 -15)"" stroke=""black"" /><circle cx=""50"" cy=""50"" r=""10"" fill=""none"" transform=""translate(  0 -30)"" stroke=""blueviolet"" /><circle cx=""50"" cy=""50"" r=""10"" fill=""none"" transform=""translate( 26 -15)"" stroke=""cyan"" /><path d=""M 50 57 L 50 43"" stroke=""black"" transform=""translate( 26  15) rotate(90 50 50)""/><path d=""M 50 57 L 50 43"" stroke=""black"" transform=""translate(  0  30) rotate(45 50 50)""/><path d=""M 50 57 L 50 43"" stroke=""black"" transform=""translate(-26  15) rotate(-45 50 50)""/><path d=""M 50 57 L 50 43"" stroke=""black"" transform=""translate(-26 -15) rotate(-45 50 50)""/><path d=""M 50 57 L 50 43"" stroke=""black"" transform=""translate(  0 -30) rotate(45 50 50)""/><path d=""M 50 57 L 50 43"" stroke=""black"" transform=""translate( 26 -15) rotate(45 50 50)""/><path d=""M 50 52 L 50 48"" stroke=""black"" stroke-width="".5""/> <path d=""M 52 50 L 48 50"" stroke=""black"" stroke-width="".5""/></svg>","null","","","","","","VDACtest","red","1st","horizontal","null","high","",""
"","html-keyboard-response","138","403267","0.0-3.0-1.0-2.17","tk14meo2sj","red","null","<p style=""font-size:300%;"">Miss.</p><p style=""font-size:300%"">Total: 82 points.</p>","null","","","","","","","","","","","","82",""
"","html-keyboard-response","139","405229","0.0-3.0-1.0-0.18","tk14meo2sj","red","null","<svg viewBox=""0 0 100 100"" > <path d=""M 50 52 L 50 48"" stroke=""black"" stroke-width="".5""/> <path d=""M 52 50 L 48 50"" stroke=""black"" stroke-width="".5""/>","null","","","","","","","","","","","","",""
"","html-keyboard-response","140","406233","0.0-3.0-1.0-1.18","tk14meo2sj","red","null","<svg viewBox=""0 0 100 100"" ><circle cx=""50"" cy=""50"" r=""10"" fill=""none"" transform=""translate( 26  15)"" stroke=""green"" /><circle cx=""50"" cy=""50"" r=""10"" fill=""none"" transform=""translate(  0  30)"" stroke=""magenta"" /><circle cx=""50"" cy=""50"" r=""10"" fill=""none"" transform=""translate(-26  15)"" stroke=""cyan"" /><circle cx=""50"" cy=""50"" r=""10"" fill=""none"" transform=""translate(-26 -15)"" stroke=""blueviolet"" /><circle cx=""50"" cy=""50"" r=""10"" fill=""none"" transform=""translate(  0 -30)"" stroke=""gold"" /><circle cx=""50"" cy=""50"" r=""10"" fill=""none"" transform=""translate( 26 -15)"" stroke=""black"" /><path d=""M 50 57 L 50 43"" stroke=""black"" transform=""translate( 26  15) rotate(90 50 50)""/><path d=""M 50 57 L 50 43"" stroke=""black"" transform=""translate(  0  30) rotate(-45 50 50)""/><path d=""M 50 57 L 50 43"" stroke=""black"" transform=""translate(-26  15) rotate(-45 50 50)""/><path d=""M 50 57 L 50 43"" stroke=""black"" transform=""translate(-26 -15) rotate(45 50 50)""/><path d=""M 50 57 L 50 43"" stroke=""black"" transform=""translate(  0 -30) rotate(45 50 50)""/><path d=""M 50 57 L 50 43"" stroke=""black"" transform=""translate( 26 -15) rotate(45 50 50)""/><path d=""M 50 52 L 50 48"" stroke=""black"" stroke-width="".5""/> <path d=""M 52 50 L 48 50"" stroke=""black"" stroke-width="".5""/></svg>","null","","","","","","VDACtest","green","1st","horizontal","null","low","",""
"","html-keyboard-response","141","408741","0.0-3.0-1.0-2.18","tk14meo2sj","red","null","<p style=""font-size:300%;"">Miss.</p><p style=""font-size:300%"">Total: 82 points.</p>","null","","","","","","","","","","","","82",""
"","html-keyboard-response","142","410702","0.0-3.0-1.0-0.19","tk14meo2sj","red","null","<svg viewBox=""0 0 100 100"" > <path d=""M 50 52 L 50 48"" stroke=""black"" stroke-width="".5""/> <path d=""M 52 50 L 48 50"" stroke=""black"" stroke-width="".5""/>","null","","","","","","","","","","","","",""
"","html-keyboard-response","143","411289","0.0-3.0-1.0-1.19","tk14meo2sj","red","584.160000027623","<svg viewBox=""0 0 100 100"" ><circle cx=""50"" cy=""50"" r=""10"" fill=""none"" transform=""translate( 26  15)"" stroke=""blueviolet"" /><circle cx=""50"" cy=""50"" r=""10"" fill=""none"" transform=""translate(  0  30)"" stroke=""black"" /><circle cx=""50"" cy=""50"" r=""10"" fill=""none"" transform=""translate(-26  15)"" stroke=""red"" /><circle cx=""50"" cy=""50"" r=""10"" fill=""none"" transform=""translate(-26 -15)"" stroke=""magenta"" /><circle cx=""50"" cy=""50"" r=""10"" fill=""none"" transform=""translate(  0 -30)"" stroke=""cyan"" /><circle cx=""50"" cy=""50"" r=""10"" fill=""none"" transform=""translate( 26 -15)"" stroke=""gold"" /><path d=""M 50 57 L 50 43"" stroke=""black"" transform=""translate( 26  15) rotate(45 50 50)""/><path d=""M 50 57 L 50 43"" stroke=""black"" transform=""translate(  0  30) rotate(-45 50 50)""/><path d=""M 50 57 L 50 43"" stroke=""black"" transform=""translate(-26  15) rotate(0 50 50)""/><path d=""M 50 57 L 50 43"" stroke=""black"" transform=""translate(-26 -15) rotate(45 50 50)""/><path d=""M 50 57 L 50 43"" stroke=""black"" transform=""translate(  0 -30) rotate(-45 50 50)""/><path d=""M 50 57 L 50 43"" stroke=""black"" transform=""translate( 26 -15) rotate(45 50 50)""/><path d=""M 50 52 L 50 48"" stroke=""black"" stroke-width="".5""/> <path d=""M 52 50 L 48 50"" stroke=""black"" stroke-width="".5""/></svg>","77","","","","","","VDACtest","red","3rd","vertical","true","high","",""
"","html-keyboard-response","144","413795","0.0-3.0-1.0-2.19","tk14meo2sj","red","null","<p style=""font-size:300%;""> + 10 points.</p><p style=""font-size:300%"">Total: 92 points.</p>","null","","","","","","","","","","","","92",""
"","html-keyboard-response","145","415753","0.0-3.0-1.0-0.20","tk14meo2sj","red","null","<svg viewBox=""0 0 100 100"" > <path d=""M 50 52 L 50 48"" stroke=""black"" stroke-width="".5""/> <path d=""M 52 50 L 48 50"" stroke=""black"" stroke-width="".5""/>","null","","","","","","","","","","","","",""
"","html-keyboard-response","146","416399","0.0-3.0-1.0-1.20","tk14meo2sj","red","643.4349999763072","<svg viewBox=""0 0 100 100"" ><circle cx=""50"" cy=""50"" r=""10"" fill=""none"" transform=""translate( 26  15)"" stroke=""magenta"" /><circle cx=""50"" cy=""50"" r=""10"" fill=""none"" transform=""translate(  0  30)"" stroke=""cyan"" /><circle cx=""50"" cy=""50"" r=""10"" fill=""none"" transform=""translate(-26  15)"" stroke=""green"" /><circle cx=""50"" cy=""50"" r=""10"" fill=""none"" transform=""translate(-26 -15)"" stroke=""black"" /><circle cx=""50"" cy=""50"" r=""10"" fill=""none"" transform=""translate(  0 -30)"" stroke=""gold"" /><circle cx=""50"" cy=""50"" r=""10"" fill=""none"" transform=""translate( 26 -15)"" stroke=""blueviolet"" /><path d=""M 50 57 L 50 43"" stroke=""black"" transform=""translate( 26  15) rotate(-45 50 50)""/><path d=""M 50 57 L 50 43"" stroke=""black"" transform=""translate(  0  30) rotate(-45 50 50)""/><path d=""M 50 57 L 50 43"" stroke=""black"" transform=""translate(-26  15) rotate(0 50 50)""/><path d=""M 50 57 L 50 43"" stroke=""black"" transform=""translate(-26 -15) rotate(-45 50 50)""/><path d=""M 50 57 L 50 43"" stroke=""black"" transform=""translate(  0 -30) rotate(-45 50 50)""/><path d=""M 50 57 L 50 43"" stroke=""black"" transform=""translate( 26 -15) rotate(-45 50 50)""/><path d=""M 50 52 L 50 48"" stroke=""black"" stroke-width="".5""/> <path d=""M 52 50 L 48 50"" stroke=""black"" stroke-width="".5""/></svg>","77","","","","","","VDACtest","green","3rd","vertical","true","low","",""
"","html-keyboard-response","147","418901","0.0-3.0-1.0-2.20","tk14meo2sj","red","null","<p style=""font-size:300%;""> + 2 points.</p><p style=""font-size:300%"">Total: 94 points.</p>","null","","","","","","","","","","","","94",""
"","html-keyboard-response","148","420862","0.0-3.0-1.0-0.21","tk14meo2sj","red","null","<svg viewBox=""0 0 100 100"" > <path d=""M 50 52 L 50 48"" stroke=""black"" stroke-width="".5""/> <path d=""M 52 50 L 48 50"" stroke=""black"" stroke-width="".5""/>","null","","","","","","","","","","","","",""
"","html-keyboard-response","149","421493","0.0-3.0-1.0-1.21","tk14meo2sj","red","629.1049999999814","<svg viewBox=""0 0 100 100"" ><circle cx=""50"" cy=""50"" r=""10"" fill=""none"" transform=""translate( 26  15)"" stroke=""blueviolet"" /><circle cx=""50"" cy=""50"" r=""10"" fill=""none"" transform=""translate(  0  30)"" stroke=""magenta"" /><circle cx=""50"" cy=""50"" r=""10"" fill=""none"" transform=""translate(-26  15)"" stroke=""cyan"" /><circle cx=""50"" cy=""50"" r=""10"" fill=""none"" transform=""translate(-26 -15)"" stroke=""gold"" /><circle cx=""50"" cy=""50"" r=""10"" fill=""none"" transform=""translate(  0 -30)"" stroke=""green"" /><circle cx=""50"" cy=""50"" r=""10"" fill=""none"" transform=""translate( 26 -15)"" stroke=""black"" /><path d=""M 50 57 L 50 43"" stroke=""black"" transform=""translate( 26  15) rotate(45 50 50)""/><path d=""M 50 57 L 50 43"" stroke=""black"" transform=""translate(  0  30) rotate(-45 50 50)""/><path d=""M 50 57 L 50 43"" stroke=""black"" transform=""translate(-26  15) rotate(45 50 50)""/><path d=""M 50 57 L 50 43"" stroke=""black"" transform=""translate(-26 -15) rotate(-45 50 50)""/><path d=""M 50 57 L 50 43"" stroke=""black"" transform=""translate(  0 -30) rotate(90 50 50)""/><path d=""M 50 57 L 50 43"" stroke=""black"" transform=""translate( 26 -15) rotate(45 50 50)""/><path d=""M 50 52 L 50 48"" stroke=""black"" stroke-width="".5""/> <path d=""M 52 50 L 48 50"" stroke=""black"" stroke-width="".5""/></svg>","90","","","","","","VDACtest","green","5th","horizontal","true","low","",""
"","html-keyboard-response","150","423998","0.0-3.0-1.0-2.21","tk14meo2sj","red","null","<p style=""font-size:300%;""> + 2 points.</p><p style=""font-size:300%"">Total: 96 points.</p>","null","","","","","","","","","","","","96",""
"","html-keyboard-response","151","425956","0.0-3.0-1.0-0.22","tk14meo2sj","red","null","<svg viewBox=""0 0 100 100"" > <path d=""M 50 52 L 50 48"" stroke=""black"" stroke-width="".5""/> <path d=""M 52 50 L 48 50"" stroke=""black"" stroke-width="".5""/>","null","","","","","","","","","","","","",""
"","html-keyboard-response","152","426477","0.0-3.0-1.0-1.22","tk14meo2sj","red","517.9299999726936","<svg viewBox=""0 0 100 100"" ><circle cx=""50"" cy=""50"" r=""10"" fill=""none"" transform=""translate( 26  15)"" stroke=""black"" /><circle cx=""50"" cy=""50"" r=""10"" fill=""none"" transform=""translate(  0  30)"" stroke=""blueviolet"" /><circle cx=""50"" cy=""50"" r=""10"" fill=""none"" transform=""translate(-26  15)"" stroke=""cyan"" /><circle cx=""50"" cy=""50"" r=""10"" fill=""none"" transform=""translate(-26 -15)"" stroke=""green"" /><circle cx=""50"" cy=""50"" r=""10"" fill=""none"" transform=""translate(  0 -30)"" stroke=""magenta"" /><circle cx=""50"" cy=""50"" r=""10"" fill=""none"" transform=""translate( 26 -15)"" stroke=""gold"" /><path d=""M 50 57 L 50 43"" stroke=""black"" transform=""translate( 26  15) rotate(45 50 50)""/><path d=""M 50 57 L 50 43"" stroke=""black"" transform=""translate(  0  30) rotate(-45 50 50)""/><path d=""M 50 57 L 50 43"" stroke=""black"" transform=""translate(-26  15) rotate(-45 50 50)""/><path d=""M 50 57 L 50 43"" stroke=""black"" transform=""translate(-26 -15) rotate(90 50 50)""/><path d=""M 50 57 L 50 43"" stroke=""black"" transform=""translate(  0 -30) rotate(-45 50 50)""/><path d=""M 50 57 L 50 43"" stroke=""black"" transform=""translate( 26 -15) rotate(45 50 50)""/><path d=""M 50 52 L 50 48"" stroke=""black"" stroke-width="".5""/> <path d=""M 52 50 L 48 50"" stroke=""black"" stroke-width="".5""/></svg>","90","","","","","","VDACtest","green","4th","horizontal","true","low","",""
"","html-keyboard-response","153","428985","0.0-3.0-1.0-2.22","tk14meo2sj","red","null","<p style=""font-size:300%;""> + 10 points.</p><p style=""font-size:300%"">Total: 106 points.</p>","null","","","","","","","","","","","","106",""
"","html-keyboard-response","154","430947","0.0-3.0-1.0-0.23","tk14meo2sj","red","null","<svg viewBox=""0 0 100 100"" > <path d=""M 50 52 L 50 48"" stroke=""black"" stroke-width="".5""/> <path d=""M 52 50 L 48 50"" stroke=""black"" stroke-width="".5""/>","null","","","","","","","","","","","","",""
"","html-keyboard-response","155","431569","0.0-3.0-1.0-1.23","tk14meo2sj","red","619.6849999832921","<svg viewBox=""0 0 100 100"" ><circle cx=""50"" cy=""50"" r=""10"" fill=""none"" transform=""translate( 26  15)"" stroke=""red"" /><circle cx=""50"" cy=""50"" r=""10"" fill=""none"" transform=""translate(  0  30)"" stroke=""black"" /><circle cx=""50"" cy=""50"" r=""10"" fill=""none"" transform=""translate(-26  15)"" stroke=""gold"" /><circle cx=""50"" cy=""50"" r=""10"" fill=""none"" transform=""translate(-26 -15)"" stroke=""cyan"" /><circle cx=""50"" cy=""50"" r=""10"" fill=""none"" transform=""translate(  0 -30)"" stroke=""magenta"" /><circle cx=""50"" cy=""50"" r=""10"" fill=""none"" transform=""translate( 26 -15)"" stroke=""blueviolet"" /><path d=""M 50 57 L 50 43"" stroke=""black"" transform=""translate( 26  15) rotate(0 50 50)""/><path d=""M 50 57 L 50 43"" stroke=""black"" transform=""translate(  0  30) rotate(45 50 50)""/><path d=""M 50 57 L 50 43"" stroke=""black"" transform=""translate(-26  15) rotate(-45 50 50)""/><path d=""M 50 57 L 50 43"" stroke=""black"" transform=""translate(-26 -15) rotate(-45 50 50)""/><path d=""M 50 57 L 50 43"" stroke=""black"" transform=""translate(  0 -30) rotate(-45 50 50)""/><path d=""M 50 57 L 50 43"" stroke=""black"" transform=""translate( 26 -15) rotate(-45 50 50)""/><path d=""M 50 52 L 50 48"" stroke=""black"" stroke-width="".5""/> <path d=""M 52 50 L 48 50"" stroke=""black"" stroke-width="".5""/></svg>","77","","","","","","VDACtest","red","1st","vertical","true","high","",""
"","html-keyboard-response","156","434075","0.0-3.0-1.0-2.23","tk14meo2sj","red","null","<p style=""font-size:300%;""> + 2 points.</p><p style=""font-size:300%"">Total: 108 points.</p>","null","","","","","","","","","","","","108",""
"","html-keyboard-response","157","436030","0.0-3.0-1.0-0.24","tk14meo2sj","red","null","<svg viewBox=""0 0 100 100"" > <path d=""M 50 52 L 50 48"" stroke=""black"" stroke-width="".5""/> <path d=""M 52 50 L 48 50"" stroke=""black"" stroke-width="".5""/>","null","","","","","","","","","","","","",""
