"success","trial_type","trial_index","time_elapsed","internal_node_id","subject","condition","rt","stimulus","key_press","url","responses","question_order","value","view_history","trialType","color","tgtPosition","orientation","correct","rewardType","reward","colorPosition"
"true","fullscreen","0","4433","0.0-0.0-0.0","tglomgf2q8","red","","","","","","","","","","","","","","","",""
"","html-keyboard-response","1","10750","0.0-0.0-1.0","tglomgf2q8","red","6316.439999965951","<div style= ""font-size:20px;"" <p> <strong> Welcome to the experiment! </strong><br> <p style=""color:red; font-size:25px;""> Please do NOT exit full screen until you are done with the experiment. </p><p style=""color:red;""> The experiment will be canceled and your data will be lost if you try to go back or refresh the page at any time during the experiment.</p><p style=""color:red;""> Please rely on your memory and do NOT write anything down throughout the experiment. </p><br><p style=""color:black;"">Press any key to continue.</p> </span>","32","","","","","","","","","","","","",""
"","external-html","2","39325","0.0-0.0-2.0","tglomgf2q8","red","28109.554999973625","","","http://labs.psychology.illinois.edu/~jy57/memory_capture/supportFiles/Consent.html","","","","","","","","","","","",""
"","survey-text","3","45017","0.0-0.0-3.0","tglomgf2q8","red","5688.7200000928715","","","","{""Q0"":""18"",""Q1"":""0""}","","","","","","","","","","",""
"","survey-multi-select","4","47561","0.0-0.0-4.0","tglomgf2q8","red","2542.46000002604","","","","{""Q0"":[""White""]}","[0]","","","","","","","","","",""
"","survey-multi-choice","5","63459","0.0-0.0-5.0","tglomgf2q8","red","15895.850000088103","","","","{""Q0"":""Male"",""Q1"":""No"",""Q2"":""Somewhat better than average""}","[0,1,2]","","","","","","","","","",""
"","call-function","6","63459","0.0-0.0-6.0","tglomgf2q8","red","","","","","","","","","","","","","","","",""
"","instructions","7","144173","0.0-1.0-0.0","tglomgf2q8","red","80713.57999998145","","","","","","","[{""page_index"":0,""viewing_time"":27358.285000082105},{""page_index"":1,""viewing_time"":7627.994999988005},{""page_index"":0,""viewing_time"":3239.865000010468},{""page_index"":1,""viewing_time"":1351.425000000745},{""page_index"":2,""viewing_time"":1079.9049999332055},{""page_index"":3,""viewing_time"":3912.1300000697374},{""page_index"":4,""viewing_time"":1720.0549999251962},{""page_index"":5,""viewing_time"":1784.2149999924004},{""page_index"":6,""viewing_time"":1080.1450000144541},{""page_index"":7,""viewing_time"":943.6599999899045},{""page_index"":6,""viewing_time"":199.9000000068918},{""page_index"":5,""viewing_time"":528.0400000046939},{""page_index"":4,""viewing_time"":383.9450000086799},{""page_index"":5,""viewing_time"":688.1349999457598},{""page_index"":6,""viewing_time"":432.0000000298023},{""page_index"":7,""viewing_time"":28383.6949999677}]","","","","","","","",""
"","html-keyboard-response","8","146183","0.0-1.0-1.0-0.0","tglomgf2q8","red","null","<p>Place your fingers on the <b>Z</b> and <b>M</b> keys. The experiment will begin shortly.</p><p>&nbsp</p>","null","","","","","","","","","","","","",""
"","html-keyboard-response","9","146990","0.0-1.0-1.0-1.0","tglomgf2q8","red","806.0800000093877","<p>Place your fingers on the <b>Z</b> and <b>M</b> keys. The experiment will begin shortly.</p><p>3</p>","39","","","","","","","","","","","","",""
"","html-keyboard-response","10","148003","0.0-1.0-1.0-2.0","tglomgf2q8","red","null","<p>Place your fingers on the <b>Z</b> and <b>M</b> keys. The experiment will begin shortly.</p><p>2</p>","null","","","","","","","","","","","","",""
"","html-keyboard-response","11","149009","0.0-1.0-1.0-3.0","tglomgf2q8","red","null","<p>Place your fingers on the <b>Z</b> and <b>M</b> keys. The experiment will begin shortly.</p><p>1</p>","null","","","","","","","","","","","","",""
"","html-keyboard-response","12","149692","0.0-1.0-2.0-0.0","tglomgf2q8","red","null","<svg viewBox=""0 0 100 100"" > <path d=""M 50 52 L 50 48"" stroke=""black"" stroke-width="".5""/> <path d=""M 52 50 L 48 50"" stroke=""black"" stroke-width="".5""/>","null","","","","","","","","","","","","",""
"","html-keyboard-response","13","150702","0.0-1.0-2.0-1.0","tglomgf2q8","red","null","<svg viewBox=""0 0 100 100"" ><text font-size=""10%"" text-anchor=""middle""  x=""50"" y=""98"">Press Z for horizontal or M for vertical</text><circle cx=""50"" cy=""50"" r=""10"" fill=""none"" transform=""translate( 26  15)"" stroke=""green"" /><circle cx=""50"" cy=""50"" r=""10"" fill=""none"" transform=""translate(  0  30)"" stroke=""gold"" /><circle cx=""50"" cy=""50"" r=""10"" fill=""none"" transform=""translate(-26  15)"" stroke=""cyan"" /><circle cx=""50"" cy=""50"" r=""10"" fill=""none"" transform=""translate(-26 -15)"" stroke=""black"" /><circle cx=""50"" cy=""50"" r=""10"" fill=""none"" transform=""translate(  0 -30)"" stroke=""blueviolet"" /><circle cx=""50"" cy=""50"" r=""10"" fill=""none"" transform=""translate( 26 -15)"" stroke=""magenta"" /><path d=""M 50 57 L 50 43"" stroke=""black"" transform=""translate( 26  15) rotate(0 50 50)""/><path d=""M 50 57 L 50 43"" stroke=""black"" transform=""translate(  0  30) rotate(-45 50 50)""/><path d=""M 50 57 L 50 43"" stroke=""black"" transform=""translate(-26  15) rotate(-45 50 50)""/><path d=""M 50 57 L 50 43"" stroke=""black"" transform=""translate(-26 -15) rotate(-45 50 50)""/><path d=""M 50 57 L 50 43"" stroke=""black"" transform=""translate(  0 -30) rotate(45 50 50)""/><path d=""M 50 57 L 50 43"" stroke=""black"" transform=""translate( 26 -15) rotate(-45 50 50)""/><path d=""M 50 52 L 50 48"" stroke=""black"" stroke-width="".5""/> <path d=""M 52 50 L 48 50"" stroke=""black"" stroke-width="".5""/></svg>","null","","","","","","VDACtraining","green","0","vertical","null","","",""
"","html-keyboard-response","14","153219","0.0-1.0-2.0-2.0","tglomgf2q8","red","null","<p style=""font-size:300%;"">Miss.</p> <p style=""font-size:300%;"">Too slow.</p>","null","","","","","","","","","","","","",""
"","html-keyboard-response","15","154910","0.0-1.0-2.0-0.1","tglomgf2q8","red","null","<svg viewBox=""0 0 100 100"" > <path d=""M 50 52 L 50 48"" stroke=""black"" stroke-width="".5""/> <path d=""M 52 50 L 48 50"" stroke=""black"" stroke-width="".5""/>","null","","","","","","","","","","","","",""
"","html-keyboard-response","16","155494","0.0-1.0-2.0-1.1","tglomgf2q8","red","583.1699999980628","<svg viewBox=""0 0 100 100"" ><text font-size=""10%"" text-anchor=""middle""  x=""50"" y=""98"">Press Z for horizontal or M for vertical</text><circle cx=""50"" cy=""50"" r=""10"" fill=""none"" transform=""translate( 26  15)"" stroke=""blueviolet"" /><circle cx=""50"" cy=""50"" r=""10"" fill=""none"" transform=""translate(  0  30)"" stroke=""green"" /><circle cx=""50"" cy=""50"" r=""10"" fill=""none"" transform=""translate(-26  15)"" stroke=""cyan"" /><circle cx=""50"" cy=""50"" r=""10"" fill=""none"" transform=""translate(-26 -15)"" stroke=""magenta"" /><circle cx=""50"" cy=""50"" r=""10"" fill=""none"" transform=""translate(  0 -30)"" stroke=""gold"" /><circle cx=""50"" cy=""50"" r=""10"" fill=""none"" transform=""translate( 26 -15)"" stroke=""black"" /><path d=""M 50 57 L 50 43"" stroke=""black"" transform=""translate( 26  15) rotate(-45 50 50)""/><path d=""M 50 57 L 50 43"" stroke=""black"" transform=""translate(  0  30) rotate(90 50 50)""/><path d=""M 50 57 L 50 43"" stroke=""black"" transform=""translate(-26  15) rotate(-45 50 50)""/><path d=""M 50 57 L 50 43"" stroke=""black"" transform=""translate(-26 -15) rotate(-45 50 50)""/><path d=""M 50 57 L 50 43"" stroke=""black"" transform=""translate(  0 -30) rotate(45 50 50)""/><path d=""M 50 57 L 50 43"" stroke=""black"" transform=""translate( 26 -15) rotate(-45 50 50)""/><path d=""M 50 52 L 50 48"" stroke=""black"" stroke-width="".5""/> <path d=""M 52 50 L 48 50"" stroke=""black"" stroke-width="".5""/></svg>","77","","","","","","VDACtraining","green","1","horizontal","false","","",""
"","html-keyboard-response","17","158001","0.0-1.0-2.0-2.1","tglomgf2q8","red","null","<p style=""font-size:300%;"">Miss.</p> <p style=""font-size:300%;"">Wrong response.</p>","null","","","","","","","","","","","","",""
"","html-keyboard-response","18","159694","0.0-1.0-2.0-0.2","tglomgf2q8","red","null","<svg viewBox=""0 0 100 100"" > <path d=""M 50 52 L 50 48"" stroke=""black"" stroke-width="".5""/> <path d=""M 52 50 L 48 50"" stroke=""black"" stroke-width="".5""/>","null","","","","","","","","","","","","",""
"","html-keyboard-response","19","160149","0.0-1.0-2.0-1.2","tglomgf2q8","red","453.80500005558133","<svg viewBox=""0 0 100 100"" ><text font-size=""10%"" text-anchor=""middle""  x=""50"" y=""98"">Press Z for horizontal or M for vertical</text><circle cx=""50"" cy=""50"" r=""10"" fill=""none"" transform=""translate( 26  15)"" stroke=""magenta"" /><circle cx=""50"" cy=""50"" r=""10"" fill=""none"" transform=""translate(  0  30)"" stroke=""gold"" /><circle cx=""50"" cy=""50"" r=""10"" fill=""none"" transform=""translate(-26  15)"" stroke=""black"" /><circle cx=""50"" cy=""50"" r=""10"" fill=""none"" transform=""translate(-26 -15)"" stroke=""red"" /><circle cx=""50"" cy=""50"" r=""10"" fill=""none"" transform=""translate(  0 -30)"" stroke=""blueviolet"" /><circle cx=""50"" cy=""50"" r=""10"" fill=""none"" transform=""translate( 26 -15)"" stroke=""cyan"" /><path d=""M 50 57 L 50 43"" stroke=""black"" transform=""translate( 26  15) rotate(45 50 50)""/><path d=""M 50 57 L 50 43"" stroke=""black"" transform=""translate(  0  30) rotate(45 50 50)""/><path d=""M 50 57 L 50 43"" stroke=""black"" transform=""translate(-26  15) rotate(45 50 50)""/><path d=""M 50 57 L 50 43"" stroke=""black"" transform=""translate(-26 -15) rotate(0 50 50)""/><path d=""M 50 57 L 50 43"" stroke=""black"" transform=""translate(  0 -30) rotate(-45 50 50)""/><path d=""M 50 57 L 50 43"" stroke=""black"" transform=""translate( 26 -15) rotate(45 50 50)""/><path d=""M 50 52 L 50 48"" stroke=""black"" stroke-width="".5""/> <path d=""M 52 50 L 48 50"" stroke=""black"" stroke-width="".5""/></svg>","90","","","","","","VDACtraining","red","3","vertical","false","","",""
"","html-keyboard-response","20","162653","0.0-1.0-2.0-2.2","tglomgf2q8","red","null","<p style=""font-size:300%;"">Miss.</p> <p style=""font-size:300%;"">Wrong response.</p>","null","","","","","","","","","","","","",""
"","html-keyboard-response","21","164341","0.0-1.0-2.0-0.3","tglomgf2q8","red","null","<svg viewBox=""0 0 100 100"" > <path d=""M 50 52 L 50 48"" stroke=""black"" stroke-width="".5""/> <path d=""M 52 50 L 48 50"" stroke=""black"" stroke-width="".5""/>","null","","","","","","","","","","","","",""
"","html-keyboard-response","22","164925","0.0-1.0-2.0-1.3","tglomgf2q8","red","582.725000102073","<svg viewBox=""0 0 100 100"" ><text font-size=""10%"" text-anchor=""middle""  x=""50"" y=""98"">Press Z for horizontal or M for vertical</text><circle cx=""50"" cy=""50"" r=""10"" fill=""none"" transform=""translate( 26  15)"" stroke=""cyan"" /><circle cx=""50"" cy=""50"" r=""10"" fill=""none"" transform=""translate(  0  30)"" stroke=""blueviolet"" /><circle cx=""50"" cy=""50"" r=""10"" fill=""none"" transform=""translate(-26  15)"" stroke=""green"" /><circle cx=""50"" cy=""50"" r=""10"" fill=""none"" transform=""translate(-26 -15)"" stroke=""gold"" /><circle cx=""50"" cy=""50"" r=""10"" fill=""none"" transform=""translate(  0 -30)"" stroke=""black"" /><circle cx=""50"" cy=""50"" r=""10"" fill=""none"" transform=""translate( 26 -15)"" stroke=""magenta"" /><path d=""M 50 57 L 50 43"" stroke=""black"" transform=""translate( 26  15) rotate(-45 50 50)""/><path d=""M 50 57 L 50 43"" stroke=""black"" transform=""translate(  0  30) rotate(-45 50 50)""/><path d=""M 50 57 L 50 43"" stroke=""black"" transform=""translate(-26  15) rotate(0 50 50)""/><path d=""M 50 57 L 50 43"" stroke=""black"" transform=""translate(-26 -15) rotate(45 50 50)""/><path d=""M 50 57 L 50 43"" stroke=""black"" transform=""translate(  0 -30) rotate(45 50 50)""/><path d=""M 50 57 L 50 43"" stroke=""black"" transform=""translate( 26 -15) rotate(45 50 50)""/><path d=""M 50 52 L 50 48"" stroke=""black"" stroke-width="".5""/> <path d=""M 52 50 L 48 50"" stroke=""black"" stroke-width="".5""/></svg>","77","","","","","","VDACtraining","green","2","vertical","true","","",""
"","html-keyboard-response","23","167449","0.0-1.0-2.0-2.3","tglomgf2q8","red","null","<p style=""font-size:300%;"">Correct!</p>","null","","","","","","","","","","","","",""
"","html-keyboard-response","24","169154","0.0-1.0-2.0-0.4","tglomgf2q8","red","null","<svg viewBox=""0 0 100 100"" > <path d=""M 50 52 L 50 48"" stroke=""black"" stroke-width="".5""/> <path d=""M 52 50 L 48 50"" stroke=""black"" stroke-width="".5""/>","null","","","","","","","","","","","","",""
"","html-keyboard-response","25","169685","0.0-1.0-2.0-1.4","tglomgf2q8","red","530.5400000652298","<svg viewBox=""0 0 100 100"" ><text font-size=""10%"" text-anchor=""middle""  x=""50"" y=""98"">Press Z for horizontal or M for vertical</text><circle cx=""50"" cy=""50"" r=""10"" fill=""none"" transform=""translate( 26  15)"" stroke=""cyan"" /><circle cx=""50"" cy=""50"" r=""10"" fill=""none"" transform=""translate(  0  30)"" stroke=""magenta"" /><circle cx=""50"" cy=""50"" r=""10"" fill=""none"" transform=""translate(-26  15)"" stroke=""blueviolet"" /><circle cx=""50"" cy=""50"" r=""10"" fill=""none"" transform=""translate(-26 -15)"" stroke=""gold"" /><circle cx=""50"" cy=""50"" r=""10"" fill=""none"" transform=""translate(  0 -30)"" stroke=""black"" /><circle cx=""50"" cy=""50"" r=""10"" fill=""none"" transform=""translate( 26 -15)"" stroke=""red"" /><path d=""M 50 57 L 50 43"" stroke=""black"" transform=""translate( 26  15) rotate(-45 50 50)""/><path d=""M 50 57 L 50 43"" stroke=""black"" transform=""translate(  0  30) rotate(45 50 50)""/><path d=""M 50 57 L 50 43"" stroke=""black"" transform=""translate(-26  15) rotate(-45 50 50)""/><path d=""M 50 57 L 50 43"" stroke=""black"" transform=""translate(-26 -15) rotate(-45 50 50)""/><path d=""M 50 57 L 50 43"" stroke=""black"" transform=""translate(  0 -30) rotate(45 50 50)""/><path d=""M 50 57 L 50 43"" stroke=""black"" transform=""translate( 26 -15) rotate(0 50 50)""/><path d=""M 50 52 L 50 48"" stroke=""black"" stroke-width="".5""/> <path d=""M 52 50 L 48 50"" stroke=""black"" stroke-width="".5""/></svg>","77","","","","","","VDACtraining","red","5","vertical","true","","",""
"","html-keyboard-response","26","172195","0.0-1.0-2.0-2.4","tglomgf2q8","red","null","<p style=""font-size:300%;"">Correct!</p>","null","","","","","","","","","","","","",""
"","html-keyboard-response","27","173884","0.0-1.0-2.0-0.5","tglomgf2q8","red","null","<svg viewBox=""0 0 100 100"" > <path d=""M 50 52 L 50 48"" stroke=""black"" stroke-width="".5""/> <path d=""M 52 50 L 48 50"" stroke=""black"" stroke-width="".5""/>","null","","","","","","","","","","","","",""
"","html-keyboard-response","28","174477","0.0-1.0-2.0-1.5","tglomgf2q8","red","592.1650000382215","<svg viewBox=""0 0 100 100"" ><text font-size=""10%"" text-anchor=""middle""  x=""50"" y=""98"">Press Z for horizontal or M for vertical</text><circle cx=""50"" cy=""50"" r=""10"" fill=""none"" transform=""translate( 26  15)"" stroke=""cyan"" /><circle cx=""50"" cy=""50"" r=""10"" fill=""none"" transform=""translate(  0  30)"" stroke=""magenta"" /><circle cx=""50"" cy=""50"" r=""10"" fill=""none"" transform=""translate(-26  15)"" stroke=""blueviolet"" /><circle cx=""50"" cy=""50"" r=""10"" fill=""none"" transform=""translate(-26 -15)"" stroke=""green"" /><circle cx=""50"" cy=""50"" r=""10"" fill=""none"" transform=""translate(  0 -30)"" stroke=""black"" /><circle cx=""50"" cy=""50"" r=""10"" fill=""none"" transform=""translate( 26 -15)"" stroke=""gold"" /><path d=""M 50 57 L 50 43"" stroke=""black"" transform=""translate( 26  15) rotate(-45 50 50)""/><path d=""M 50 57 L 50 43"" stroke=""black"" transform=""translate(  0  30) rotate(-45 50 50)""/><path d=""M 50 57 L 50 43"" stroke=""black"" transform=""translate(-26  15) rotate(45 50 50)""/><path d=""M 50 57 L 50 43"" stroke=""black"" transform=""translate(-26 -15) rotate(90 50 50)""/><path d=""M 50 57 L 50 43"" stroke=""black"" transform=""translate(  0 -30) rotate(45 50 50)""/><path d=""M 50 57 L 50 43"" stroke=""black"" transform=""translate( 26 -15) rotate(45 50 50)""/><path d=""M 50 52 L 50 48"" stroke=""black"" stroke-width="".5""/> <path d=""M 52 50 L 48 50"" stroke=""black"" stroke-width="".5""/></svg>","90","","","","","","VDACtraining","green","3","horizontal","true","","",""
"","html-keyboard-response","29","176993","0.0-1.0-2.0-2.5","tglomgf2q8","red","null","<p style=""font-size:300%;"">Correct!</p>","null","","","","","","","","","","","","",""
"","html-keyboard-response","30","178697","0.0-1.0-2.0-0.6","tglomgf2q8","red","null","<svg viewBox=""0 0 100 100"" > <path d=""M 50 52 L 50 48"" stroke=""black"" stroke-width="".5""/> <path d=""M 52 50 L 48 50"" stroke=""black"" stroke-width="".5""/>","null","","","","","","","","","","","","",""
"","html-keyboard-response","31","179357","0.0-1.0-2.0-1.6","tglomgf2q8","red","659.1449999250472","<svg viewBox=""0 0 100 100"" ><text font-size=""10%"" text-anchor=""middle""  x=""50"" y=""98"">Press Z for horizontal or M for vertical</text><circle cx=""50"" cy=""50"" r=""10"" fill=""none"" transform=""translate( 26  15)"" stroke=""magenta"" /><circle cx=""50"" cy=""50"" r=""10"" fill=""none"" transform=""translate(  0  30)"" stroke=""blueviolet"" /><circle cx=""50"" cy=""50"" r=""10"" fill=""none"" transform=""translate(-26  15)"" stroke=""gold"" /><circle cx=""50"" cy=""50"" r=""10"" fill=""none"" transform=""translate(-26 -15)"" stroke=""black"" /><circle cx=""50"" cy=""50"" r=""10"" fill=""none"" transform=""translate(  0 -30)"" stroke=""red"" /><circle cx=""50"" cy=""50"" r=""10"" fill=""none"" transform=""translate( 26 -15)"" stroke=""cyan"" /><path d=""M 50 57 L 50 43"" stroke=""black"" transform=""translate( 26  15) rotate(-45 50 50)""/><path d=""M 50 57 L 50 43"" stroke=""black"" transform=""translate(  0  30) rotate(-45 50 50)""/><path d=""M 50 57 L 50 43"" stroke=""black"" transform=""translate(-26  15) rotate(-45 50 50)""/><path d=""M 50 57 L 50 43"" stroke=""black"" transform=""translate(-26 -15) rotate(45 50 50)""/><path d=""M 50 57 L 50 43"" stroke=""black"" transform=""translate(  0 -30) rotate(90 50 50)""/><path d=""M 50 57 L 50 43"" stroke=""black"" transform=""translate( 26 -15) rotate(45 50 50)""/><path d=""M 50 52 L 50 48"" stroke=""black"" stroke-width="".5""/> <path d=""M 52 50 L 48 50"" stroke=""black"" stroke-width="".5""/></svg>","90","","","","","","VDACtraining","red","4","horizontal","true","","",""
"","html-keyboard-response","32","181870","0.0-1.0-2.0-2.6","tglomgf2q8","red","null","<p style=""font-size:300%;"">Correct!</p>","null","","","","","","","","","","","","",""
"","html-keyboard-response","33","183560","0.0-1.0-2.0-0.7","tglomgf2q8","red","null","<svg viewBox=""0 0 100 100"" > <path d=""M 50 52 L 50 48"" stroke=""black"" stroke-width="".5""/> <path d=""M 52 50 L 48 50"" stroke=""black"" stroke-width="".5""/>","null","","","","","","","","","","","","",""
"","html-keyboard-response","34","184077","0.0-1.0-2.0-1.7","tglomgf2q8","red","516.9450000394136","<svg viewBox=""0 0 100 100"" ><text font-size=""10%"" text-anchor=""middle""  x=""50"" y=""98"">Press Z for horizontal or M for vertical</text><circle cx=""50"" cy=""50"" r=""10"" fill=""none"" transform=""translate( 26  15)"" stroke=""cyan"" /><circle cx=""50"" cy=""50"" r=""10"" fill=""none"" transform=""translate(  0  30)"" stroke=""red"" /><circle cx=""50"" cy=""50"" r=""10"" fill=""none"" transform=""translate(-26  15)"" stroke=""black"" /><circle cx=""50"" cy=""50"" r=""10"" fill=""none"" transform=""translate(-26 -15)"" stroke=""magenta"" /><circle cx=""50"" cy=""50"" r=""10"" fill=""none"" transform=""translate(  0 -30)"" stroke=""blueviolet"" /><circle cx=""50"" cy=""50"" r=""10"" fill=""none"" transform=""translate( 26 -15)"" stroke=""gold"" /><path d=""M 50 57 L 50 43"" stroke=""black"" transform=""translate( 26  15) rotate(-45 50 50)""/><path d=""M 50 57 L 50 43"" stroke=""black"" transform=""translate(  0  30) rotate(0 50 50)""/><path d=""M 50 57 L 50 43"" stroke=""black"" transform=""translate(-26  15) rotate(45 50 50)""/><path d=""M 50 57 L 50 43"" stroke=""black"" transform=""translate(-26 -15) rotate(45 50 50)""/><path d=""M 50 57 L 50 43"" stroke=""black"" transform=""translate(  0 -30) rotate(-45 50 50)""/><path d=""M 50 57 L 50 43"" stroke=""black"" transform=""translate( 26 -15) rotate(-45 50 50)""/><path d=""M 50 52 L 50 48"" stroke=""black"" stroke-width="".5""/> <path d=""M 52 50 L 48 50"" stroke=""black"" stroke-width="".5""/></svg>","77","","","","","","VDACtraining","red","1","vertical","true","","",""
"","html-keyboard-response","35","186591","0.0-1.0-2.0-2.7","tglomgf2q8","red","null","<p style=""font-size:300%;"">Correct!</p>","null","","","","","","","","","","","","",""
"","html-keyboard-response","36","188285","0.0-1.0-2.0-0.8","tglomgf2q8","red","null","<svg viewBox=""0 0 100 100"" > <path d=""M 50 52 L 50 48"" stroke=""black"" stroke-width="".5""/> <path d=""M 52 50 L 48 50"" stroke=""black"" stroke-width="".5""/>","null","","","","","","","","","","","","",""
"","html-keyboard-response","37","188981","0.0-1.0-2.0-1.8","tglomgf2q8","red","695.6650000065565","<svg viewBox=""0 0 100 100"" ><text font-size=""10%"" text-anchor=""middle""  x=""50"" y=""98"">Press Z for horizontal or M for vertical</text><circle cx=""50"" cy=""50"" r=""10"" fill=""none"" transform=""translate( 26  15)"" stroke=""gold"" /><circle cx=""50"" cy=""50"" r=""10"" fill=""none"" transform=""translate(  0  30)"" stroke=""black"" /><circle cx=""50"" cy=""50"" r=""10"" fill=""none"" transform=""translate(-26  15)"" stroke=""blueviolet"" /><circle cx=""50"" cy=""50"" r=""10"" fill=""none"" transform=""translate(-26 -15)"" stroke=""magenta"" /><circle cx=""50"" cy=""50"" r=""10"" fill=""none"" transform=""translate(  0 -30)"" stroke=""cyan"" /><circle cx=""50"" cy=""50"" r=""10"" fill=""none"" transform=""translate( 26 -15)"" stroke=""green"" /><path d=""M 50 57 L 50 43"" stroke=""black"" transform=""translate( 26  15) rotate(45 50 50)""/><path d=""M 50 57 L 50 43"" stroke=""black"" transform=""translate(  0  30) rotate(45 50 50)""/><path d=""M 50 57 L 50 43"" stroke=""black"" transform=""translate(-26  15) rotate(45 50 50)""/><path d=""M 50 57 L 50 43"" stroke=""black"" transform=""translate(-26 -15) rotate(45 50 50)""/><path d=""M 50 57 L 50 43"" stroke=""black"" transform=""translate(  0 -30) rotate(-45 50 50)""/><path d=""M 50 57 L 50 43"" stroke=""black"" transform=""translate( 26 -15) rotate(90 50 50)""/><path d=""M 50 52 L 50 48"" stroke=""black"" stroke-width="".5""/> <path d=""M 52 50 L 48 50"" stroke=""black"" stroke-width="".5""/></svg>","77","","","","","","VDACtraining","green","5","horizontal","false","","",""
"","html-keyboard-response","38","191498","0.0-1.0-2.0-2.8","tglomgf2q8","red","null","<p style=""font-size:300%;"">Miss.</p> <p style=""font-size:300%;"">Wrong response.</p>","null","","","","","","","","","","","","",""
"","html-keyboard-response","39","193195","0.0-1.0-2.0-0.9","tglomgf2q8","red","null","<svg viewBox=""0 0 100 100"" > <path d=""M 50 52 L 50 48"" stroke=""black"" stroke-width="".5""/> <path d=""M 52 50 L 48 50"" stroke=""black"" stroke-width="".5""/>","null","","","","","","","","","","","","",""
"","html-keyboard-response","40","193741","0.0-1.0-2.0-1.9","tglomgf2q8","red","545.2250000089407","<svg viewBox=""0 0 100 100"" ><text font-size=""10%"" text-anchor=""middle""  x=""50"" y=""98"">Press Z for horizontal or M for vertical</text><circle cx=""50"" cy=""50"" r=""10"" fill=""none"" transform=""translate( 26  15)"" stroke=""cyan"" /><circle cx=""50"" cy=""50"" r=""10"" fill=""none"" transform=""translate(  0  30)"" stroke=""magenta"" /><circle cx=""50"" cy=""50"" r=""10"" fill=""none"" transform=""translate(-26  15)"" stroke=""red"" /><circle cx=""50"" cy=""50"" r=""10"" fill=""none"" transform=""translate(-26 -15)"" stroke=""black"" /><circle cx=""50"" cy=""50"" r=""10"" fill=""none"" transform=""translate(  0 -30)"" stroke=""blueviolet"" /><circle cx=""50"" cy=""50"" r=""10"" fill=""none"" transform=""translate( 26 -15)"" stroke=""gold"" /><path d=""M 50 57 L 50 43"" stroke=""black"" transform=""translate( 26  15) rotate(45 50 50)""/><path d=""M 50 57 L 50 43"" stroke=""black"" transform=""translate(  0  30) rotate(-45 50 50)""/><path d=""M 50 57 L 50 43"" stroke=""black"" transform=""translate(-26  15) rotate(90 50 50)""/><path d=""M 50 57 L 50 43"" stroke=""black"" transform=""translate(-26 -15) rotate(45 50 50)""/><path d=""M 50 57 L 50 43"" stroke=""black"" transform=""translate(  0 -30) rotate(45 50 50)""/><path d=""M 50 57 L 50 43"" stroke=""black"" transform=""translate( 26 -15) rotate(45 50 50)""/><path d=""M 50 52 L 50 48"" stroke=""black"" stroke-width="".5""/> <path d=""M 52 50 L 48 50"" stroke=""black"" stroke-width="".5""/></svg>","77","","","","","","VDACtraining","red","2","horizontal","false","","",""
"","html-keyboard-response","41","196259","0.0-1.0-2.0-2.9","tglomgf2q8","red","null","<p style=""font-size:300%;"">Miss.</p> <p style=""font-size:300%;"">Wrong response.</p>","null","","","","","","","","","","","","",""
"","call-function","42","197271","0.0-1.0-3.0","tglomgf2q8","red","","","","","","","","","","","","","","","",""
"","html-keyboard-response","43","201325","0.0-1.0-4.0","tglomgf2q8","red","4054.119999986142","<p>You have now finished the training exercise. If you would like to repeat the instructions and training exercise, press R. If you are ready to continue to the task, press C. </p>","67","","","","","","","","","","","","",""
"","html-keyboard-response","44","203332","0.0-2.0-0.0","tglomgf2q8","red","null","<p>Place your fingers on the <b>Z</b> and <b>M</b> keys. The experiment will begin shortly.</p><p>&nbsp</p>","null","","","","","","","","","","","","",""
"","html-keyboard-response","45","204339","0.0-2.0-1.0","tglomgf2q8","red","null","<p>Place your fingers on the <b>Z</b> and <b>M</b> keys. The experiment will begin shortly.</p><p>3</p>","null","","","","","","","","","","","","",""
"","html-keyboard-response","46","205346","0.0-2.0-2.0","tglomgf2q8","red","null","<p>Place your fingers on the <b>Z</b> and <b>M</b> keys. The experiment will begin shortly.</p><p>2</p>","null","","","","","","","","","","","","",""
"","html-keyboard-response","47","206356","0.0-2.0-3.0","tglomgf2q8","red","null","<p>Place your fingers on the <b>Z</b> and <b>M</b> keys. The experiment will begin shortly.</p><p>1</p>","null","","","","","","","","","","","","",""
"","html-keyboard-response","48","207040","0.0-3.0-1.0-0.0","tglomgf2q8","red","null","<svg viewBox=""0 0 100 100"" > <path d=""M 50 52 L 50 48"" stroke=""black"" stroke-width="".5""/> <path d=""M 52 50 L 48 50"" stroke=""black"" stroke-width="".5""/>","null","","","","","","","","","","","","",""
"","html-keyboard-response","49","207462","0.0-3.0-1.0-1.0","tglomgf2q8","red","420.8349999971688","<svg viewBox=""0 0 100 100"" ><circle cx=""50"" cy=""50"" r=""10"" fill=""none"" transform=""translate( 26  15)"" stroke=""cyan"" /><circle cx=""50"" cy=""50"" r=""10"" fill=""none"" transform=""translate(  0  30)"" stroke=""gold"" /><circle cx=""50"" cy=""50"" r=""10"" fill=""none"" transform=""translate(-26  15)"" stroke=""magenta"" /><circle cx=""50"" cy=""50"" r=""10"" fill=""none"" transform=""translate(-26 -15)"" stroke=""green"" /><circle cx=""50"" cy=""50"" r=""10"" fill=""none"" transform=""translate(  0 -30)"" stroke=""blueviolet"" /><circle cx=""50"" cy=""50"" r=""10"" fill=""none"" transform=""translate( 26 -15)"" stroke=""black"" /><path d=""M 50 57 L 50 43"" stroke=""black"" transform=""translate( 26  15) rotate(45 50 50)""/><path d=""M 50 57 L 50 43"" stroke=""black"" transform=""translate(  0  30) rotate(45 50 50)""/><path d=""M 50 57 L 50 43"" stroke=""black"" transform=""translate(-26  15) rotate(-45 50 50)""/><path d=""M 50 57 L 50 43"" stroke=""black"" transform=""translate(-26 -15) rotate(90 50 50)""/><path d=""M 50 57 L 50 43"" stroke=""black"" transform=""translate(  0 -30) rotate(-45 50 50)""/><path d=""M 50 57 L 50 43"" stroke=""black"" transform=""translate( 26 -15) rotate(-45 50 50)""/><path d=""M 50 52 L 50 48"" stroke=""black"" stroke-width="".5""/> <path d=""M 52 50 L 48 50"" stroke=""black"" stroke-width="".5""/></svg>","90","","","","","","VDACtest","green","4th","horizontal","true","low","",""
"","html-keyboard-response","50","209980","0.0-3.0-1.0-2.0","tglomgf2q8","red","null","<p style=""font-size:300%;""> + 2 points.</p><p style=""font-size:300%"">Total: 2 points.</p>","null","","","","","","","","","","","","2",""
"","html-keyboard-response","51","211666","0.0-3.0-1.0-0.1","tglomgf2q8","red","null","<svg viewBox=""0 0 100 100"" > <path d=""M 50 52 L 50 48"" stroke=""black"" stroke-width="".5""/> <path d=""M 52 50 L 48 50"" stroke=""black"" stroke-width="".5""/>","null","","","","","","","","","","","","",""
"","html-keyboard-response","52","212318","0.0-3.0-1.0-1.1","tglomgf2q8","red","651.3500000583008","<svg viewBox=""0 0 100 100"" ><circle cx=""50"" cy=""50"" r=""10"" fill=""none"" transform=""translate( 26  15)"" stroke=""blueviolet"" /><circle cx=""50"" cy=""50"" r=""10"" fill=""none"" transform=""translate(  0  30)"" stroke=""green"" /><circle cx=""50"" cy=""50"" r=""10"" fill=""none"" transform=""translate(-26  15)"" stroke=""black"" /><circle cx=""50"" cy=""50"" r=""10"" fill=""none"" transform=""translate(-26 -15)"" stroke=""gold"" /><circle cx=""50"" cy=""50"" r=""10"" fill=""none"" transform=""translate(  0 -30)"" stroke=""cyan"" /><circle cx=""50"" cy=""50"" r=""10"" fill=""none"" transform=""translate( 26 -15)"" stroke=""magenta"" /><path d=""M 50 57 L 50 43"" stroke=""black"" transform=""translate( 26  15) rotate(45 50 50)""/><path d=""M 50 57 L 50 43"" stroke=""black"" transform=""translate(  0  30) rotate(90 50 50)""/><path d=""M 50 57 L 50 43"" stroke=""black"" transform=""translate(-26  15) rotate(-45 50 50)""/><path d=""M 50 57 L 50 43"" stroke=""black"" transform=""translate(-26 -15) rotate(-45 50 50)""/><path d=""M 50 57 L 50 43"" stroke=""black"" transform=""translate(  0 -30) rotate(45 50 50)""/><path d=""M 50 57 L 50 43"" stroke=""black"" transform=""translate( 26 -15) rotate(45 50 50)""/><path d=""M 50 52 L 50 48"" stroke=""black"" stroke-width="".5""/> <path d=""M 52 50 L 48 50"" stroke=""black"" stroke-width="".5""/></svg>","90","","","","","","VDACtest","green","2nd","horizontal","true","low","",""
"","html-keyboard-response","53","214841","0.0-3.0-1.0-2.1","tglomgf2q8","red","null","<p style=""font-size:300%;""> + 2 points.</p><p style=""font-size:300%"">Total: 4 points.</p>","null","","","","","","","","","","","","4",""
"","html-keyboard-response","54","216529","0.0-3.0-1.0-0.2","tglomgf2q8","red","null","<svg viewBox=""0 0 100 100"" > <path d=""M 50 52 L 50 48"" stroke=""black"" stroke-width="".5""/> <path d=""M 52 50 L 48 50"" stroke=""black"" stroke-width="".5""/>","null","","","","","","","","","","","","",""
"","html-keyboard-response","55","217062","0.0-3.0-1.0-1.2","tglomgf2q8","red","532.2900000028312","<svg viewBox=""0 0 100 100"" ><circle cx=""50"" cy=""50"" r=""10"" fill=""none"" transform=""translate( 26  15)"" stroke=""magenta"" /><circle cx=""50"" cy=""50"" r=""10"" fill=""none"" transform=""translate(  0  30)"" stroke=""cyan"" /><circle cx=""50"" cy=""50"" r=""10"" fill=""none"" transform=""translate(-26  15)"" stroke=""gold"" /><circle cx=""50"" cy=""50"" r=""10"" fill=""none"" transform=""translate(-26 -15)"" stroke=""blueviolet"" /><circle cx=""50"" cy=""50"" r=""10"" fill=""none"" transform=""translate(  0 -30)"" stroke=""black"" /><circle cx=""50"" cy=""50"" r=""10"" fill=""none"" transform=""translate( 26 -15)"" stroke=""red"" /><path d=""M 50 57 L 50 43"" stroke=""black"" transform=""translate( 26  15) rotate(-45 50 50)""/><path d=""M 50 57 L 50 43"" stroke=""black"" transform=""translate(  0  30) rotate(-45 50 50)""/><path d=""M 50 57 L 50 43"" stroke=""black"" transform=""translate(-26  15) rotate(-45 50 50)""/><path d=""M 50 57 L 50 43"" stroke=""black"" transform=""translate(-26 -15) rotate(45 50 50)""/><path d=""M 50 57 L 50 43"" stroke=""black"" transform=""translate(  0 -30) rotate(-45 50 50)""/><path d=""M 50 57 L 50 43"" stroke=""black"" transform=""translate( 26 -15) rotate(90 50 50)""/><path d=""M 50 52 L 50 48"" stroke=""black"" stroke-width="".5""/> <path d=""M 52 50 L 48 50"" stroke=""black"" stroke-width="".5""/></svg>","90","","","","","","VDACtest","red","6th","horizontal","true","high","",""
"","html-keyboard-response","56","219576","0.0-3.0-1.0-2.2","tglomgf2q8","red","null","<p style=""font-size:300%;""> + 10 points.</p><p style=""font-size:300%"">Total: 14 points.</p>","null","","","","","","","","","","","","14",""
"","html-keyboard-response","57","221264","0.0-3.0-1.0-0.3","tglomgf2q8","red","null","<svg viewBox=""0 0 100 100"" > <path d=""M 50 52 L 50 48"" stroke=""black"" stroke-width="".5""/> <path d=""M 52 50 L 48 50"" stroke=""black"" stroke-width="".5""/>","null","","","","","","","","","","","","",""
"","html-keyboard-response","58","221973","0.0-3.0-1.0-1.3","tglomgf2q8","red","708.1550000002608","<svg viewBox=""0 0 100 100"" ><circle cx=""50"" cy=""50"" r=""10"" fill=""none"" transform=""translate( 26  15)"" stroke=""green"" /><circle cx=""50"" cy=""50"" r=""10"" fill=""none"" transform=""translate(  0  30)"" stroke=""black"" /><circle cx=""50"" cy=""50"" r=""10"" fill=""none"" transform=""translate(-26  15)"" stroke=""blueviolet"" /><circle cx=""50"" cy=""50"" r=""10"" fill=""none"" transform=""translate(-26 -15)"" stroke=""gold"" /><circle cx=""50"" cy=""50"" r=""10"" fill=""none"" transform=""translate(  0 -30)"" stroke=""magenta"" /><circle cx=""50"" cy=""50"" r=""10"" fill=""none"" transform=""translate( 26 -15)"" stroke=""cyan"" /><path d=""M 50 57 L 50 43"" stroke=""black"" transform=""translate( 26  15) rotate(90 50 50)""/><path d=""M 50 57 L 50 43"" stroke=""black"" transform=""translate(  0  30) rotate(-45 50 50)""/><path d=""M 50 57 L 50 43"" stroke=""black"" transform=""translate(-26  15) rotate(-45 50 50)""/><path d=""M 50 57 L 50 43"" stroke=""black"" transform=""translate(-26 -15) rotate(-45 50 50)""/><path d=""M 50 57 L 50 43"" stroke=""black"" transform=""translate(  0 -30) rotate(-45 50 50)""/><path d=""M 50 57 L 50 43"" stroke=""black"" transform=""translate( 26 -15) rotate(45 50 50)""/><path d=""M 50 52 L 50 48"" stroke=""black"" stroke-width="".5""/> <path d=""M 52 50 L 48 50"" stroke=""black"" stroke-width="".5""/></svg>","90","","","","","","VDACtest","green","1st","horizontal","true","low","",""
"","html-keyboard-response","59","224493","0.0-3.0-1.0-2.3","tglomgf2q8","red","null","<p style=""font-size:300%;""> + 2 points.</p><p style=""font-size:300%"">Total: 16 points.</p>","null","","","","","","","","","","","","16",""
"","html-keyboard-response","60","226184","0.0-3.0-1.0-0.4","tglomgf2q8","red","null","<svg viewBox=""0 0 100 100"" > <path d=""M 50 52 L 50 48"" stroke=""black"" stroke-width="".5""/> <path d=""M 52 50 L 48 50"" stroke=""black"" stroke-width="".5""/>","null","","","","","","","","","","","","",""
"","html-keyboard-response","61","226790","0.0-3.0-1.0-1.4","tglomgf2q8","red","604.204999981448","<svg viewBox=""0 0 100 100"" ><circle cx=""50"" cy=""50"" r=""10"" fill=""none"" transform=""translate( 26  15)"" stroke=""black"" /><circle cx=""50"" cy=""50"" r=""10"" fill=""none"" transform=""translate(  0  30)"" stroke=""green"" /><circle cx=""50"" cy=""50"" r=""10"" fill=""none"" transform=""translate(-26  15)"" stroke=""cyan"" /><circle cx=""50"" cy=""50"" r=""10"" fill=""none"" transform=""translate(-26 -15)"" stroke=""gold"" /><circle cx=""50"" cy=""50"" r=""10"" fill=""none"" transform=""translate(  0 -30)"" stroke=""magenta"" /><circle cx=""50"" cy=""50"" r=""10"" fill=""none"" transform=""translate( 26 -15)"" stroke=""blueviolet"" /><path d=""M 50 57 L 50 43"" stroke=""black"" transform=""translate( 26  15) rotate(45 50 50)""/><path d=""M 50 57 L 50 43"" stroke=""black"" transform=""translate(  0  30) rotate(0 50 50)""/><path d=""M 50 57 L 50 43"" stroke=""black"" transform=""translate(-26  15) rotate(45 50 50)""/><path d=""M 50 57 L 50 43"" stroke=""black"" transform=""translate(-26 -15) rotate(45 50 50)""/><path d=""M 50 57 L 50 43"" stroke=""black"" transform=""translate(  0 -30) rotate(-45 50 50)""/><path d=""M 50 57 L 50 43"" stroke=""black"" transform=""translate( 26 -15) rotate(45 50 50)""/><path d=""M 50 52 L 50 48"" stroke=""black"" stroke-width="".5""/> <path d=""M 52 50 L 48 50"" stroke=""black"" stroke-width="".5""/></svg>","77","","","","","","VDACtest","green","2nd","vertical","true","low","",""
"","html-keyboard-response","62","229303","0.0-3.0-1.0-2.4","tglomgf2q8","red","null","<p style=""font-size:300%;""> + 2 points.</p><p style=""font-size:300%"">Total: 18 points.</p>","null","","","","","","","","","","","","18",""
"","html-keyboard-response","63","230995","0.0-3.0-1.0-0.5","tglomgf2q8","red","null","<svg viewBox=""0 0 100 100"" > <path d=""M 50 52 L 50 48"" stroke=""black"" stroke-width="".5""/> <path d=""M 52 50 L 48 50"" stroke=""black"" stroke-width="".5""/>","null","","","","","","","","","","","","",""
"","html-keyboard-response","64","231637","0.0-3.0-1.0-1.5","tglomgf2q8","red","640.7400000607595","<svg viewBox=""0 0 100 100"" ><circle cx=""50"" cy=""50"" r=""10"" fill=""none"" transform=""translate( 26  15)"" stroke=""cyan"" /><circle cx=""50"" cy=""50"" r=""10"" fill=""none"" transform=""translate(  0  30)"" stroke=""red"" /><circle cx=""50"" cy=""50"" r=""10"" fill=""none"" transform=""translate(-26  15)"" stroke=""magenta"" /><circle cx=""50"" cy=""50"" r=""10"" fill=""none"" transform=""translate(-26 -15)"" stroke=""blueviolet"" /><circle cx=""50"" cy=""50"" r=""10"" fill=""none"" transform=""translate(  0 -30)"" stroke=""gold"" /><circle cx=""50"" cy=""50"" r=""10"" fill=""none"" transform=""translate( 26 -15)"" stroke=""black"" /><path d=""M 50 57 L 50 43"" stroke=""black"" transform=""translate( 26  15) rotate(45 50 50)""/><path d=""M 50 57 L 50 43"" stroke=""black"" transform=""translate(  0  30) rotate(90 50 50)""/><path d=""M 50 57 L 50 43"" stroke=""black"" transform=""translate(-26  15) rotate(45 50 50)""/><path d=""M 50 57 L 50 43"" stroke=""black"" transform=""translate(-26 -15) rotate(-45 50 50)""/><path d=""M 50 57 L 50 43"" stroke=""black"" transform=""translate(  0 -30) rotate(45 50 50)""/><path d=""M 50 57 L 50 43"" stroke=""black"" transform=""translate( 26 -15) rotate(-45 50 50)""/><path d=""M 50 52 L 50 48"" stroke=""black"" stroke-width="".5""/> <path d=""M 52 50 L 48 50"" stroke=""black"" stroke-width="".5""/></svg>","77","","","","","","VDACtest","red","2nd","horizontal","false","high","",""
"","html-keyboard-response","65","234163","0.0-3.0-1.0-2.5","tglomgf2q8","red","null","<p style=""font-size:300%;"">Miss.</p><p style=""font-size:300%"">Total: 18 points.</p>","null","","","","","","","","","","","","18",""
"","html-keyboard-response","66","235855","0.0-3.0-1.0-0.6","tglomgf2q8","red","null","<svg viewBox=""0 0 100 100"" > <path d=""M 50 52 L 50 48"" stroke=""black"" stroke-width="".5""/> <path d=""M 52 50 L 48 50"" stroke=""black"" stroke-width="".5""/>","null","","","","","","","","","","","","",""
"","html-keyboard-response","67","236381","0.0-3.0-1.0-1.6","tglomgf2q8","red","525.9250000817701","<svg viewBox=""0 0 100 100"" ><circle cx=""50"" cy=""50"" r=""10"" fill=""none"" transform=""translate( 26  15)"" stroke=""red"" /><circle cx=""50"" cy=""50"" r=""10"" fill=""none"" transform=""translate(  0  30)"" stroke=""blueviolet"" /><circle cx=""50"" cy=""50"" r=""10"" fill=""none"" transform=""translate(-26  15)"" stroke=""magenta"" /><circle cx=""50"" cy=""50"" r=""10"" fill=""none"" transform=""translate(-26 -15)"" stroke=""gold"" /><circle cx=""50"" cy=""50"" r=""10"" fill=""none"" transform=""translate(  0 -30)"" stroke=""black"" /><circle cx=""50"" cy=""50"" r=""10"" fill=""none"" transform=""translate( 26 -15)"" stroke=""cyan"" /><path d=""M 50 57 L 50 43"" stroke=""black"" transform=""translate( 26  15) rotate(90 50 50)""/><path d=""M 50 57 L 50 43"" stroke=""black"" transform=""translate(  0  30) rotate(45 50 50)""/><path d=""M 50 57 L 50 43"" stroke=""black"" transform=""translate(-26  15) rotate(-45 50 50)""/><path d=""M 50 57 L 50 43"" stroke=""black"" transform=""translate(-26 -15) rotate(45 50 50)""/><path d=""M 50 57 L 50 43"" stroke=""black"" transform=""translate(  0 -30) rotate(-45 50 50)""/><path d=""M 50 57 L 50 43"" stroke=""black"" transform=""translate( 26 -15) rotate(-45 50 50)""/><path d=""M 50 52 L 50 48"" stroke=""black"" stroke-width="".5""/> <path d=""M 52 50 L 48 50"" stroke=""black"" stroke-width="".5""/></svg>","90","","","","","","VDACtest","red","1st","horizontal","true","high","",""
"","html-keyboard-response","68","238898","0.0-3.0-1.0-2.6","tglomgf2q8","red","null","<p style=""font-size:300%;""> + 2 points.</p><p style=""font-size:300%"">Total: 20 points.</p>","null","","","","","","","","","","","","20",""
"","html-keyboard-response","69","240593","0.0-3.0-1.0-0.7","tglomgf2q8","red","null","<svg viewBox=""0 0 100 100"" > <path d=""M 50 52 L 50 48"" stroke=""black"" stroke-width="".5""/> <path d=""M 52 50 L 48 50"" stroke=""black"" stroke-width="".5""/>","null","","","","","","","","","","","","",""
"","html-keyboard-response","70","241342","0.0-3.0-1.0-1.7","tglomgf2q8","red","748.2450000243261","<svg viewBox=""0 0 100 100"" ><circle cx=""50"" cy=""50"" r=""10"" fill=""none"" transform=""translate( 26  15)"" stroke=""black"" /><circle cx=""50"" cy=""50"" r=""10"" fill=""none"" transform=""translate(  0  30)"" stroke=""magenta"" /><circle cx=""50"" cy=""50"" r=""10"" fill=""none"" transform=""translate(-26  15)"" stroke=""blueviolet"" /><circle cx=""50"" cy=""50"" r=""10"" fill=""none"" transform=""translate(-26 -15)"" stroke=""gold"" /><circle cx=""50"" cy=""50"" r=""10"" fill=""none"" transform=""translate(  0 -30)"" stroke=""red"" /><circle cx=""50"" cy=""50"" r=""10"" fill=""none"" transform=""translate( 26 -15)"" stroke=""cyan"" /><path d=""M 50 57 L 50 43"" stroke=""black"" transform=""translate( 26  15) rotate(-45 50 50)""/><path d=""M 50 57 L 50 43"" stroke=""black"" transform=""translate(  0  30) rotate(-45 50 50)""/><path d=""M 50 57 L 50 43"" stroke=""black"" transform=""translate(-26  15) rotate(45 50 50)""/><path d=""M 50 57 L 50 43"" stroke=""black"" transform=""translate(-26 -15) rotate(45 50 50)""/><path d=""M 50 57 L 50 43"" stroke=""black"" transform=""translate(  0 -30) rotate(90 50 50)""/><path d=""M 50 57 L 50 43"" stroke=""black"" transform=""translate( 26 -15) rotate(-45 50 50)""/><path d=""M 50 52 L 50 48"" stroke=""black"" stroke-width="".5""/> <path d=""M 52 50 L 48 50"" stroke=""black"" stroke-width="".5""/></svg>","90","","","","","","VDACtest","red","5th","horizontal","true","high","",""
"","html-keyboard-response","71","243854","0.0-3.0-1.0-2.7","tglomgf2q8","red","null","<p style=""font-size:300%;""> + 10 points.</p><p style=""font-size:300%"">Total: 30 points.</p>","null","","","","","","","","","","","","30",""
"","html-keyboard-response","72","245543","0.0-3.0-1.0-0.8","tglomgf2q8","red","null","<svg viewBox=""0 0 100 100"" > <path d=""M 50 52 L 50 48"" stroke=""black"" stroke-width="".5""/> <path d=""M 52 50 L 48 50"" stroke=""black"" stroke-width="".5""/>","null","","","","","","","","","","","","",""
"","html-keyboard-response","73","246133","0.0-3.0-1.0-1.8","tglomgf2q8","red","589.1100000590086","<svg viewBox=""0 0 100 100"" ><circle cx=""50"" cy=""50"" r=""10"" fill=""none"" transform=""translate( 26  15)"" stroke=""black"" /><circle cx=""50"" cy=""50"" r=""10"" fill=""none"" transform=""translate(  0  30)"" stroke=""gold"" /><circle cx=""50"" cy=""50"" r=""10"" fill=""none"" transform=""translate(-26  15)"" stroke=""green"" /><circle cx=""50"" cy=""50"" r=""10"" fill=""none"" transform=""translate(-26 -15)"" stroke=""blueviolet"" /><circle cx=""50"" cy=""50"" r=""10"" fill=""none"" transform=""translate(  0 -30)"" stroke=""cyan"" /><circle cx=""50"" cy=""50"" r=""10"" fill=""none"" transform=""translate( 26 -15)"" stroke=""magenta"" /><path d=""M 50 57 L 50 43"" stroke=""black"" transform=""translate( 26  15) rotate(-45 50 50)""/><path d=""M 50 57 L 50 43"" stroke=""black"" transform=""translate(  0  30) rotate(-45 50 50)""/><path d=""M 50 57 L 50 43"" stroke=""black"" transform=""translate(-26  15) rotate(90 50 50)""/><path d=""M 50 57 L 50 43"" stroke=""black"" transform=""translate(-26 -15) rotate(45 50 50)""/><path d=""M 50 57 L 50 43"" stroke=""black"" transform=""translate(  0 -30) rotate(45 50 50)""/><path d=""M 50 57 L 50 43"" stroke=""black"" transform=""translate( 26 -15) rotate(45 50 50)""/><path d=""M 50 52 L 50 48"" stroke=""black"" stroke-width="".5""/> <path d=""M 52 50 L 48 50"" stroke=""black"" stroke-width="".5""/></svg>","90","","","","","","VDACtest","green","3rd","horizontal","true","low","",""
"","html-keyboard-response","74","248650","0.0-3.0-1.0-2.8","tglomgf2q8","red","null","<p style=""font-size:300%;""> + 2 points.</p><p style=""font-size:300%"">Total: 32 points.</p>","null","","","","","","","","","","","","32",""
"","html-keyboard-response","75","250341","0.0-3.0-1.0-0.9","tglomgf2q8","red","null","<svg viewBox=""0 0 100 100"" > <path d=""M 50 52 L 50 48"" stroke=""black"" stroke-width="".5""/> <path d=""M 52 50 L 48 50"" stroke=""black"" stroke-width="".5""/>","null","","","","","","","","","","","","",""
"","html-keyboard-response","76","251133","0.0-3.0-1.0-1.9","tglomgf2q8","red","791.3799999514595","<svg viewBox=""0 0 100 100"" ><circle cx=""50"" cy=""50"" r=""10"" fill=""none"" transform=""translate( 26  15)"" stroke=""black"" /><circle cx=""50"" cy=""50"" r=""10"" fill=""none"" transform=""translate(  0  30)"" stroke=""magenta"" /><circle cx=""50"" cy=""50"" r=""10"" fill=""none"" transform=""translate(-26  15)"" stroke=""gold"" /><circle cx=""50"" cy=""50"" r=""10"" fill=""none"" transform=""translate(-26 -15)"" stroke=""blueviolet"" /><circle cx=""50"" cy=""50"" r=""10"" fill=""none"" transform=""translate(  0 -30)"" stroke=""red"" /><circle cx=""50"" cy=""50"" r=""10"" fill=""none"" transform=""translate( 26 -15)"" stroke=""cyan"" /><path d=""M 50 57 L 50 43"" stroke=""black"" transform=""translate( 26  15) rotate(-45 50 50)""/><path d=""M 50 57 L 50 43"" stroke=""black"" transform=""translate(  0  30) rotate(-45 50 50)""/><path d=""M 50 57 L 50 43"" stroke=""black"" transform=""translate(-26  15) rotate(-45 50 50)""/><path d=""M 50 57 L 50 43"" stroke=""black"" transform=""translate(-26 -15) rotate(-45 50 50)""/><path d=""M 50 57 L 50 43"" stroke=""black"" transform=""translate(  0 -30) rotate(90 50 50)""/><path d=""M 50 57 L 50 43"" stroke=""black"" transform=""translate( 26 -15) rotate(45 50 50)""/><path d=""M 50 52 L 50 48"" stroke=""black"" stroke-width="".5""/> <path d=""M 52 50 L 48 50"" stroke=""black"" stroke-width="".5""/></svg>","90","","","","","","VDACtest","red","5th","horizontal","true","high","",""
"","html-keyboard-response","77","253645","0.0-3.0-1.0-2.9","tglomgf2q8","red","null","<p style=""font-size:300%;""> + 10 points.</p><p style=""font-size:300%"">Total: 42 points.</p>","null","","","","","","","","","","","","42",""
"","html-keyboard-response","78","255339","0.0-3.0-1.0-0.10","tglomgf2q8","red","null","<svg viewBox=""0 0 100 100"" > <path d=""M 50 52 L 50 48"" stroke=""black"" stroke-width="".5""/> <path d=""M 52 50 L 48 50"" stroke=""black"" stroke-width="".5""/>","null","","","","","","","","","","","","",""
"","html-keyboard-response","79","256030","0.0-3.0-1.0-1.10","tglomgf2q8","red","689.7599999792874","<svg viewBox=""0 0 100 100"" ><circle cx=""50"" cy=""50"" r=""10"" fill=""none"" transform=""translate( 26  15)"" stroke=""gold"" /><circle cx=""50"" cy=""50"" r=""10"" fill=""none"" transform=""translate(  0  30)"" stroke=""blueviolet"" /><circle cx=""50"" cy=""50"" r=""10"" fill=""none"" transform=""translate(-26  15)"" stroke=""cyan"" /><circle cx=""50"" cy=""50"" r=""10"" fill=""none"" transform=""translate(-26 -15)"" stroke=""magenta"" /><circle cx=""50"" cy=""50"" r=""10"" fill=""none"" transform=""translate(  0 -30)"" stroke=""black"" /><circle cx=""50"" cy=""50"" r=""10"" fill=""none"" transform=""translate( 26 -15)"" stroke=""red"" /><path d=""M 50 57 L 50 43"" stroke=""black"" transform=""translate( 26  15) rotate(45 50 50)""/><path d=""M 50 57 L 50 43"" stroke=""black"" transform=""translate(  0  30) rotate(-45 50 50)""/><path d=""M 50 57 L 50 43"" stroke=""black"" transform=""translate(-26  15) rotate(-45 50 50)""/><path d=""M 50 57 L 50 43"" stroke=""black"" transform=""translate(-26 -15) rotate(45 50 50)""/><path d=""M 50 57 L 50 43"" stroke=""black"" transform=""translate(  0 -30) rotate(45 50 50)""/><path d=""M 50 57 L 50 43"" stroke=""black"" transform=""translate( 26 -15) rotate(0 50 50)""/><path d=""M 50 52 L 50 48"" stroke=""black"" stroke-width="".5""/> <path d=""M 52 50 L 48 50"" stroke=""black"" stroke-width="".5""/></svg>","77","","","","","","VDACtest","red","6th","vertical","true","high","",""
"","html-keyboard-response","80","258543","0.0-3.0-1.0-2.10","tglomgf2q8","red","null","<p style=""font-size:300%;""> + 10 points.</p><p style=""font-size:300%"">Total: 52 points.</p>","null","","","","","","","","","","","","52",""
"","html-keyboard-response","81","260250","0.0-3.0-1.0-0.11","tglomgf2q8","red","null","<svg viewBox=""0 0 100 100"" > <path d=""M 50 52 L 50 48"" stroke=""black"" stroke-width="".5""/> <path d=""M 52 50 L 48 50"" stroke=""black"" stroke-width="".5""/>","null","","","","","","","","","","","","",""
"","html-keyboard-response","82","261229","0.0-3.0-1.0-1.11","tglomgf2q8","red","978.1349999830127","<svg viewBox=""0 0 100 100"" ><circle cx=""50"" cy=""50"" r=""10"" fill=""none"" transform=""translate( 26  15)"" stroke=""cyan"" /><circle cx=""50"" cy=""50"" r=""10"" fill=""none"" transform=""translate(  0  30)"" stroke=""blueviolet"" /><circle cx=""50"" cy=""50"" r=""10"" fill=""none"" transform=""translate(-26  15)"" stroke=""magenta"" /><circle cx=""50"" cy=""50"" r=""10"" fill=""none"" transform=""translate(-26 -15)"" stroke=""gold"" /><circle cx=""50"" cy=""50"" r=""10"" fill=""none"" transform=""translate(  0 -30)"" stroke=""green"" /><circle cx=""50"" cy=""50"" r=""10"" fill=""none"" transform=""translate( 26 -15)"" stroke=""black"" /><path d=""M 50 57 L 50 43"" stroke=""black"" transform=""translate( 26  15) rotate(-45 50 50)""/><path d=""M 50 57 L 50 43"" stroke=""black"" transform=""translate(  0  30) rotate(-45 50 50)""/><path d=""M 50 57 L 50 43"" stroke=""black"" transform=""translate(-26  15) rotate(45 50 50)""/><path d=""M 50 57 L 50 43"" stroke=""black"" transform=""translate(-26 -15) rotate(-45 50 50)""/><path d=""M 50 57 L 50 43"" stroke=""black"" transform=""translate(  0 -30) rotate(0 50 50)""/><path d=""M 50 57 L 50 43"" stroke=""black"" transform=""translate( 26 -15) rotate(-45 50 50)""/><path d=""M 50 52 L 50 48"" stroke=""black"" stroke-width="".5""/> <path d=""M 52 50 L 48 50"" stroke=""black"" stroke-width="".5""/></svg>","77","","","","","","VDACtest","green","5th","vertical","true","low","",""
"","html-keyboard-response","83","263742","0.0-3.0-1.0-2.11","tglomgf2q8","red","null","<p style=""font-size:300%;""> + 2 points.</p><p style=""font-size:300%"">Total: 54 points.</p>","null","","","","","","","","","","","","54",""
"","html-keyboard-response","84","265434","0.0-3.0-1.0-0.12","tglomgf2q8","red","null","<svg viewBox=""0 0 100 100"" > <path d=""M 50 52 L 50 48"" stroke=""black"" stroke-width="".5""/> <path d=""M 52 50 L 48 50"" stroke=""black"" stroke-width="".5""/>","null","","","","","","","","","","","","",""
"","html-keyboard-response","85","266245","0.0-3.0-1.0-1.12","tglomgf2q8","red","810.8750000828877","<svg viewBox=""0 0 100 100"" ><circle cx=""50"" cy=""50"" r=""10"" fill=""none"" transform=""translate( 26  15)"" stroke=""green"" /><circle cx=""50"" cy=""50"" r=""10"" fill=""none"" transform=""translate(  0  30)"" stroke=""black"" /><circle cx=""50"" cy=""50"" r=""10"" fill=""none"" transform=""translate(-26  15)"" stroke=""blueviolet"" /><circle cx=""50"" cy=""50"" r=""10"" fill=""none"" transform=""translate(-26 -15)"" stroke=""magenta"" /><circle cx=""50"" cy=""50"" r=""10"" fill=""none"" transform=""translate(  0 -30)"" stroke=""cyan"" /><circle cx=""50"" cy=""50"" r=""10"" fill=""none"" transform=""translate( 26 -15)"" stroke=""gold"" /><path d=""M 50 57 L 50 43"" stroke=""black"" transform=""translate( 26  15) rotate(0 50 50)""/><path d=""M 50 57 L 50 43"" stroke=""black"" transform=""translate(  0  30) rotate(45 50 50)""/><path d=""M 50 57 L 50 43"" stroke=""black"" transform=""translate(-26  15) rotate(45 50 50)""/><path d=""M 50 57 L 50 43"" stroke=""black"" transform=""translate(-26 -15) rotate(-45 50 50)""/><path d=""M 50 57 L 50 43"" stroke=""black"" transform=""translate(  0 -30) rotate(45 50 50)""/><path d=""M 50 57 L 50 43"" stroke=""black"" transform=""translate( 26 -15) rotate(45 50 50)""/><path d=""M 50 52 L 50 48"" stroke=""black"" stroke-width="".5""/> <path d=""M 52 50 L 48 50"" stroke=""black"" stroke-width="".5""/></svg>","77","","","","","","VDACtest","green","1st","vertical","true","low","",""
"","html-keyboard-response","86","268757","0.0-3.0-1.0-2.12","tglomgf2q8","red","null","<p style=""font-size:300%;""> + 2 points.</p><p style=""font-size:300%"">Total: 56 points.</p>","null","","","","","","","","","","","","56",""
"","html-keyboard-response","87","270447","0.0-3.0-1.0-0.13","tglomgf2q8","red","null","<svg viewBox=""0 0 100 100"" > <path d=""M 50 52 L 50 48"" stroke=""black"" stroke-width="".5""/> <path d=""M 52 50 L 48 50"" stroke=""black"" stroke-width="".5""/>","null","","","","","","","","","","","","",""
"","html-keyboard-response","88","271062","0.0-3.0-1.0-1.13","tglomgf2q8","red","613.7000001035631","<svg viewBox=""0 0 100 100"" ><circle cx=""50"" cy=""50"" r=""10"" fill=""none"" transform=""translate( 26  15)"" stroke=""magenta"" /><circle cx=""50"" cy=""50"" r=""10"" fill=""none"" transform=""translate(  0  30)"" stroke=""blueviolet"" /><circle cx=""50"" cy=""50"" r=""10"" fill=""none"" transform=""translate(-26  15)"" stroke=""green"" /><circle cx=""50"" cy=""50"" r=""10"" fill=""none"" transform=""translate(-26 -15)"" stroke=""cyan"" /><circle cx=""50"" cy=""50"" r=""10"" fill=""none"" transform=""translate(  0 -30)"" stroke=""black"" /><circle cx=""50"" cy=""50"" r=""10"" fill=""none"" transform=""translate( 26 -15)"" stroke=""gold"" /><path d=""M 50 57 L 50 43"" stroke=""black"" transform=""translate( 26  15) rotate(45 50 50)""/><path d=""M 50 57 L 50 43"" stroke=""black"" transform=""translate(  0  30) rotate(-45 50 50)""/><path d=""M 50 57 L 50 43"" stroke=""black"" transform=""translate(-26  15) rotate(0 50 50)""/><path d=""M 50 57 L 50 43"" stroke=""black"" transform=""translate(-26 -15) rotate(45 50 50)""/><path d=""M 50 57 L 50 43"" stroke=""black"" transform=""translate(  0 -30) rotate(45 50 50)""/><path d=""M 50 57 L 50 43"" stroke=""black"" transform=""translate( 26 -15) rotate(-45 50 50)""/><path d=""M 50 52 L 50 48"" stroke=""black"" stroke-width="".5""/> <path d=""M 52 50 L 48 50"" stroke=""black"" stroke-width="".5""/></svg>","77","","","","","","VDACtest","green","3rd","vertical","true","low","",""
"","html-keyboard-response","89","273568","0.0-3.0-1.0-2.13","tglomgf2q8","red","null","<p style=""font-size:300%;""> + 2 points.</p><p style=""font-size:300%"">Total: 58 points.</p>","null","","","","","","","","","","","","58",""
"","html-keyboard-response","90","275258","0.0-3.0-1.0-0.14","tglomgf2q8","red","null","<svg viewBox=""0 0 100 100"" > <path d=""M 50 52 L 50 48"" stroke=""black"" stroke-width="".5""/> <path d=""M 52 50 L 48 50"" stroke=""black"" stroke-width="".5""/>","null","","","","","","","","","","","","",""
"","html-keyboard-response","91","275893","0.0-3.0-1.0-1.14","tglomgf2q8","red","634.2599999625236","<svg viewBox=""0 0 100 100"" ><circle cx=""50"" cy=""50"" r=""10"" fill=""none"" transform=""translate( 26  15)"" stroke=""cyan"" /><circle cx=""50"" cy=""50"" r=""10"" fill=""none"" transform=""translate(  0  30)"" stroke=""magenta"" /><circle cx=""50"" cy=""50"" r=""10"" fill=""none"" transform=""translate(-26  15)"" stroke=""blueviolet"" /><circle cx=""50"" cy=""50"" r=""10"" fill=""none"" transform=""translate(-26 -15)"" stroke=""green"" /><circle cx=""50"" cy=""50"" r=""10"" fill=""none"" transform=""translate(  0 -30)"" stroke=""black"" /><circle cx=""50"" cy=""50"" r=""10"" fill=""none"" transform=""translate( 26 -15)"" stroke=""gold"" /><path d=""M 50 57 L 50 43"" stroke=""black"" transform=""translate( 26  15) rotate(-45 50 50)""/><path d=""M 50 57 L 50 43"" stroke=""black"" transform=""translate(  0  30) rotate(-45 50 50)""/><path d=""M 50 57 L 50 43"" stroke=""black"" transform=""translate(-26  15) rotate(-45 50 50)""/><path d=""M 50 57 L 50 43"" stroke=""black"" transform=""translate(-26 -15) rotate(90 50 50)""/><path d=""M 50 57 L 50 43"" stroke=""black"" transform=""translate(  0 -30) rotate(45 50 50)""/><path d=""M 50 57 L 50 43"" stroke=""black"" transform=""translate( 26 -15) rotate(45 50 50)""/><path d=""M 50 52 L 50 48"" stroke=""black"" stroke-width="".5""/> <path d=""M 52 50 L 48 50"" stroke=""black"" stroke-width="".5""/></svg>","90","","","","","","VDACtest","green","4th","horizontal","true","low","",""
"","html-keyboard-response","92","278411","0.0-3.0-1.0-2.14","tglomgf2q8","red","null","<p style=""font-size:300%;""> + 2 points.</p><p style=""font-size:300%"">Total: 60 points.</p>","null","","","","","","","","","","","","60",""
"","html-keyboard-response","93","280101","0.0-3.0-1.0-0.15","tglomgf2q8","red","null","<svg viewBox=""0 0 100 100"" > <path d=""M 50 52 L 50 48"" stroke=""black"" stroke-width="".5""/> <path d=""M 52 50 L 48 50"" stroke=""black"" stroke-width="".5""/>","null","","","","","","","","","","","","",""
"","html-keyboard-response","94","280901","0.0-3.0-1.0-1.15","tglomgf2q8","red","799.654999980703","<svg viewBox=""0 0 100 100"" ><circle cx=""50"" cy=""50"" r=""10"" fill=""none"" transform=""translate( 26  15)"" stroke=""black"" /><circle cx=""50"" cy=""50"" r=""10"" fill=""none"" transform=""translate(  0  30)"" stroke=""gold"" /><circle cx=""50"" cy=""50"" r=""10"" fill=""none"" transform=""translate(-26  15)"" stroke=""blueviolet"" /><circle cx=""50"" cy=""50"" r=""10"" fill=""none"" transform=""translate(-26 -15)"" stroke=""magenta"" /><circle cx=""50"" cy=""50"" r=""10"" fill=""none"" transform=""translate(  0 -30)"" stroke=""cyan"" /><circle cx=""50"" cy=""50"" r=""10"" fill=""none"" transform=""translate( 26 -15)"" stroke=""green"" /><path d=""M 50 57 L 50 43"" stroke=""black"" transform=""translate( 26  15) rotate(45 50 50)""/><path d=""M 50 57 L 50 43"" stroke=""black"" transform=""translate(  0  30) rotate(45 50 50)""/><path d=""M 50 57 L 50 43"" stroke=""black"" transform=""translate(-26  15) rotate(45 50 50)""/><path d=""M 50 57 L 50 43"" stroke=""black"" transform=""translate(-26 -15) rotate(-45 50 50)""/><path d=""M 50 57 L 50 43"" stroke=""black"" transform=""translate(  0 -30) rotate(45 50 50)""/><path d=""M 50 57 L 50 43"" stroke=""black"" transform=""translate( 26 -15) rotate(90 50 50)""/><path d=""M 50 52 L 50 48"" stroke=""black"" stroke-width="".5""/> <path d=""M 52 50 L 48 50"" stroke=""black"" stroke-width="".5""/></svg>","90","","","","","","VDACtest","green","6th","horizontal","true","low","",""
"","html-keyboard-response","95","283411","0.0-3.0-1.0-2.15","tglomgf2q8","red","null","<p style=""font-size:300%;""> + 2 points.</p><p style=""font-size:300%"">Total: 62 points.</p>","null","","","","","","","","","","","","62",""
"","html-keyboard-response","96","285098","0.0-3.0-1.0-0.16","tglomgf2q8","red","null","<svg viewBox=""0 0 100 100"" > <path d=""M 50 52 L 50 48"" stroke=""black"" stroke-width="".5""/> <path d=""M 52 50 L 48 50"" stroke=""black"" stroke-width="".5""/>","null","","","","","","","","","","","","",""
"","html-keyboard-response","97","285829","0.0-3.0-1.0-1.16","tglomgf2q8","red","730.0499998964369","<svg viewBox=""0 0 100 100"" ><circle cx=""50"" cy=""50"" r=""10"" fill=""none"" transform=""translate( 26  15)"" stroke=""red"" /><circle cx=""50"" cy=""50"" r=""10"" fill=""none"" transform=""translate(  0  30)"" stroke=""black"" /><circle cx=""50"" cy=""50"" r=""10"" fill=""none"" transform=""translate(-26  15)"" stroke=""cyan"" /><circle cx=""50"" cy=""50"" r=""10"" fill=""none"" transform=""translate(-26 -15)"" stroke=""magenta"" /><circle cx=""50"" cy=""50"" r=""10"" fill=""none"" transform=""translate(  0 -30)"" stroke=""blueviolet"" /><circle cx=""50"" cy=""50"" r=""10"" fill=""none"" transform=""translate( 26 -15)"" stroke=""gold"" /><path d=""M 50 57 L 50 43"" stroke=""black"" transform=""translate( 26  15) rotate(0 50 50)""/><path d=""M 50 57 L 50 43"" stroke=""black"" transform=""translate(  0  30) rotate(-45 50 50)""/><path d=""M 50 57 L 50 43"" stroke=""black"" transform=""translate(-26  15) rotate(-45 50 50)""/><path d=""M 50 57 L 50 43"" stroke=""black"" transform=""translate(-26 -15) rotate(-45 50 50)""/><path d=""M 50 57 L 50 43"" stroke=""black"" transform=""translate(  0 -30) rotate(45 50 50)""/><path d=""M 50 57 L 50 43"" stroke=""black"" transform=""translate( 26 -15) rotate(-45 50 50)""/><path d=""M 50 52 L 50 48"" stroke=""black"" stroke-width="".5""/> <path d=""M 52 50 L 48 50"" stroke=""black"" stroke-width="".5""/></svg>","77","","","","","","VDACtest","red","1st","vertical","true","high","",""
"","html-keyboard-response","98","288337","0.0-3.0-1.0-2.16","tglomgf2q8","red","null","<p style=""font-size:300%;""> + 10 points.</p><p style=""font-size:300%"">Total: 72 points.</p>","null","","","","","","","","","","","","72",""
"","html-keyboard-response","99","290040","0.0-3.0-1.0-0.17","tglomgf2q8","red","null","<svg viewBox=""0 0 100 100"" > <path d=""M 50 52 L 50 48"" stroke=""black"" stroke-width="".5""/> <path d=""M 52 50 L 48 50"" stroke=""black"" stroke-width="".5""/>","null","","","","","","","","","","","","",""
"","html-keyboard-response","100","290645","0.0-3.0-1.0-1.17","tglomgf2q8","red","604.8899999586865","<svg viewBox=""0 0 100 100"" ><circle cx=""50"" cy=""50"" r=""10"" fill=""none"" transform=""translate( 26  15)"" stroke=""blueviolet"" /><circle cx=""50"" cy=""50"" r=""10"" fill=""none"" transform=""translate(  0  30)"" stroke=""gold"" /><circle cx=""50"" cy=""50"" r=""10"" fill=""none"" transform=""translate(-26  15)"" stroke=""magenta"" /><circle cx=""50"" cy=""50"" r=""10"" fill=""none"" transform=""translate(-26 -15)"" stroke=""black"" /><circle cx=""50"" cy=""50"" r=""10"" fill=""none"" transform=""translate(  0 -30)"" stroke=""red"" /><circle cx=""50"" cy=""50"" r=""10"" fill=""none"" transform=""translate( 26 -15)"" stroke=""cyan"" /><path d=""M 50 57 L 50 43"" stroke=""black"" transform=""translate( 26  15) rotate(45 50 50)""/><path d=""M 50 57 L 50 43"" stroke=""black"" transform=""translate(  0  30) rotate(-45 50 50)""/><path d=""M 50 57 L 50 43"" stroke=""black"" transform=""translate(-26  15) rotate(-45 50 50)""/><path d=""M 50 57 L 50 43"" stroke=""black"" transform=""translate(-26 -15) rotate(-45 50 50)""/><path d=""M 50 57 L 50 43"" stroke=""black"" transform=""translate(  0 -30) rotate(90 50 50)""/><path d=""M 50 57 L 50 43"" stroke=""black"" transform=""translate( 26 -15) rotate(-45 50 50)""/><path d=""M 50 52 L 50 48"" stroke=""black"" stroke-width="".5""/> <path d=""M 52 50 L 48 50"" stroke=""black"" stroke-width="".5""/></svg>","90","","","","","","VDACtest","red","5th","horizontal","true","high","",""
"","html-keyboard-response","101","293155","0.0-3.0-1.0-2.17","tglomgf2q8","red","null","<p style=""font-size:300%;""> + 10 points.</p><p style=""font-size:300%"">Total: 82 points.</p>","null","","","","","","","","","","","","82",""
"","html-keyboard-response","102","294842","0.0-3.0-1.0-0.18","tglomgf2q8","red","null","<svg viewBox=""0 0 100 100"" > <path d=""M 50 52 L 50 48"" stroke=""black"" stroke-width="".5""/> <path d=""M 52 50 L 48 50"" stroke=""black"" stroke-width="".5""/>","null","","","","","","","","","","","","",""
"","html-keyboard-response","103","295470","0.0-3.0-1.0-1.18","tglomgf2q8","red","626.7150000203401","<svg viewBox=""0 0 100 100"" ><circle cx=""50"" cy=""50"" r=""10"" fill=""none"" transform=""translate( 26  15)"" stroke=""red"" /><circle cx=""50"" cy=""50"" r=""10"" fill=""none"" transform=""translate(  0  30)"" stroke=""magenta"" /><circle cx=""50"" cy=""50"" r=""10"" fill=""none"" transform=""translate(-26  15)"" stroke=""cyan"" /><circle cx=""50"" cy=""50"" r=""10"" fill=""none"" transform=""translate(-26 -15)"" stroke=""gold"" /><circle cx=""50"" cy=""50"" r=""10"" fill=""none"" transform=""translate(  0 -30)"" stroke=""blueviolet"" /><circle cx=""50"" cy=""50"" r=""10"" fill=""none"" transform=""translate( 26 -15)"" stroke=""black"" /><path d=""M 50 57 L 50 43"" stroke=""black"" transform=""translate( 26  15) rotate(90 50 50)""/><path d=""M 50 57 L 50 43"" stroke=""black"" transform=""translate(  0  30) rotate(-45 50 50)""/><path d=""M 50 57 L 50 43"" stroke=""black"" transform=""translate(-26  15) rotate(-45 50 50)""/><path d=""M 50 57 L 50 43"" stroke=""black"" transform=""translate(-26 -15) rotate(45 50 50)""/><path d=""M 50 57 L 50 43"" stroke=""black"" transform=""translate(  0 -30) rotate(-45 50 50)""/><path d=""M 50 57 L 50 43"" stroke=""black"" transform=""translate( 26 -15) rotate(45 50 50)""/><path d=""M 50 52 L 50 48"" stroke=""black"" stroke-width="".5""/> <path d=""M 52 50 L 48 50"" stroke=""black"" stroke-width="".5""/></svg>","90","","","","","","VDACtest","red","1st","horizontal","true","high","",""
"","html-keyboard-response","104","297976","0.0-3.0-1.0-2.18","tglomgf2q8","red","null","<p style=""font-size:300%;""> + 10 points.</p><p style=""font-size:300%"">Total: 92 points.</p>","null","","","","","","","","","","","","92",""
"","html-keyboard-response","105","299666","0.0-3.0-1.0-0.19","tglomgf2q8","red","null","<svg viewBox=""0 0 100 100"" > <path d=""M 50 52 L 50 48"" stroke=""black"" stroke-width="".5""/> <path d=""M 52 50 L 48 50"" stroke=""black"" stroke-width="".5""/>","null","","","","","","","","","","","","",""
"","html-keyboard-response","106","300269","0.0-3.0-1.0-1.19","tglomgf2q8","red","602.1049999399111","<svg viewBox=""0 0 100 100"" ><circle cx=""50"" cy=""50"" r=""10"" fill=""none"" transform=""translate( 26  15)"" stroke=""blueviolet"" /><circle cx=""50"" cy=""50"" r=""10"" fill=""none"" transform=""translate(  0  30)"" stroke=""gold"" /><circle cx=""50"" cy=""50"" r=""10"" fill=""none"" transform=""translate(-26  15)"" stroke=""cyan"" /><circle cx=""50"" cy=""50"" r=""10"" fill=""none"" transform=""translate(-26 -15)"" stroke=""black"" /><circle cx=""50"" cy=""50"" r=""10"" fill=""none"" transform=""translate(  0 -30)"" stroke=""magenta"" /><circle cx=""50"" cy=""50"" r=""10"" fill=""none"" transform=""translate( 26 -15)"" stroke=""red"" /><path d=""M 50 57 L 50 43"" stroke=""black"" transform=""translate( 26  15) rotate(-45 50 50)""/><path d=""M 50 57 L 50 43"" stroke=""black"" transform=""translate(  0  30) rotate(45 50 50)""/><path d=""M 50 57 L 50 43"" stroke=""black"" transform=""translate(-26  15) rotate(-45 50 50)""/><path d=""M 50 57 L 50 43"" stroke=""black"" transform=""translate(-26 -15) rotate(45 50 50)""/><path d=""M 50 57 L 50 43"" stroke=""black"" transform=""translate(  0 -30) rotate(45 50 50)""/><path d=""M 50 57 L 50 43"" stroke=""black"" transform=""translate( 26 -15) rotate(90 50 50)""/><path d=""M 50 52 L 50 48"" stroke=""black"" stroke-width="".5""/> <path d=""M 52 50 L 48 50"" stroke=""black"" stroke-width="".5""/></svg>","90","","","","","","VDACtest","red","6th","horizontal","true","high","",""
"","html-keyboard-response","107","302784","0.0-3.0-1.0-2.19","tglomgf2q8","red","null","<p style=""font-size:300%;""> + 10 points.</p><p style=""font-size:300%"">Total: 102 points.</p>","null","","","","","","","","","","","","102",""
"","html-keyboard-response","108","304473","0.0-3.0-1.0-0.20","tglomgf2q8","red","null","<svg viewBox=""0 0 100 100"" > <path d=""M 50 52 L 50 48"" stroke=""black"" stroke-width="".5""/> <path d=""M 52 50 L 48 50"" stroke=""black"" stroke-width="".5""/>","null","","","","","","","","","","","","",""
"","html-keyboard-response","109","305093","0.0-3.0-1.0-1.20","tglomgf2q8","red","619.3999999668449","<svg viewBox=""0 0 100 100"" ><circle cx=""50"" cy=""50"" r=""10"" fill=""none"" transform=""translate( 26  15)"" stroke=""cyan"" /><circle cx=""50"" cy=""50"" r=""10"" fill=""none"" transform=""translate(  0  30)"" stroke=""red"" /><circle cx=""50"" cy=""50"" r=""10"" fill=""none"" transform=""translate(-26  15)"" stroke=""blueviolet"" /><circle cx=""50"" cy=""50"" r=""10"" fill=""none"" transform=""translate(-26 -15)"" stroke=""black"" /><circle cx=""50"" cy=""50"" r=""10"" fill=""none"" transform=""translate(  0 -30)"" stroke=""gold"" /><circle cx=""50"" cy=""50"" r=""10"" fill=""none"" transform=""translate( 26 -15)"" stroke=""magenta"" /><path d=""M 50 57 L 50 43"" stroke=""black"" transform=""translate( 26  15) rotate(45 50 50)""/><path d=""M 50 57 L 50 43"" stroke=""black"" transform=""translate(  0  30) rotate(0 50 50)""/><path d=""M 50 57 L 50 43"" stroke=""black"" transform=""translate(-26  15) rotate(-45 50 50)""/><path d=""M 50 57 L 50 43"" stroke=""black"" transform=""translate(-26 -15) rotate(45 50 50)""/><path d=""M 50 57 L 50 43"" stroke=""black"" transform=""translate(  0 -30) rotate(-45 50 50)""/><path d=""M 50 57 L 50 43"" stroke=""black"" transform=""translate( 26 -15) rotate(45 50 50)""/><path d=""M 50 52 L 50 48"" stroke=""black"" stroke-width="".5""/> <path d=""M 52 50 L 48 50"" stroke=""black"" stroke-width="".5""/></svg>","77","","","","","","VDACtest","red","2nd","vertical","true","high","",""
"","html-keyboard-response","110","307604","0.0-3.0-1.0-2.20","tglomgf2q8","red","null","<p style=""font-size:300%;""> + 10 points.</p><p style=""font-size:300%"">Total: 112 points.</p>","null","","","","","","","","","","","","112",""
"","html-keyboard-response","111","309297","0.0-3.0-1.0-0.21","tglomgf2q8","red","null","<svg viewBox=""0 0 100 100"" > <path d=""M 50 52 L 50 48"" stroke=""black"" stroke-width="".5""/> <path d=""M 52 50 L 48 50"" stroke=""black"" stroke-width="".5""/>","null","","","","","","","","","","","","",""
"","html-keyboard-response","112","310037","0.0-3.0-1.0-1.21","tglomgf2q8","red","739.4199999980628","<svg viewBox=""0 0 100 100"" ><circle cx=""50"" cy=""50"" r=""10"" fill=""none"" transform=""translate( 26  15)"" stroke=""black"" /><circle cx=""50"" cy=""50"" r=""10"" fill=""none"" transform=""translate(  0  30)"" stroke=""red"" /><circle cx=""50"" cy=""50"" r=""10"" fill=""none"" transform=""translate(-26  15)"" stroke=""cyan"" /><circle cx=""50"" cy=""50"" r=""10"" fill=""none"" transform=""translate(-26 -15)"" stroke=""gold"" /><circle cx=""50"" cy=""50"" r=""10"" fill=""none"" transform=""translate(  0 -30)"" stroke=""magenta"" /><circle cx=""50"" cy=""50"" r=""10"" fill=""none"" transform=""translate( 26 -15)"" stroke=""blueviolet"" /><path d=""M 50 57 L 50 43"" stroke=""black"" transform=""translate( 26  15) rotate(45 50 50)""/><path d=""M 50 57 L 50 43"" stroke=""black"" transform=""translate(  0  30) rotate(0 50 50)""/><path d=""M 50 57 L 50 43"" stroke=""black"" transform=""translate(-26  15) rotate(45 50 50)""/><path d=""M 50 57 L 50 43"" stroke=""black"" transform=""translate(-26 -15) rotate(45 50 50)""/><path d=""M 50 57 L 50 43"" stroke=""black"" transform=""translate(  0 -30) rotate(-45 50 50)""/><path d=""M 50 57 L 50 43"" stroke=""black"" transform=""translate( 26 -15) rotate(-45 50 50)""/><path d=""M 50 52 L 50 48"" stroke=""black"" stroke-width="".5""/> <path d=""M 52 50 L 48 50"" stroke=""black"" stroke-width="".5""/></svg>","77","","","","","","VDACtest","red","2nd","vertical","true","high","",""
"","html-keyboard-response","113","312557","0.0-3.0-1.0-2.21","tglomgf2q8","red","null","<p style=""font-size:300%;""> + 10 points.</p><p style=""font-size:300%"">Total: 122 points.</p>","null","","","","","","","","","","","","122",""
"","html-keyboard-response","114","314255","0.0-3.0-1.0-0.22","tglomgf2q8","red","null","<svg viewBox=""0 0 100 100"" > <path d=""M 50 52 L 50 48"" stroke=""black"" stroke-width="".5""/> <path d=""M 52 50 L 48 50"" stroke=""black"" stroke-width="".5""/>","null","","","","","","","","","","","","",""
"","html-keyboard-response","115","314885","0.0-3.0-1.0-1.22","tglomgf2q8","red","629.8399999504909","<svg viewBox=""0 0 100 100"" ><circle cx=""50"" cy=""50"" r=""10"" fill=""none"" transform=""translate( 26  15)"" stroke=""magenta"" /><circle cx=""50"" cy=""50"" r=""10"" fill=""none"" transform=""translate(  0  30)"" stroke=""cyan"" /><circle cx=""50"" cy=""50"" r=""10"" fill=""none"" transform=""translate(-26  15)"" stroke=""green"" /><circle cx=""50"" cy=""50"" r=""10"" fill=""none"" transform=""translate(-26 -15)"" stroke=""blueviolet"" /><circle cx=""50"" cy=""50"" r=""10"" fill=""none"" transform=""translate(  0 -30)"" stroke=""gold"" /><circle cx=""50"" cy=""50"" r=""10"" fill=""none"" transform=""translate( 26 -15)"" stroke=""black"" /><path d=""M 50 57 L 50 43"" stroke=""black"" transform=""translate( 26  15) rotate(-45 50 50)""/><path d=""M 50 57 L 50 43"" stroke=""black"" transform=""translate(  0  30) rotate(45 50 50)""/><path d=""M 50 57 L 50 43"" stroke=""black"" transform=""translate(-26  15) rotate(90 50 50)""/><path d=""M 50 57 L 50 43"" stroke=""black"" transform=""translate(-26 -15) rotate(-45 50 50)""/><path d=""M 50 57 L 50 43"" stroke=""black"" transform=""translate(  0 -30) rotate(45 50 50)""/><path d=""M 50 57 L 50 43"" stroke=""black"" transform=""translate( 26 -15) rotate(45 50 50)""/><path d=""M 50 52 L 50 48"" stroke=""black"" stroke-width="".5""/> <path d=""M 52 50 L 48 50"" stroke=""black"" stroke-width="".5""/></svg>","90","","","","","","VDACtest","green","3rd","horizontal","true","low","",""
"","html-keyboard-response","116","317390","0.0-3.0-1.0-2.22","tglomgf2q8","red","null","<p style=""font-size:300%;""> + 10 points.</p><p style=""font-size:300%"">Total: 132 points.</p>","null","","","","","","","","","","","","132",""
"","html-keyboard-response","117","319081","0.0-3.0-1.0-0.23","tglomgf2q8","red","null","<svg viewBox=""0 0 100 100"" > <path d=""M 50 52 L 50 48"" stroke=""black"" stroke-width="".5""/> <path d=""M 52 50 L 48 50"" stroke=""black"" stroke-width="".5""/>","null","","","","","","","","","","","","",""
"","html-keyboard-response","118","319701","0.0-3.0-1.0-1.23","tglomgf2q8","red","619.2749999463558","<svg viewBox=""0 0 100 100"" ><circle cx=""50"" cy=""50"" r=""10"" fill=""none"" transform=""translate( 26  15)"" stroke=""gold"" /><circle cx=""50"" cy=""50"" r=""10"" fill=""none"" transform=""translate(  0  30)"" stroke=""red"" /><circle cx=""50"" cy=""50"" r=""10"" fill=""none"" transform=""translate(-26  15)"" stroke=""cyan"" /><circle cx=""50"" cy=""50"" r=""10"" fill=""none"" transform=""translate(-26 -15)"" stroke=""blueviolet"" /><circle cx=""50"" cy=""50"" r=""10"" fill=""none"" transform=""translate(  0 -30)"" stroke=""black"" /><circle cx=""50"" cy=""50"" r=""10"" fill=""none"" transform=""translate( 26 -15)"" stroke=""magenta"" /><path d=""M 50 57 L 50 43"" stroke=""black"" transform=""translate( 26  15) rotate(45 50 50)""/><path d=""M 50 57 L 50 43"" stroke=""black"" transform=""translate(  0  30) rotate(90 50 50)""/><path d=""M 50 57 L 50 43"" stroke=""black"" transform=""translate(-26  15) rotate(45 50 50)""/><path d=""M 50 57 L 50 43"" stroke=""black"" transform=""translate(-26 -15) rotate(-45 50 50)""/><path d=""M 50 57 L 50 43"" stroke=""black"" transform=""translate(  0 -30) rotate(-45 50 50)""/><path d=""M 50 57 L 50 43"" stroke=""black"" transform=""translate( 26 -15) rotate(-45 50 50)""/><path d=""M 50 52 L 50 48"" stroke=""black"" stroke-width="".5""/> <path d=""M 52 50 L 48 50"" stroke=""black"" stroke-width="".5""/></svg>","90","","","","","","VDACtest","red","2nd","horizontal","true","high","",""
"","html-keyboard-response","119","322212","0.0-3.0-1.0-2.23","tglomgf2q8","red","null","<p style=""font-size:300%;""> + 10 points.</p><p style=""font-size:300%"">Total: 142 points.</p>","null","","","","","","","","","","","","142",""
"","html-keyboard-response","120","323902","0.0-3.0-1.0-0.24","tglomgf2q8","red","null","<svg viewBox=""0 0 100 100"" > <path d=""M 50 52 L 50 48"" stroke=""black"" stroke-width="".5""/> <path d=""M 52 50 L 48 50"" stroke=""black"" stroke-width="".5""/>","null","","","","","","","","","","","","",""
"","html-keyboard-response","121","324422","0.0-3.0-1.0-1.24","tglomgf2q8","red","519.4899999769405","<svg viewBox=""0 0 100 100"" ><circle cx=""50"" cy=""50"" r=""10"" fill=""none"" transform=""translate( 26  15)"" stroke=""blueviolet"" /><circle cx=""50"" cy=""50"" r=""10"" fill=""none"" transform=""translate(  0  30)"" stroke=""cyan"" /><circle cx=""50"" cy=""50"" r=""10"" fill=""none"" transform=""translate(-26  15)"" stroke=""red"" /><circle cx=""50"" cy=""50"" r=""10"" fill=""none"" transform=""translate(-26 -15)"" stroke=""black"" /><circle cx=""50"" cy=""50"" r=""10"" fill=""none"" transform=""translate(  0 -30)"" stroke=""magenta"" /><circle cx=""50"" cy=""50"" r=""10"" fill=""none"" transform=""translate( 26 -15)"" stroke=""gold"" /><path d=""M 50 57 L 50 43"" stroke=""black"" transform=""translate( 26  15) rotate(45 50 50)""/><path d=""M 50 57 L 50 43"" stroke=""black"" transform=""translate(  0  30) rotate(45 50 50)""/><path d=""M 50 57 L 50 43"" stroke=""black"" transform=""translate(-26  15) rotate(90 50 50)""/><path d=""M 50 57 L 50 43"" stroke=""black"" transform=""translate(-26 -15) rotate(-45 50 50)""/><path d=""M 50 57 L 50 43"" stroke=""black"" transform=""translate(  0 -30) rotate(-45 50 50)""/><path d=""M 50 57 L 50 43"" stroke=""black"" transform=""translate( 26 -15) rotate(45 50 50)""/><path d=""M 50 52 L 50 48"" stroke=""black"" stroke-width="".5""/> <path d=""M 52 50 L 48 50"" stroke=""black"" stroke-width="".5""/></svg>","90","","","","","","VDACtest","red","3rd","horizontal","true","high","",""
"","html-keyboard-response","122","326936","0.0-3.0-1.0-2.24","tglomgf2q8","red","null","<p style=""font-size:300%;""> + 10 points.</p><p style=""font-size:300%"">Total: 152 points.</p>","null","","","","","","","","","","","","152",""
"","html-keyboard-response","123","328628","0.0-3.0-1.0-0.25","tglomgf2q8","red","null","<svg viewBox=""0 0 100 100"" > <path d=""M 50 52 L 50 48"" stroke=""black"" stroke-width="".5""/> <path d=""M 52 50 L 48 50"" stroke=""black"" stroke-width="".5""/>","null","","","","","","","","","","","","",""
"","html-keyboard-response","124","329158","0.0-3.0-1.0-1.25","tglomgf2q8","red","529.4250000733882","<svg viewBox=""0 0 100 100"" ><circle cx=""50"" cy=""50"" r=""10"" fill=""none"" transform=""translate( 26  15)"" stroke=""magenta"" /><circle cx=""50"" cy=""50"" r=""10"" fill=""none"" transform=""translate(  0  30)"" stroke=""cyan"" /><circle cx=""50"" cy=""50"" r=""10"" fill=""none"" transform=""translate(-26  15)"" stroke=""gold"" /><circle cx=""50"" cy=""50"" r=""10"" fill=""none"" transform=""translate(-26 -15)"" stroke=""green"" /><circle cx=""50"" cy=""50"" r=""10"" fill=""none"" transform=""translate(  0 -30)"" stroke=""black"" /><circle cx=""50"" cy=""50"" r=""10"" fill=""none"" transform=""translate( 26 -15)"" stroke=""blueviolet"" /><path d=""M 50 57 L 50 43"" stroke=""black"" transform=""translate( 26  15) rotate(45 50 50)""/><path d=""M 50 57 L 50 43"" stroke=""black"" transform=""translate(  0  30) rotate(-45 50 50)""/><path d=""M 50 57 L 50 43"" stroke=""black"" transform=""translate(-26  15) rotate(45 50 50)""/><path d=""M 50 57 L 50 43"" stroke=""black"" transform=""translate(-26 -15) rotate(0 50 50)""/><path d=""M 50 57 L 50 43"" stroke=""black"" transform=""translate(  0 -30) rotate(-45 50 50)""/><path d=""M 50 57 L 50 43"" stroke=""black"" transform=""translate( 26 -15) rotate(-45 50 50)""/><path d=""M 50 52 L 50 48"" stroke=""black"" stroke-width="".5""/> <path d=""M 52 50 L 48 50"" stroke=""black"" stroke-width="".5""/></svg>","90","","","","","","VDACtest","green","4th","vertical","false","low","",""
"","html-keyboard-response","125","331670","0.0-3.0-1.0-2.25","tglomgf2q8","red","null","<p style=""font-size:300%;"">Miss.</p><p style=""font-size:300%"">Total: 152 points.</p>","null","","","","","","","","","","","","152",""
"","html-keyboard-response","126","333375","0.0-3.0-1.0-0.26","tglomgf2q8","red","null","<svg viewBox=""0 0 100 100"" > <path d=""M 50 52 L 50 48"" stroke=""black"" stroke-width="".5""/> <path d=""M 52 50 L 48 50"" stroke=""black"" stroke-width="".5""/>","null","","","","","","","","","","","","",""
"","html-keyboard-response","127","334384","0.0-3.0-1.0-1.26","tglomgf2q8","red","null","<svg viewBox=""0 0 100 100"" ><circle cx=""50"" cy=""50"" r=""10"" fill=""none"" transform=""translate( 26  15)"" stroke=""cyan"" /><circle cx=""50"" cy=""50"" r=""10"" fill=""none"" transform=""translate(  0  30)"" stroke=""gold"" /><circle cx=""50"" cy=""50"" r=""10"" fill=""none"" transform=""translate(-26  15)"" stroke=""black"" /><circle cx=""50"" cy=""50"" r=""10"" fill=""none"" transform=""translate(-26 -15)"" stroke=""green"" /><circle cx=""50"" cy=""50"" r=""10"" fill=""none"" transform=""translate(  0 -30)"" stroke=""magenta"" /><circle cx=""50"" cy=""50"" r=""10"" fill=""none"" transform=""translate( 26 -15)"" stroke=""blueviolet"" /><path d=""M 50 57 L 50 43"" stroke=""black"" transform=""translate( 26  15) rotate(45 50 50)""/><path d=""M 50 57 L 50 43"" stroke=""black"" transform=""translate(  0  30) rotate(45 50 50)""/><path d=""M 50 57 L 50 43"" stroke=""black"" transform=""translate(-26  15) rotate(-45 50 50)""/><path d=""M 50 57 L 50 43"" stroke=""black"" transform=""translate(-26 -15) rotate(0 50 50)""/><path d=""M 50 57 L 50 43"" stroke=""black"" transform=""translate(  0 -30) rotate(-45 50 50)""/><path d=""M 50 57 L 50 43"" stroke=""black"" transform=""translate( 26 -15) rotate(-45 50 50)""/><path d=""M 50 52 L 50 48"" stroke=""black"" stroke-width="".5""/> <path d=""M 52 50 L 48 50"" stroke=""black"" stroke-width="".5""/></svg>","null","","","","","","VDACtest","green","4th","vertical","null","low","",""
"","html-keyboard-response","128","336894","0.0-3.0-1.0-2.26","tglomgf2q8","red","null","<p style=""font-size:300%;"">Miss.</p><p style=""font-size:300%"">Total: 152 points.</p>","null","","","","","","","","","","","","152",""
"","html-keyboard-response","129","338582","0.0-3.0-1.0-0.27","tglomgf2q8","red","null","<svg viewBox=""0 0 100 100"" > <path d=""M 50 52 L 50 48"" stroke=""black"" stroke-width="".5""/> <path d=""M 52 50 L 48 50"" stroke=""black"" stroke-width="".5""/>","null","","","","","","","","","","","","",""
"","html-keyboard-response","130","339109","0.0-3.0-1.0-1.27","tglomgf2q8","red","525.9350000414997","<svg viewBox=""0 0 100 100"" ><circle cx=""50"" cy=""50"" r=""10"" fill=""none"" transform=""translate( 26  15)"" stroke=""cyan"" /><circle cx=""50"" cy=""50"" r=""10"" fill=""none"" transform=""translate(  0  30)"" stroke=""magenta"" /><circle cx=""50"" cy=""50"" r=""10"" fill=""none"" transform=""translate(-26  15)"" stroke=""gold"" /><circle cx=""50"" cy=""50"" r=""10"" fill=""none"" transform=""translate(-26 -15)"" stroke=""black"" /><circle cx=""50"" cy=""50"" r=""10"" fill=""none"" transform=""translate(  0 -30)"" stroke=""green"" /><circle cx=""50"" cy=""50"" r=""10"" fill=""none"" transform=""translate( 26 -15)"" stroke=""blueviolet"" /><path d=""M 50 57 L 50 43"" stroke=""black"" transform=""translate( 26  15) rotate(45 50 50)""/><path d=""M 50 57 L 50 43"" stroke=""black"" transform=""translate(  0  30) rotate(45 50 50)""/><path d=""M 50 57 L 50 43"" stroke=""black"" transform=""translate(-26  15) rotate(-45 50 50)""/><path d=""M 50 57 L 50 43"" stroke=""black"" transform=""translate(-26 -15) rotate(45 50 50)""/><path d=""M 50 57 L 50 43"" stroke=""black"" transform=""translate(  0 -30) rotate(0 50 50)""/><path d=""M 50 57 L 50 43"" stroke=""black"" transform=""translate( 26 -15) rotate(45 50 50)""/><path d=""M 50 52 L 50 48"" stroke=""black"" stroke-width="".5""/> <path d=""M 52 50 L 48 50"" stroke=""black"" stroke-width="".5""/></svg>","77","","","","","","VDACtest","green","5th","vertical","true","low","",""
"","html-keyboard-response","131","341632","0.0-3.0-1.0-2.27","tglomgf2q8","red","null","<p style=""font-size:300%;""> + 10 points.</p><p style=""font-size:300%"">Total: 162 points.</p>","null","","","","","","","","","","","","162",""
"","html-keyboard-response","132","343324","0.0-3.0-1.0-0.28","tglomgf2q8","red","null","<svg viewBox=""0 0 100 100"" > <path d=""M 50 52 L 50 48"" stroke=""black"" stroke-width="".5""/> <path d=""M 52 50 L 48 50"" stroke=""black"" stroke-width="".5""/>","null","","","","","","","","","","","","",""
"","html-keyboard-response","133","343805","0.0-3.0-1.0-1.28","tglomgf2q8","red","480.1350000780076","<svg viewBox=""0 0 100 100"" ><circle cx=""50"" cy=""50"" r=""10"" fill=""none"" transform=""translate( 26  15)"" stroke=""gold"" /><circle cx=""50"" cy=""50"" r=""10"" fill=""none"" transform=""translate(  0  30)"" stroke=""cyan"" /><circle cx=""50"" cy=""50"" r=""10"" fill=""none"" transform=""translate(-26  15)"" stroke=""magenta"" /><circle cx=""50"" cy=""50"" r=""10"" fill=""none"" transform=""translate(-26 -15)"" stroke=""blueviolet"" /><circle cx=""50"" cy=""50"" r=""10"" fill=""none"" transform=""translate(  0 -30)"" stroke=""red"" /><circle cx=""50"" cy=""50"" r=""10"" fill=""none"" transform=""translate( 26 -15)"" stroke=""black"" /><path d=""M 50 57 L 50 43"" stroke=""black"" transform=""translate( 26  15) rotate(-45 50 50)""/><path d=""M 50 57 L 50 43"" stroke=""black"" transform=""translate(  0  30) rotate(45 50 50)""/><path d=""M 50 57 L 50 43"" stroke=""black"" transform=""translate(-26  15) rotate(45 50 50)""/><path d=""M 50 57 L 50 43"" stroke=""black"" transform=""translate(-26 -15) rotate(-45 50 50)""/><path d=""M 50 57 L 50 43"" stroke=""black"" transform=""translate(  0 -30) rotate(0 50 50)""/><path d=""M 50 57 L 50 43"" stroke=""black"" transform=""translate( 26 -15) rotate(-45 50 50)""/><path d=""M 50 52 L 50 48"" stroke=""black"" stroke-width="".5""/> <path d=""M 52 50 L 48 50"" stroke=""black"" stroke-width="".5""/></svg>","77","","","","","","VDACtest","red","5th","vertical","true","high","",""
"","html-keyboard-response","134","346320","0.0-3.0-1.0-2.28","tglomgf2q8","red","null","<p style=""font-size:300%;""> + 2 points.</p><p style=""font-size:300%"">Total: 164 points.</p>","null","","","","","","","","","","","","164",""
"","html-keyboard-response","135","348012","0.0-3.0-1.0-0.29","tglomgf2q8","red","null","<svg viewBox=""0 0 100 100"" > <path d=""M 50 52 L 50 48"" stroke=""black"" stroke-width="".5""/> <path d=""M 52 50 L 48 50"" stroke=""black"" stroke-width="".5""/>","null","","","","","","","","","","","","",""
"","html-keyboard-response","136","348493","0.0-3.0-1.0-1.29","tglomgf2q8","red","480.6399999652058","<svg viewBox=""0 0 100 100"" ><circle cx=""50"" cy=""50"" r=""10"" fill=""none"" transform=""translate( 26  15)"" stroke=""magenta"" /><circle cx=""50"" cy=""50"" r=""10"" fill=""none"" transform=""translate(  0  30)"" stroke=""cyan"" /><circle cx=""50"" cy=""50"" r=""10"" fill=""none"" transform=""translate(-26  15)"" stroke=""gold"" /><circle cx=""50"" cy=""50"" r=""10"" fill=""none"" transform=""translate(-26 -15)"" stroke=""red"" /><circle cx=""50"" cy=""50"" r=""10"" fill=""none"" transform=""translate(  0 -30)"" stroke=""blueviolet"" /><circle cx=""50"" cy=""50"" r=""10"" fill=""none"" transform=""translate( 26 -15)"" stroke=""black"" /><path d=""M 50 57 L 50 43"" stroke=""black"" transform=""translate( 26  15) rotate(45 50 50)""/><path d=""M 50 57 L 50 43"" stroke=""black"" transform=""translate(  0  30) rotate(45 50 50)""/><path d=""M 50 57 L 50 43"" stroke=""black"" transform=""translate(-26  15) rotate(-45 50 50)""/><path d=""M 50 57 L 50 43"" stroke=""black"" transform=""translate(-26 -15) rotate(90 50 50)""/><path d=""M 50 57 L 50 43"" stroke=""black"" transform=""translate(  0 -30) rotate(-45 50 50)""/><path d=""M 50 57 L 50 43"" stroke=""black"" transform=""translate( 26 -15) rotate(45 50 50)""/><path d=""M 50 52 L 50 48"" stroke=""black"" stroke-width="".5""/> <path d=""M 52 50 L 48 50"" stroke=""black"" stroke-width="".5""/></svg>","90","","","","","","VDACtest","red","4th","horizontal","true","high","",""
"","html-keyboard-response","137","351007","0.0-3.0-1.0-2.29","tglomgf2q8","red","null","<p style=""font-size:300%;""> + 10 points.</p><p style=""font-size:300%"">Total: 174 points.</p>","null","","","","","","","","","","","","174",""
"","html-keyboard-response","138","352698","0.0-3.0-1.0-0.30","tglomgf2q8","red","null","<svg viewBox=""0 0 100 100"" > <path d=""M 50 52 L 50 48"" stroke=""black"" stroke-width="".5""/> <path d=""M 52 50 L 48 50"" stroke=""black"" stroke-width="".5""/>","null","","","","","","","","","","","","",""
"","html-keyboard-response","139","353229","0.0-3.0-1.0-1.30","tglomgf2q8","red","530.4799999576062","<svg viewBox=""0 0 100 100"" ><circle cx=""50"" cy=""50"" r=""10"" fill=""none"" transform=""translate( 26  15)"" stroke=""red"" /><circle cx=""50"" cy=""50"" r=""10"" fill=""none"" transform=""translate(  0  30)"" stroke=""cyan"" /><circle cx=""50"" cy=""50"" r=""10"" fill=""none"" transform=""translate(-26  15)"" stroke=""black"" /><circle cx=""50"" cy=""50"" r=""10"" fill=""none"" transform=""translate(-26 -15)"" stroke=""blueviolet"" /><circle cx=""50"" cy=""50"" r=""10"" fill=""none"" transform=""translate(  0 -30)"" stroke=""magenta"" /><circle cx=""50"" cy=""50"" r=""10"" fill=""none"" transform=""translate( 26 -15)"" stroke=""gold"" /><path d=""M 50 57 L 50 43"" stroke=""black"" transform=""translate( 26  15) rotate(90 50 50)""/><path d=""M 50 57 L 50 43"" stroke=""black"" transform=""translate(  0  30) rotate(-45 50 50)""/><path d=""M 50 57 L 50 43"" stroke=""black"" transform=""translate(-26  15) rotate(-45 50 50)""/><path d=""M 50 57 L 50 43"" stroke=""black"" transform=""translate(-26 -15) rotate(45 50 50)""/><path d=""M 50 57 L 50 43"" stroke=""black"" transform=""translate(  0 -30) rotate(45 50 50)""/><path d=""M 50 57 L 50 43"" stroke=""black"" transform=""translate( 26 -15) rotate(45 50 50)""/><path d=""M 50 52 L 50 48"" stroke=""black"" stroke-width="".5""/> <path d=""M 52 50 L 48 50"" stroke=""black"" stroke-width="".5""/></svg>","90","","","","","","VDACtest","red","1st","horizontal","true","high","",""
"","html-keyboard-response","140","355744","0.0-3.0-1.0-2.30","tglomgf2q8","red","null","<p style=""font-size:300%;""> + 10 points.</p><p style=""font-size:300%"">Total: 184 points.</p>","null","","","","","","","","","","","","184",""
"","html-keyboard-response","141","357445","0.0-3.0-1.0-0.31","tglomgf2q8","red","null","<svg viewBox=""0 0 100 100"" > <path d=""M 50 52 L 50 48"" stroke=""black"" stroke-width="".5""/> <path d=""M 52 50 L 48 50"" stroke=""black"" stroke-width="".5""/>","null","","","","","","","","","","","","",""
"","html-keyboard-response","142","358229","0.0-3.0-1.0-1.31","tglomgf2q8","red","782.8200000803918","<svg viewBox=""0 0 100 100"" ><circle cx=""50"" cy=""50"" r=""10"" fill=""none"" transform=""translate( 26  15)"" stroke=""gold"" /><circle cx=""50"" cy=""50"" r=""10"" fill=""none"" transform=""translate(  0  30)"" stroke=""red"" /><circle cx=""50"" cy=""50"" r=""10"" fill=""none"" transform=""translate(-26  15)"" stroke=""magenta"" /><circle cx=""50"" cy=""50"" r=""10"" fill=""none"" transform=""translate(-26 -15)"" stroke=""cyan"" /><circle cx=""50"" cy=""50"" r=""10"" fill=""none"" transform=""translate(  0 -30)"" stroke=""black"" /><circle cx=""50"" cy=""50"" r=""10"" fill=""none"" transform=""translate( 26 -15)"" stroke=""blueviolet"" /><path d=""M 50 57 L 50 43"" stroke=""black"" transform=""translate( 26  15) rotate(45 50 50)""/><path d=""M 50 57 L 50 43"" stroke=""black"" transform=""translate(  0  30) rotate(90 50 50)""/><path d=""M 50 57 L 50 43"" stroke=""black"" transform=""translate(-26  15) rotate(-45 50 50)""/><path d=""M 50 57 L 50 43"" stroke=""black"" transform=""translate(-26 -15) rotate(45 50 50)""/><path d=""M 50 57 L 50 43"" stroke=""black"" transform=""translate(  0 -30) rotate(45 50 50)""/><path d=""M 50 57 L 50 43"" stroke=""black"" transform=""translate( 26 -15) rotate(-45 50 50)""/><path d=""M 50 52 L 50 48"" stroke=""black"" stroke-width="".5""/> <path d=""M 52 50 L 48 50"" stroke=""black"" stroke-width="".5""/></svg>","90","","","","","","VDACtest","red","2nd","horizontal","true","high","",""
"","html-keyboard-response","143","360740","0.0-3.0-1.0-2.31","tglomgf2q8","red","null","<p style=""font-size:300%;""> + 10 points.</p><p style=""font-size:300%"">Total: 194 points.</p>","null","","","","","","","","","","","","194",""
"","html-keyboard-response","144","362430","0.0-3.0-1.0-0.32","tglomgf2q8","red","null","<svg viewBox=""0 0 100 100"" > <path d=""M 50 52 L 50 48"" stroke=""black"" stroke-width="".5""/> <path d=""M 52 50 L 48 50"" stroke=""black"" stroke-width="".5""/>","null","","","","","","","","","","","","",""
"","html-keyboard-response","145","363005","0.0-3.0-1.0-1.32","tglomgf2q8","red","574.544999981299","<svg viewBox=""0 0 100 100"" ><circle cx=""50"" cy=""50"" r=""10"" fill=""none"" transform=""translate( 26  15)"" stroke=""gold"" /><circle cx=""50"" cy=""50"" r=""10"" fill=""none"" transform=""translate(  0  30)"" stroke=""magenta"" /><circle cx=""50"" cy=""50"" r=""10"" fill=""none"" transform=""translate(-26  15)"" stroke=""black"" /><circle cx=""50"" cy=""50"" r=""10"" fill=""none"" transform=""translate(-26 -15)"" stroke=""cyan"" /><circle cx=""50"" cy=""50"" r=""10"" fill=""none"" transform=""translate(  0 -30)"" stroke=""blueviolet"" /><circle cx=""50"" cy=""50"" r=""10"" fill=""none"" transform=""translate( 26 -15)"" stroke=""green"" /><path d=""M 50 57 L 50 43"" stroke=""black"" transform=""translate( 26  15) rotate(45 50 50)""/><path d=""M 50 57 L 50 43"" stroke=""black"" transform=""translate(  0  30) rotate(45 50 50)""/><path d=""M 50 57 L 50 43"" stroke=""black"" transform=""translate(-26  15) rotate(45 50 50)""/><path d=""M 50 57 L 50 43"" stroke=""black"" transform=""translate(-26 -15) rotate(45 50 50)""/><path d=""M 50 57 L 50 43"" stroke=""black"" transform=""translate(  0 -30) rotate(45 50 50)""/><path d=""M 50 57 L 50 43"" stroke=""black"" transform=""translate( 26 -15) rotate(0 50 50)""/><path d=""M 50 52 L 50 48"" stroke=""black"" stroke-width="".5""/> <path d=""M 52 50 L 48 50"" stroke=""black"" stroke-width="".5""/></svg>","77","","","","","","VDACtest","green","6th","vertical","true","low","",""
"","html-keyboard-response","146","365508","0.0-3.0-1.0-2.32","tglomgf2q8","red","null","<p style=""font-size:300%;""> + 2 points.</p><p style=""font-size:300%"">Total: 196 points.</p>","null","","","","","","","","","","","","196",""
"","html-keyboard-response","147","367190","0.0-3.0-1.0-0.33","tglomgf2q8","red","null","<svg viewBox=""0 0 100 100"" > <path d=""M 50 52 L 50 48"" stroke=""black"" stroke-width="".5""/> <path d=""M 52 50 L 48 50"" stroke=""black"" stroke-width="".5""/>","null","","","","","","","","","","","","",""
"","html-keyboard-response","148","367957","0.0-3.0-1.0-1.33","tglomgf2q8","red","766.1849999567494","<svg viewBox=""0 0 100 100"" ><circle cx=""50"" cy=""50"" r=""10"" fill=""none"" transform=""translate( 26  15)"" stroke=""magenta"" /><circle cx=""50"" cy=""50"" r=""10"" fill=""none"" transform=""translate(  0  30)"" stroke=""red"" /><circle cx=""50"" cy=""50"" r=""10"" fill=""none"" transform=""translate(-26  15)"" stroke=""gold"" /><circle cx=""50"" cy=""50"" r=""10"" fill=""none"" transform=""translate(-26 -15)"" stroke=""blueviolet"" /><circle cx=""50"" cy=""50"" r=""10"" fill=""none"" transform=""translate(  0 -30)"" stroke=""cyan"" /><circle cx=""50"" cy=""50"" r=""10"" fill=""none"" transform=""translate( 26 -15)"" stroke=""black"" /><path d=""M 50 57 L 50 43"" stroke=""black"" transform=""translate( 26  15) rotate(-45 50 50)""/><path d=""M 50 57 L 50 43"" stroke=""black"" transform=""translate(  0  30) rotate(90 50 50)""/><path d=""M 50 57 L 50 43"" stroke=""black"" transform=""translate(-26  15) rotate(45 50 50)""/><path d=""M 50 57 L 50 43"" stroke=""black"" transform=""translate(-26 -15) rotate(-45 50 50)""/><path d=""M 50 57 L 50 43"" stroke=""black"" transform=""translate(  0 -30) rotate(-45 50 50)""/><path d=""M 50 57 L 50 43"" stroke=""black"" transform=""translate( 26 -15) rotate(45 50 50)""/><path d=""M 50 52 L 50 48"" stroke=""black"" stroke-width="".5""/> <path d=""M 52 50 L 48 50"" stroke=""black"" stroke-width="".5""/></svg>","90","","","","","","VDACtest","red","2nd","horizontal","true","high","",""
"","html-keyboard-response","149","370460","0.0-3.0-1.0-2.33","tglomgf2q8","red","null","<p style=""font-size:300%;""> + 2 points.</p><p style=""font-size:300%"">Total: 198 points.</p>","null","","","","","","","","","","","","198",""
"","html-keyboard-response","150","372143","0.0-3.0-1.0-0.34","tglomgf2q8","red","null","<svg viewBox=""0 0 100 100"" > <path d=""M 50 52 L 50 48"" stroke=""black"" stroke-width="".5""/> <path d=""M 52 50 L 48 50"" stroke=""black"" stroke-width="".5""/>","null","","","","","","","","","","","","",""
"","html-keyboard-response","151","372925","0.0-3.0-1.0-1.34","tglomgf2q8","red","781.6650000168011","<svg viewBox=""0 0 100 100"" ><circle cx=""50"" cy=""50"" r=""10"" fill=""none"" transform=""translate( 26  15)"" stroke=""red"" /><circle cx=""50"" cy=""50"" r=""10"" fill=""none"" transform=""translate(  0  30)"" stroke=""gold"" /><circle cx=""50"" cy=""50"" r=""10"" fill=""none"" transform=""translate(-26  15)"" stroke=""cyan"" /><circle cx=""50"" cy=""50"" r=""10"" fill=""none"" transform=""translate(-26 -15)"" stroke=""black"" /><circle cx=""50"" cy=""50"" r=""10"" fill=""none"" transform=""translate(  0 -30)"" stroke=""blueviolet"" /><circle cx=""50"" cy=""50"" r=""10"" fill=""none"" transform=""translate( 26 -15)"" stroke=""magenta"" /><path d=""M 50 57 L 50 43"" stroke=""black"" transform=""translate( 26  15) rotate(90 50 50)""/><path d=""M 50 57 L 50 43"" stroke=""black"" transform=""translate(  0  30) rotate(45 50 50)""/><path d=""M 50 57 L 50 43"" stroke=""black"" transform=""translate(-26  15) rotate(-45 50 50)""/><path d=""M 50 57 L 50 43"" stroke=""black"" transform=""translate(-26 -15) rotate(45 50 50)""/><path d=""M 50 57 L 50 43"" stroke=""black"" transform=""translate(  0 -30) rotate(-45 50 50)""/><path d=""M 50 57 L 50 43"" stroke=""black"" transform=""translate( 26 -15) rotate(-45 50 50)""/><path d=""M 50 52 L 50 48"" stroke=""black"" stroke-width="".5""/> <path d=""M 52 50 L 48 50"" stroke=""black"" stroke-width="".5""/></svg>","90","","","","","","VDACtest","red","1st","horizontal","true","high","",""
"","html-keyboard-response","152","375427","0.0-3.0-1.0-2.34","tglomgf2q8","red","null","<p style=""font-size:300%;""> + 10 points.</p><p style=""font-size:300%"">Total: 208 points.</p>","null","","","","","","","","","","","","208",""
"","html-keyboard-response","153","377111","0.0-3.0-1.0-0.35","tglomgf2q8","red","null","<svg viewBox=""0 0 100 100"" > <path d=""M 50 52 L 50 48"" stroke=""black"" stroke-width="".5""/> <path d=""M 52 50 L 48 50"" stroke=""black"" stroke-width="".5""/>","null","","","","","","","","","","","","",""
