"success","trial_type","trial_index","time_elapsed","internal_node_id","subject","condition","view_history","rt","stimulus","response","trialType","tgtCol","tgtPos","tgtDir","correct","rwdType","reward","value","colPos","question_order"
"true","fullscreen","0","6220","0.0-0.0","y95","[""g""]","","","","","","","","","","","","","",""
"","instructions","1","150870","0.0-1.0-0.0","y95","[""g""]","[{""page_index"":0,""viewing_time"":95172.80000001192},{""page_index"":1,""viewing_time"":21093.100000023842},{""page_index"":2,""viewing_time"":9047.699999988079},{""page_index"":3,""viewing_time"":2256.5},{""page_index"":4,""viewing_time"":2751.5},{""page_index"":5,""viewing_time"":855.8999999761581},{""page_index"":6,""viewing_time"":3560},{""page_index"":7,""viewing_time"":2616.100000023842},{""page_index"":8,""viewing_time"":1815.800000011921},{""page_index"":9,""viewing_time"":5480.199999988079}]","144650","","","","","","","","","","","",""
"","html-keyboard-response","2","153876","0.0-1.0-1.0-0.0","y95","[""g""]","","null","<p>Place your fingers on the <b>z</b> and <b>m</b> keys. The experiment will begin shortly.</p> <p></p>","null","","","","","","","","","",""
"","html-keyboard-response","3","154878","0.0-1.0-1.0-1.0","y95","[""g""]","","null","<p>Place your fingers on the <b>z</b> and <b>m</b> keys. </b>The experiment will begin shortly.</p><p>5</p>","null","","","","","","","","","",""
"","html-keyboard-response","4","155881","0.0-1.0-1.0-2.0","y95","[""g""]","","null","<p>Place your fingers on the <b>z</b> and <b>m</b> keys. </b>The experiment will begin shortly.</p><p>4</p>","null","","","","","","","","","",""
"","html-keyboard-response","5","156883","0.0-1.0-1.0-3.0","y95","[""g""]","","null","<p>Place your fingers on the <b>z</b> and <b>m</b> keys. </b>The experiment will begin shortly.</p><p>3</p>","null","","","","","","","","","",""
"","html-keyboard-response","6","157886","0.0-1.0-1.0-4.0","y95","[""g""]","","null","<p>Place your fingers on the <b>z</b> and <b>m</b> keys. </b>The experiment will begin shortly.</p><p>2</p>","null","","","","","","","","","",""
"","html-keyboard-response","7","158888","0.0-1.0-1.0-5.0","y95","[""g""]","","null","<p>Place your fingers on the <b>z</b> and <b>m</b> keys. </b>The experiment will begin shortly.</p><p>1</p>","null","","","","","","","","","",""
"","html-keyboard-response","8","159478","0.0-1.0-2.0-0.0","y95","[""g""]","","null","<svg viewBox=""0 0 100 100"" > <path d=""M 50 52 L 50 48"" stroke=""black"" stroke-width="".5""/> <path d=""M 52 50 L 48 50"" stroke=""black"" stroke-width="".5""/>","null","","","","","","","","","",""
"","html-keyboard-response","9","160484","0.0-1.0-2.0-1.0","y95","[""g""]","","null","[""<svg viewBox=\""0 0 100 100\"" >"",""<text font-size=\""10%\"" text-anchor=\""middle\""  x=\""50\"" y=\""98\"">Press z for horizontal or m for vertical</text>"",""<path d=\""M 50 52 L 50 48\"" stroke=\""black\"" stroke-width=\"".5\""/> <path d=\""M 52 50 L 48 50\"" stroke=\""black\"" stroke-width=\"".5\""/>"",""<circle cx=\""50\"" cy=\""50\"" r=\""10\"" fill=\""none\"" transform=\""translate(26 15)\"" stroke=\""yellow\"" /><path d=\""M 50 57 L 50 43\"" stroke=\""black\"" transform=\""translate(26 15) rotate(45 50 50)\""/>"",""<circle cx=\""50\"" cy=\""50\"" r=\""10\"" fill=\""none\"" transform=\""translate(0 30)\"" stroke=\""blue\"" /><path d=\""M 50 57 L 50 43\"" stroke=\""black\"" transform=\""translate(0 30) rotate(-45 50 50)\""/>"",""<circle cx=\""50\"" cy=\""50\"" r=\""10\"" fill=\""none\"" transform=\""translate(-26 15)\"" stroke=\""magenta\"" /><path d=\""M 50 57 L 50 43\"" stroke=\""black\"" transform=\""translate(-26 15) rotate(45 50 50)\""/>"",""<circle cx=\""50\"" cy=\""50\"" r=\""10\"" fill=\""none\"" transform=\""translate(-26 -15)\"" stroke=\""cyan\"" /><path d=\""M 50 57 L 50 43\"" stroke=\""black\"" transform=\""translate(-26 -15) rotate(-45 50 50)\""/>"",""<circle cx=\""50\"" cy=\""50\"" r=\""10\"" fill=\""none\"" transform=\""translate(0 -30)\"" stroke=\""black\"" /><path d=\""M 50 57 L 50 43\"" stroke=\""black\"" transform=\""translate(0 -30) rotate(-45 50 50)\""/>"",""<circle cx=\""50\"" cy=\""50\"" r=\""10\"" fill=\""none\"" transform=\""translate(26 -15)\"" stroke=\""lime\"" /><path d=\""M 50 57 L 50 43\"" stroke=\""black\"" transform=\""translate(26 -15) rotate(0 50 50)\""/>"",""</svg>""]","null","VDACtrain","g","5","v","null","high","","","",""
"","html-keyboard-response","10","162986","0.0-1.0-2.0-2.0","y95","[""g""]","","null","<p style=""font-size:300%;"">Miss.</p> <p style=""font-size:300%;"">Too slow.</p>","null","","","","","","","","","",""
"","html-keyboard-response","11","164575","0.0-1.0-2.0-0.1","y95","[""g""]","","null","<svg viewBox=""0 0 100 100"" > <path d=""M 50 52 L 50 48"" stroke=""black"" stroke-width="".5""/> <path d=""M 52 50 L 48 50"" stroke=""black"" stroke-width="".5""/>","null","","","","","","","","","",""
"","html-keyboard-response","12","165295","0.0-1.0-2.0-1.1","y95","[""g""]","","717.1999999880791","[""<svg viewBox=\""0 0 100 100\"" >"",""<text font-size=\""10%\"" text-anchor=\""middle\""  x=\""50\"" y=\""98\"">Press z for horizontal or m for vertical</text>"",""<path d=\""M 50 52 L 50 48\"" stroke=\""black\"" stroke-width=\"".5\""/> <path d=\""M 52 50 L 48 50\"" stroke=\""black\"" stroke-width=\"".5\""/>"",""<circle cx=\""50\"" cy=\""50\"" r=\""10\"" fill=\""none\"" transform=\""translate(26 15)\"" stroke=\""yellow\"" /><path d=\""M 50 57 L 50 43\"" stroke=\""black\"" transform=\""translate(26 15) rotate(45 50 50)\""/>"",""<circle cx=\""50\"" cy=\""50\"" r=\""10\"" fill=\""none\"" transform=\""translate(0 30)\"" stroke=\""blue\"" /><path d=\""M 50 57 L 50 43\"" stroke=\""black\"" transform=\""translate(0 30) rotate(-45 50 50)\""/>"",""<circle cx=\""50\"" cy=\""50\"" r=\""10\"" fill=\""none\"" transform=\""translate(-26 15)\"" stroke=\""lime\"" /><path d=\""M 50 57 L 50 43\"" stroke=\""black\"" transform=\""translate(-26 15) rotate(0 50 50)\""/>"",""<circle cx=\""50\"" cy=\""50\"" r=\""10\"" fill=\""none\"" transform=\""translate(-26 -15)\"" stroke=\""black\"" /><path d=\""M 50 57 L 50 43\"" stroke=\""black\"" transform=\""translate(-26 -15) rotate(-45 50 50)\""/>"",""<circle cx=\""50\"" cy=\""50\"" r=\""10\"" fill=\""none\"" transform=\""translate(0 -30)\"" stroke=\""magenta\"" /><path d=\""M 50 57 L 50 43\"" stroke=\""black\"" transform=\""translate(0 -30) rotate(-45 50 50)\""/>"",""<circle cx=\""50\"" cy=\""50\"" r=\""10\"" fill=\""none\"" transform=\""translate(26 -15)\"" stroke=\""cyan\"" /><path d=\""M 50 57 L 50 43\"" stroke=\""black\"" transform=\""translate(26 -15) rotate(-45 50 50)\""/>"",""</svg>""]","m","VDACtrain","g","2","v","true","high","","","",""
"","html-keyboard-response","13","167797","0.0-1.0-2.0-2.1","y95","[""g""]","","null","<p style=""font-size:300%;"">Correct!</p>","null","","","","","","","","","",""
"","html-keyboard-response","14","169386","0.0-1.0-2.0-0.2","y95","[""g""]","","null","<svg viewBox=""0 0 100 100"" > <path d=""M 50 52 L 50 48"" stroke=""black"" stroke-width="".5""/> <path d=""M 52 50 L 48 50"" stroke=""black"" stroke-width="".5""/>","null","","","","","","","","","",""
"","html-keyboard-response","15","169927","0.0-1.0-2.0-1.2","y95","[""g""]","","537","[""<svg viewBox=\""0 0 100 100\"" >"",""<text font-size=\""10%\"" text-anchor=\""middle\""  x=\""50\"" y=\""98\"">Press z for horizontal or m for vertical</text>"",""<path d=\""M 50 52 L 50 48\"" stroke=\""black\"" stroke-width=\"".5\""/> <path d=\""M 52 50 L 48 50\"" stroke=\""black\"" stroke-width=\"".5\""/>"",""<circle cx=\""50\"" cy=\""50\"" r=\""10\"" fill=\""none\"" transform=\""translate(26 15)\"" stroke=\""red\"" /><path d=\""M 50 57 L 50 43\"" stroke=\""black\"" transform=\""translate(26 15) rotate(90 50 50)\""/>"",""<circle cx=\""50\"" cy=\""50\"" r=\""10\"" fill=\""none\"" transform=\""translate(0 30)\"" stroke=\""black\"" /><path d=\""M 50 57 L 50 43\"" stroke=\""black\"" transform=\""translate(0 30) rotate(45 50 50)\""/>"",""<circle cx=\""50\"" cy=\""50\"" r=\""10\"" fill=\""none\"" transform=\""translate(-26 15)\"" stroke=\""yellow\"" /><path d=\""M 50 57 L 50 43\"" stroke=\""black\"" transform=\""translate(-26 15) rotate(45 50 50)\""/>"",""<circle cx=\""50\"" cy=\""50\"" r=\""10\"" fill=\""none\"" transform=\""translate(-26 -15)\"" stroke=\""blue\"" /><path d=\""M 50 57 L 50 43\"" stroke=\""black\"" transform=\""translate(-26 -15) rotate(45 50 50)\""/>"",""<circle cx=\""50\"" cy=\""50\"" r=\""10\"" fill=\""none\"" transform=\""translate(0 -30)\"" stroke=\""cyan\"" /><path d=\""M 50 57 L 50 43\"" stroke=\""black\"" transform=\""translate(0 -30) rotate(-45 50 50)\""/>"",""<circle cx=\""50\"" cy=\""50\"" r=\""10\"" fill=\""none\"" transform=\""translate(26 -15)\"" stroke=\""magenta\"" /><path d=\""M 50 57 L 50 43\"" stroke=\""black\"" transform=\""translate(26 -15) rotate(-45 50 50)\""/>"",""</svg>""]","z","VDACtrain","r","0","h","true","low","","","",""
"","html-keyboard-response","16","172428","0.0-1.0-2.0-2.2","y95","[""g""]","","null","<p style=""font-size:300%;"">Correct!</p>","null","","","","","","","","","",""
"","html-keyboard-response","17","174018","0.0-1.0-2.0-0.3","y95","[""g""]","","null","<svg viewBox=""0 0 100 100"" > <path d=""M 50 52 L 50 48"" stroke=""black"" stroke-width="".5""/> <path d=""M 52 50 L 48 50"" stroke=""black"" stroke-width="".5""/>","null","","","","","","","","","",""
"","html-keyboard-response","18","174727","0.0-1.0-2.0-1.3","y95","[""g""]","","705.3000000119209","[""<svg viewBox=\""0 0 100 100\"" >"",""<text font-size=\""10%\"" text-anchor=\""middle\""  x=\""50\"" y=\""98\"">Press z for horizontal or m for vertical</text>"",""<path d=\""M 50 52 L 50 48\"" stroke=\""black\"" stroke-width=\"".5\""/> <path d=\""M 52 50 L 48 50\"" stroke=\""black\"" stroke-width=\"".5\""/>"",""<circle cx=\""50\"" cy=\""50\"" r=\""10\"" fill=\""none\"" transform=\""translate(26 15)\"" stroke=\""cyan\"" /><path d=\""M 50 57 L 50 43\"" stroke=\""black\"" transform=\""translate(26 15) rotate(45 50 50)\""/>"",""<circle cx=\""50\"" cy=\""50\"" r=\""10\"" fill=\""none\"" transform=\""translate(0 30)\"" stroke=\""blue\"" /><path d=\""M 50 57 L 50 43\"" stroke=\""black\"" transform=\""translate(0 30) rotate(45 50 50)\""/>"",""<circle cx=\""50\"" cy=\""50\"" r=\""10\"" fill=\""none\"" transform=\""translate(-26 15)\"" stroke=\""black\"" /><path d=\""M 50 57 L 50 43\"" stroke=\""black\"" transform=\""translate(-26 15) rotate(45 50 50)\""/>"",""<circle cx=\""50\"" cy=\""50\"" r=\""10\"" fill=\""none\"" transform=\""translate(-26 -15)\"" stroke=\""lime\"" /><path d=\""M 50 57 L 50 43\"" stroke=\""black\"" transform=\""translate(-26 -15) rotate(90 50 50)\""/>"",""<circle cx=\""50\"" cy=\""50\"" r=\""10\"" fill=\""none\"" transform=\""translate(0 -30)\"" stroke=\""yellow\"" /><path d=\""M 50 57 L 50 43\"" stroke=\""black\"" transform=\""translate(0 -30) rotate(-45 50 50)\""/>"",""<circle cx=\""50\"" cy=\""50\"" r=\""10\"" fill=\""none\"" transform=\""translate(26 -15)\"" stroke=\""magenta\"" /><path d=\""M 50 57 L 50 43\"" stroke=\""black\"" transform=\""translate(26 -15) rotate(-45 50 50)\""/>"",""</svg>""]","m","VDACtrain","g","3","h","false","high","","","",""
"","html-keyboard-response","19","177229","0.0-1.0-2.0-2.3","y95","[""g""]","","null","<p style=""font-size:300%;"">Miss.</p> <p style=""font-size:300%;"">Wrong response.</p>","null","","","","","","","","","",""
"","html-keyboard-response","20","178818","0.0-1.0-2.0-0.4","y95","[""g""]","","null","<svg viewBox=""0 0 100 100"" > <path d=""M 50 52 L 50 48"" stroke=""black"" stroke-width="".5""/> <path d=""M 52 50 L 48 50"" stroke=""black"" stroke-width="".5""/>","null","","","","","","","","","",""
"","html-keyboard-response","21","179527","0.0-1.0-2.0-1.4","y95","[""g""]","","705.3000000119209","[""<svg viewBox=\""0 0 100 100\"" >"",""<text font-size=\""10%\"" text-anchor=\""middle\""  x=\""50\"" y=\""98\"">Press z for horizontal or m for vertical</text>"",""<path d=\""M 50 52 L 50 48\"" stroke=\""black\"" stroke-width=\"".5\""/> <path d=\""M 52 50 L 48 50\"" stroke=\""black\"" stroke-width=\"".5\""/>"",""<circle cx=\""50\"" cy=\""50\"" r=\""10\"" fill=\""none\"" transform=\""translate(26 15)\"" stroke=\""yellow\"" /><path d=\""M 50 57 L 50 43\"" stroke=\""black\"" transform=\""translate(26 15) rotate(45 50 50)\""/>"",""<circle cx=\""50\"" cy=\""50\"" r=\""10\"" fill=\""none\"" transform=\""translate(0 30)\"" stroke=\""cyan\"" /><path d=\""M 50 57 L 50 43\"" stroke=\""black\"" transform=\""translate(0 30) rotate(-45 50 50)\""/>"",""<circle cx=\""50\"" cy=\""50\"" r=\""10\"" fill=\""none\"" transform=\""translate(-26 15)\"" stroke=\""magenta\"" /><path d=\""M 50 57 L 50 43\"" stroke=\""black\"" transform=\""translate(-26 15) rotate(45 50 50)\""/>"",""<circle cx=\""50\"" cy=\""50\"" r=\""10\"" fill=\""none\"" transform=\""translate(-26 -15)\"" stroke=\""blue\"" /><path d=\""M 50 57 L 50 43\"" stroke=\""black\"" transform=\""translate(-26 -15) rotate(-45 50 50)\""/>"",""<circle cx=\""50\"" cy=\""50\"" r=\""10\"" fill=\""none\"" transform=\""translate(0 -30)\"" stroke=\""red\"" /><path d=\""M 50 57 L 50 43\"" stroke=\""black\"" transform=\""translate(0 -30) rotate(0 50 50)\""/>"",""<circle cx=\""50\"" cy=\""50\"" r=\""10\"" fill=\""none\"" transform=\""translate(26 -15)\"" stroke=\""black\"" /><path d=\""M 50 57 L 50 43\"" stroke=\""black\"" transform=\""translate(26 -15) rotate(-45 50 50)\""/>"",""</svg>""]","m","VDACtrain","r","4","v","true","low","","","",""
"","html-keyboard-response","22","182029","0.0-1.0-2.0-2.4","y95","[""g""]","","null","<p style=""font-size:300%;"">Correct!</p>","null","","","","","","","","","",""
"","html-keyboard-response","23","183618","0.0-1.0-2.0-0.5","y95","[""g""]","","null","<svg viewBox=""0 0 100 100"" > <path d=""M 50 52 L 50 48"" stroke=""black"" stroke-width="".5""/> <path d=""M 52 50 L 48 50"" stroke=""black"" stroke-width="".5""/>","null","","","","","","","","","",""
"","html-keyboard-response","24","184622","0.0-1.0-2.0-1.5","y95","[""g""]","","null","[""<svg viewBox=\""0 0 100 100\"" >"",""<text font-size=\""10%\"" text-anchor=\""middle\""  x=\""50\"" y=\""98\"">Press z for horizontal or m for vertical</text>"",""<path d=\""M 50 52 L 50 48\"" stroke=\""black\"" stroke-width=\"".5\""/> <path d=\""M 52 50 L 48 50\"" stroke=\""black\"" stroke-width=\"".5\""/>"",""<circle cx=\""50\"" cy=\""50\"" r=\""10\"" fill=\""none\"" transform=\""translate(26 15)\"" stroke=\""cyan\"" /><path d=\""M 50 57 L 50 43\"" stroke=\""black\"" transform=\""translate(26 15) rotate(45 50 50)\""/>"",""<circle cx=\""50\"" cy=\""50\"" r=\""10\"" fill=\""none\"" transform=\""translate(0 30)\"" stroke=\""black\"" /><path d=\""M 50 57 L 50 43\"" stroke=\""black\"" transform=\""translate(0 30) rotate(-45 50 50)\""/>"",""<circle cx=\""50\"" cy=\""50\"" r=\""10\"" fill=\""none\"" transform=\""translate(-26 15)\"" stroke=\""red\"" /><path d=\""M 50 57 L 50 43\"" stroke=\""black\"" transform=\""translate(-26 15) rotate(90 50 50)\""/>"",""<circle cx=\""50\"" cy=\""50\"" r=\""10\"" fill=\""none\"" transform=\""translate(-26 -15)\"" stroke=\""magenta\"" /><path d=\""M 50 57 L 50 43\"" stroke=\""black\"" transform=\""translate(-26 -15) rotate(45 50 50)\""/>"",""<circle cx=\""50\"" cy=\""50\"" r=\""10\"" fill=\""none\"" transform=\""translate(0 -30)\"" stroke=\""yellow\"" /><path d=\""M 50 57 L 50 43\"" stroke=\""black\"" transform=\""translate(0 -30) rotate(-45 50 50)\""/>"",""<circle cx=\""50\"" cy=\""50\"" r=\""10\"" fill=\""none\"" transform=\""translate(26 -15)\"" stroke=\""blue\"" /><path d=\""M 50 57 L 50 43\"" stroke=\""black\"" transform=\""translate(26 -15) rotate(-45 50 50)\""/>"",""</svg>""]","null","VDACtrain","r","2","h","null","low","","","",""
"","html-keyboard-response","25","187124","0.0-1.0-2.0-2.5","y95","[""g""]","","null","<p style=""font-size:300%;"">Miss.</p> <p style=""font-size:300%;"">Too slow.</p>","null","","","","","","","","","",""
"","html-keyboard-response","26","188713","0.0-1.0-2.0-0.6","y95","[""g""]","","null","<svg viewBox=""0 0 100 100"" > <path d=""M 50 52 L 50 48"" stroke=""black"" stroke-width="".5""/> <path d=""M 52 50 L 48 50"" stroke=""black"" stroke-width="".5""/>","null","","","","","","","","","",""
"","html-keyboard-response","27","189717","0.0-1.0-2.0-1.6","y95","[""g""]","","null","[""<svg viewBox=\""0 0 100 100\"" >"",""<text font-size=\""10%\"" text-anchor=\""middle\""  x=\""50\"" y=\""98\"">Press z for horizontal or m for vertical</text>"",""<path d=\""M 50 52 L 50 48\"" stroke=\""black\"" stroke-width=\"".5\""/> <path d=\""M 52 50 L 48 50\"" stroke=\""black\"" stroke-width=\"".5\""/>"",""<circle cx=\""50\"" cy=\""50\"" r=\""10\"" fill=\""none\"" transform=\""translate(26 15)\"" stroke=\""lime\"" /><path d=\""M 50 57 L 50 43\"" stroke=\""black\"" transform=\""translate(26 15) rotate(0 50 50)\""/>"",""<circle cx=\""50\"" cy=\""50\"" r=\""10\"" fill=\""none\"" transform=\""translate(0 30)\"" stroke=\""blue\"" /><path d=\""M 50 57 L 50 43\"" stroke=\""black\"" transform=\""translate(0 30) rotate(45 50 50)\""/>"",""<circle cx=\""50\"" cy=\""50\"" r=\""10\"" fill=\""none\"" transform=\""translate(-26 15)\"" stroke=\""magenta\"" /><path d=\""M 50 57 L 50 43\"" stroke=\""black\"" transform=\""translate(-26 15) rotate(-45 50 50)\""/>"",""<circle cx=\""50\"" cy=\""50\"" r=\""10\"" fill=\""none\"" transform=\""translate(-26 -15)\"" stroke=\""yellow\"" /><path d=\""M 50 57 L 50 43\"" stroke=\""black\"" transform=\""translate(-26 -15) rotate(45 50 50)\""/>"",""<circle cx=\""50\"" cy=\""50\"" r=\""10\"" fill=\""none\"" transform=\""translate(0 -30)\"" stroke=\""cyan\"" /><path d=\""M 50 57 L 50 43\"" stroke=\""black\"" transform=\""translate(0 -30) rotate(45 50 50)\""/>"",""<circle cx=\""50\"" cy=\""50\"" r=\""10\"" fill=\""none\"" transform=\""translate(26 -15)\"" stroke=\""black\"" /><path d=\""M 50 57 L 50 43\"" stroke=\""black\"" transform=\""translate(26 -15) rotate(-45 50 50)\""/>"",""</svg>""]","null","VDACtrain","g","0","v","null","high","","","",""
"","html-keyboard-response","28","192220","0.0-1.0-2.0-2.6","y95","[""g""]","","null","<p style=""font-size:300%;"">Miss.</p> <p style=""font-size:300%;"">Too slow.</p>","null","","","","","","","","","",""
"","html-keyboard-response","29","193808","0.0-1.0-2.0-0.7","y95","[""g""]","","null","<svg viewBox=""0 0 100 100"" > <path d=""M 50 52 L 50 48"" stroke=""black"" stroke-width="".5""/> <path d=""M 52 50 L 48 50"" stroke=""black"" stroke-width="".5""/>","null","","","","","","","","","",""
"","html-keyboard-response","30","194359","0.0-1.0-2.0-1.7","y95","[""g""]","","546.6000000238419","[""<svg viewBox=\""0 0 100 100\"" >"",""<text font-size=\""10%\"" text-anchor=\""middle\""  x=\""50\"" y=\""98\"">Press z for horizontal or m for vertical</text>"",""<path d=\""M 50 52 L 50 48\"" stroke=\""black\"" stroke-width=\"".5\""/> <path d=\""M 52 50 L 48 50\"" stroke=\""black\"" stroke-width=\"".5\""/>"",""<circle cx=\""50\"" cy=\""50\"" r=\""10\"" fill=\""none\"" transform=\""translate(26 15)\"" stroke=\""cyan\"" /><path d=\""M 50 57 L 50 43\"" stroke=\""black\"" transform=\""translate(26 15) rotate(-45 50 50)\""/>"",""<circle cx=\""50\"" cy=\""50\"" r=\""10\"" fill=\""none\"" transform=\""translate(0 30)\"" stroke=\""blue\"" /><path d=\""M 50 57 L 50 43\"" stroke=\""black\"" transform=\""translate(0 30) rotate(45 50 50)\""/>"",""<circle cx=\""50\"" cy=\""50\"" r=\""10\"" fill=\""none\"" transform=\""translate(-26 15)\"" stroke=\""yellow\"" /><path d=\""M 50 57 L 50 43\"" stroke=\""black\"" transform=\""translate(-26 15) rotate(45 50 50)\""/>"",""<circle cx=\""50\"" cy=\""50\"" r=\""10\"" fill=\""none\"" transform=\""translate(-26 -15)\"" stroke=\""magenta\"" /><path d=\""M 50 57 L 50 43\"" stroke=\""black\"" transform=\""translate(-26 -15) rotate(-45 50 50)\""/>"",""<circle cx=\""50\"" cy=\""50\"" r=\""10\"" fill=\""none\"" transform=\""translate(0 -30)\"" stroke=\""black\"" /><path d=\""M 50 57 L 50 43\"" stroke=\""black\"" transform=\""translate(0 -30) rotate(-45 50 50)\""/>"",""<circle cx=\""50\"" cy=\""50\"" r=\""10\"" fill=\""none\"" transform=\""translate(26 -15)\"" stroke=\""lime\"" /><path d=\""M 50 57 L 50 43\"" stroke=\""black\"" transform=\""translate(26 -15) rotate(90 50 50)\""/>"",""</svg>""]","z","VDACtrain","g","5","h","true","high","","","",""
"","html-keyboard-response","31","196861","0.0-1.0-2.0-2.7","y95","[""g""]","","null","<p style=""font-size:300%;"">Correct!</p>","null","","","","","","","","","",""
"","html-keyboard-response","32","198449","0.0-1.0-2.0-0.8","y95","[""g""]","","null","<svg viewBox=""0 0 100 100"" > <path d=""M 50 52 L 50 48"" stroke=""black"" stroke-width="".5""/> <path d=""M 52 50 L 48 50"" stroke=""black"" stroke-width="".5""/>","null","","","","","","","","","",""
"","html-keyboard-response","33","199150","0.0-1.0-2.0-1.8","y95","[""g""]","","697.8999999761581","[""<svg viewBox=\""0 0 100 100\"" >"",""<text font-size=\""10%\"" text-anchor=\""middle\""  x=\""50\"" y=\""98\"">Press z for horizontal or m for vertical</text>"",""<path d=\""M 50 52 L 50 48\"" stroke=\""black\"" stroke-width=\"".5\""/> <path d=\""M 52 50 L 48 50\"" stroke=\""black\"" stroke-width=\"".5\""/>"",""<circle cx=\""50\"" cy=\""50\"" r=\""10\"" fill=\""none\"" transform=\""translate(26 15)\"" stroke=\""blue\"" /><path d=\""M 50 57 L 50 43\"" stroke=\""black\"" transform=\""translate(26 15) rotate(45 50 50)\""/>"",""<circle cx=\""50\"" cy=\""50\"" r=\""10\"" fill=\""none\"" transform=\""translate(0 30)\"" stroke=\""red\"" /><path d=\""M 50 57 L 50 43\"" stroke=\""black\"" transform=\""translate(0 30) rotate(90 50 50)\""/>"",""<circle cx=\""50\"" cy=\""50\"" r=\""10\"" fill=\""none\"" transform=\""translate(-26 15)\"" stroke=\""yellow\"" /><path d=\""M 50 57 L 50 43\"" stroke=\""black\"" transform=\""translate(-26 15) rotate(45 50 50)\""/>"",""<circle cx=\""50\"" cy=\""50\"" r=\""10\"" fill=\""none\"" transform=\""translate(-26 -15)\"" stroke=\""cyan\"" /><path d=\""M 50 57 L 50 43\"" stroke=\""black\"" transform=\""translate(-26 -15) rotate(-45 50 50)\""/>"",""<circle cx=\""50\"" cy=\""50\"" r=\""10\"" fill=\""none\"" transform=\""translate(0 -30)\"" stroke=\""magenta\"" /><path d=\""M 50 57 L 50 43\"" stroke=\""black\"" transform=\""translate(0 -30) rotate(45 50 50)\""/>"",""<circle cx=\""50\"" cy=\""50\"" r=\""10\"" fill=\""none\"" transform=\""translate(26 -15)\"" stroke=\""black\"" /><path d=\""M 50 57 L 50 43\"" stroke=\""black\"" transform=\""translate(26 -15) rotate(-45 50 50)\""/>"",""</svg>""]","z","VDACtrain","r","1","h","true","low","","","",""
"","html-keyboard-response","34","201652","0.0-1.0-2.0-2.8","y95","[""g""]","","null","<p style=""font-size:300%;"">Correct!</p>","null","","","","","","","","","",""
"","html-keyboard-response","35","203241","0.0-1.0-2.0-0.9","y95","[""g""]","","null","<svg viewBox=""0 0 100 100"" > <path d=""M 50 52 L 50 48"" stroke=""black"" stroke-width="".5""/> <path d=""M 52 50 L 48 50"" stroke=""black"" stroke-width="".5""/>","null","","","","","","","","","",""
"","html-keyboard-response","36","203910","0.0-1.0-2.0-1.9","y95","[""g""]","","666","[""<svg viewBox=\""0 0 100 100\"" >"",""<text font-size=\""10%\"" text-anchor=\""middle\""  x=\""50\"" y=\""98\"">Press z for horizontal or m for vertical</text>"",""<path d=\""M 50 52 L 50 48\"" stroke=\""black\"" stroke-width=\"".5\""/> <path d=\""M 52 50 L 48 50\"" stroke=\""black\"" stroke-width=\"".5\""/>"",""<circle cx=\""50\"" cy=\""50\"" r=\""10\"" fill=\""none\"" transform=\""translate(26 15)\"" stroke=\""cyan\"" /><path d=\""M 50 57 L 50 43\"" stroke=\""black\"" transform=\""translate(26 15) rotate(-45 50 50)\""/>"",""<circle cx=\""50\"" cy=\""50\"" r=\""10\"" fill=\""none\"" transform=\""translate(0 30)\"" stroke=\""blue\"" /><path d=\""M 50 57 L 50 43\"" stroke=\""black\"" transform=\""translate(0 30) rotate(45 50 50)\""/>"",""<circle cx=\""50\"" cy=\""50\"" r=\""10\"" fill=\""none\"" transform=\""translate(-26 15)\"" stroke=\""yellow\"" /><path d=\""M 50 57 L 50 43\"" stroke=\""black\"" transform=\""translate(-26 15) rotate(-45 50 50)\""/>"",""<circle cx=\""50\"" cy=\""50\"" r=\""10\"" fill=\""none\"" transform=\""translate(-26 -15)\"" stroke=\""red\"" /><path d=\""M 50 57 L 50 43\"" stroke=\""black\"" transform=\""translate(-26 -15) rotate(0 50 50)\""/>"",""<circle cx=\""50\"" cy=\""50\"" r=\""10\"" fill=\""none\"" transform=\""translate(0 -30)\"" stroke=\""magenta\"" /><path d=\""M 50 57 L 50 43\"" stroke=\""black\"" transform=\""translate(0 -30) rotate(45 50 50)\""/>"",""<circle cx=\""50\"" cy=\""50\"" r=\""10\"" fill=\""none\"" transform=\""translate(26 -15)\"" stroke=\""black\"" /><path d=\""M 50 57 L 50 43\"" stroke=\""black\"" transform=\""translate(26 -15) rotate(45 50 50)\""/>"",""</svg>""]","m","VDACtrain","r","3","v","true","low","","","",""
"","html-keyboard-response","37","206413","0.0-1.0-2.0-2.9","y95","[""g""]","","null","<p style=""font-size:300%;"">Correct!</p>","null","","","","","","","","","",""
"","html-keyboard-response","38","210839","0.0-1.0-3.0","y95","[""g""]","","3424.099999964237","<p>You have now finished the training exercise. If you would like to repeat the instructions and training exercise, press <b>R</b>.<p>If you are ready to continue to the task, press <b>C</b>.</p>","c","","","","","","","","","",""
"","html-keyboard-response","39","213842","0.0-2.0-0.0","y95","[""g""]","","null","<p>Place your fingers on the <b>z</b> and <b>m</b> keys. The experiment will begin shortly.</p> <p></p>","null","","","","","","","","","",""
"","html-keyboard-response","40","214844","0.0-2.0-1.0","y95","[""g""]","","null","<p>Place your fingers on the <b>z</b> and <b>m</b> keys. </b>The experiment will begin shortly.</p><p>5</p>","null","","","","","","","","","",""
"","html-keyboard-response","41","215846","0.0-2.0-2.0","y95","[""g""]","","null","<p>Place your fingers on the <b>z</b> and <b>m</b> keys. </b>The experiment will begin shortly.</p><p>4</p>","null","","","","","","","","","",""
"","html-keyboard-response","42","216848","0.0-2.0-3.0","y95","[""g""]","","null","<p>Place your fingers on the <b>z</b> and <b>m</b> keys. </b>The experiment will begin shortly.</p><p>3</p>","null","","","","","","","","","",""
"","html-keyboard-response","43","217849","0.0-2.0-4.0","y95","[""g""]","","null","<p>Place your fingers on the <b>z</b> and <b>m</b> keys. </b>The experiment will begin shortly.</p><p>2</p>","null","","","","","","","","","",""
"","html-keyboard-response","44","218851","0.0-2.0-5.0","y95","[""g""]","","null","<p>Place your fingers on the <b>z</b> and <b>m</b> keys. </b>The experiment will begin shortly.</p><p>1</p>","null","","","","","","","","","",""
"","html-keyboard-response","45","219440","0.0-3.0-0.0","y95","[""g""]","","null","<svg viewBox=""0 0 100 100"" > <path d=""M 50 52 L 50 48"" stroke=""black"" stroke-width="".5""/> <path d=""M 52 50 L 48 50"" stroke=""black"" stroke-width="".5""/>","null","","","","","","","","","",""
"","html-keyboard-response","46","220238","0.0-3.0-1.0","y95","[""g""]","","795.1000000238419","[""<svg viewBox=\""0 0 100 100\"" >"",""<path d=\""M 50 52 L 50 48\"" stroke=\""black\"" stroke-width=\"".5\""/>"","" <path d=\""M 52 50 L 48 50\"" stroke=\""black\"" stroke-width=\"".5\""/>"",""<circle cx=\""50\"" cy=\""50\"" r=\""10\"" fill=\""none\"" transform=\""translate(26 15)\"" stroke=\""cyan\"" />"",""<path d=\""M 50 57 L 50 43\"" stroke=\""black\"" transform=\""translate(26 15) rotate(45 50 50)\""/>"",""<circle cx=\""50\"" cy=\""50\"" r=\""10\"" fill=\""none\"" transform=\""translate(0 30)\"" stroke=\""yellow\"" />"",""<path d=\""M 50 57 L 50 43\"" stroke=\""black\"" transform=\""translate(0 30) rotate(-45 50 50)\""/>"",""<circle cx=\""50\"" cy=\""50\"" r=\""10\"" fill=\""none\"" transform=\""translate(-26 15)\"" stroke=\""black\"" />"",""<path d=\""M 50 57 L 50 43\"" stroke=\""black\"" transform=\""translate(-26 15) rotate(-45 50 50)\""/>"",""<circle cx=\""50\"" cy=\""50\"" r=\""10\"" fill=\""none\"" transform=\""translate(-26 -15)\"" stroke=\""magenta\"" />"",""<path d=\""M 50 57 L 50 43\"" stroke=\""black\"" transform=\""translate(-26 -15) rotate(45 50 50)\""/>"",""<circle cx=\""50\"" cy=\""50\"" r=\""10\"" fill=\""none\"" transform=\""translate(0 -30)\"" stroke=\""red\"" />"",""<path d=\""M 50 57 L 50 43\"" stroke=\""black\"" transform=\""translate(0 -30) rotate(90 50 50)\""/>"",""<circle cx=\""50\"" cy=\""50\"" r=\""10\"" fill=\""none\"" transform=\""translate(26 -15)\"" stroke=\""blue\"" />"",""<path d=\""M 50 57 L 50 43\"" stroke=\""black\"" transform=\""translate(26 -15) rotate(45 50 50)\""/>"",""</svg>""]","z","VDACtest","r","4","h","true","low","","","",""
"","html-keyboard-response","47","222741","0.0-3.0-2.0","y95","[""g""]","","null","<p style=""font-size:300%;""> + 10 points.</p><p style=""font-size:300%"">Total: 10 points.</p>","null","","","","","","","10","","",""
"","html-keyboard-response","48","224330","0.0-3.0-0.1","y95","[""g""]","","null","<svg viewBox=""0 0 100 100"" > <path d=""M 50 52 L 50 48"" stroke=""black"" stroke-width="".5""/> <path d=""M 52 50 L 48 50"" stroke=""black"" stroke-width="".5""/>","null","","","","","","","","","",""
"","html-keyboard-response","49","224775","0.0-3.0-1.1","y95","[""g""]","","442","[""<svg viewBox=\""0 0 100 100\"" >"",""<path d=\""M 50 52 L 50 48\"" stroke=\""black\"" stroke-width=\"".5\""/>"","" <path d=\""M 52 50 L 48 50\"" stroke=\""black\"" stroke-width=\"".5\""/>"",""<circle cx=\""50\"" cy=\""50\"" r=\""10\"" fill=\""none\"" transform=\""translate(26 15)\"" stroke=\""black\"" />"",""<path d=\""M 50 57 L 50 43\"" stroke=\""black\"" transform=\""translate(26 15) rotate(45 50 50)\""/>"",""<circle cx=\""50\"" cy=\""50\"" r=\""10\"" fill=\""none\"" transform=\""translate(0 30)\"" stroke=\""cyan\"" />"",""<path d=\""M 50 57 L 50 43\"" stroke=\""black\"" transform=\""translate(0 30) rotate(-45 50 50)\""/>"",""<circle cx=\""50\"" cy=\""50\"" r=\""10\"" fill=\""none\"" transform=\""translate(-26 15)\"" stroke=\""blue\"" />"",""<path d=\""M 50 57 L 50 43\"" stroke=\""black\"" transform=\""translate(-26 15) rotate(-45 50 50)\""/>"",""<circle cx=\""50\"" cy=\""50\"" r=\""10\"" fill=\""none\"" transform=\""translate(-26 -15)\"" stroke=\""magenta\"" />"",""<path d=\""M 50 57 L 50 43\"" stroke=\""black\"" transform=\""translate(-26 -15) rotate(-45 50 50)\""/>"",""<circle cx=\""50\"" cy=\""50\"" r=\""10\"" fill=\""none\"" transform=\""translate(0 -30)\"" stroke=\""yellow\"" />"",""<path d=\""M 50 57 L 50 43\"" stroke=\""black\"" transform=\""translate(0 -30) rotate(45 50 50)\""/>"",""<circle cx=\""50\"" cy=\""50\"" r=\""10\"" fill=\""none\"" transform=\""translate(26 -15)\"" stroke=\""red\"" />"",""<path d=\""M 50 57 L 50 43\"" stroke=\""black\"" transform=\""translate(26 -15) rotate(90 50 50)\""/>"",""</svg>""]","z","VDACtest","r","5","h","true","low","","","",""
"","html-keyboard-response","50","227279","0.0-3.0-2.1","y95","[""g""]","","null","<p style=""font-size:300%;""> + 2 points.</p><p style=""font-size:300%"">Total: 12 points.</p>","null","","","","","","","12","","",""
"","html-keyboard-response","51","228868","0.0-3.0-0.2","y95","[""g""]","","null","<svg viewBox=""0 0 100 100"" > <path d=""M 50 52 L 50 48"" stroke=""black"" stroke-width="".5""/> <path d=""M 52 50 L 48 50"" stroke=""black"" stroke-width="".5""/>","null","","","","","","","","","",""
"","html-keyboard-response","52","229390","0.0-3.0-1.2","y95","[""g""]","","518.8000000119209","[""<svg viewBox=\""0 0 100 100\"" >"",""<path d=\""M 50 52 L 50 48\"" stroke=\""black\"" stroke-width=\"".5\""/>"","" <path d=\""M 52 50 L 48 50\"" stroke=\""black\"" stroke-width=\"".5\""/>"",""<circle cx=\""50\"" cy=\""50\"" r=\""10\"" fill=\""none\"" transform=\""translate(26 15)\"" stroke=\""blue\"" />"",""<path d=\""M 50 57 L 50 43\"" stroke=\""black\"" transform=\""translate(26 15) rotate(45 50 50)\""/>"",""<circle cx=\""50\"" cy=\""50\"" r=\""10\"" fill=\""none\"" transform=\""translate(0 30)\"" stroke=\""black\"" />"",""<path d=\""M 50 57 L 50 43\"" stroke=\""black\"" transform=\""translate(0 30) rotate(-45 50 50)\""/>"",""<circle cx=\""50\"" cy=\""50\"" r=\""10\"" fill=\""none\"" transform=\""translate(-26 15)\"" stroke=\""lime\"" />"",""<path d=\""M 50 57 L 50 43\"" stroke=\""black\"" transform=\""translate(-26 15) rotate(0 50 50)\""/>"",""<circle cx=\""50\"" cy=\""50\"" r=\""10\"" fill=\""none\"" transform=\""translate(-26 -15)\"" stroke=\""magenta\"" />"",""<path d=\""M 50 57 L 50 43\"" stroke=\""black\"" transform=\""translate(-26 -15) rotate(45 50 50)\""/>"",""<circle cx=\""50\"" cy=\""50\"" r=\""10\"" fill=\""none\"" transform=\""translate(0 -30)\"" stroke=\""yellow\"" />"",""<path d=\""M 50 57 L 50 43\"" stroke=\""black\"" transform=\""translate(0 -30) rotate(45 50 50)\""/>"",""<circle cx=\""50\"" cy=\""50\"" r=\""10\"" fill=\""none\"" transform=\""translate(26 -15)\"" stroke=\""cyan\"" />"",""<path d=\""M 50 57 L 50 43\"" stroke=\""black\"" transform=\""translate(26 -15) rotate(-45 50 50)\""/>"",""</svg>""]","m","VDACtest","g","2","v","true","high","","","",""
"","html-keyboard-response","53","231893","0.0-3.0-2.2","y95","[""g""]","","null","<p style=""font-size:300%;""> + 2 points.</p><p style=""font-size:300%"">Total: 14 points.</p>","null","","","","","","","14","","",""
"","html-keyboard-response","54","233482","0.0-3.0-0.3","y95","[""g""]","","null","<svg viewBox=""0 0 100 100"" > <path d=""M 50 52 L 50 48"" stroke=""black"" stroke-width="".5""/> <path d=""M 52 50 L 48 50"" stroke=""black"" stroke-width="".5""/>","null","","","","","","","","","",""
"","html-keyboard-response","55","234022","0.0-3.0-1.3","y95","[""g""]","","537.1000000238419","[""<svg viewBox=\""0 0 100 100\"" >"",""<path d=\""M 50 52 L 50 48\"" stroke=\""black\"" stroke-width=\"".5\""/>"","" <path d=\""M 52 50 L 48 50\"" stroke=\""black\"" stroke-width=\"".5\""/>"",""<circle cx=\""50\"" cy=\""50\"" r=\""10\"" fill=\""none\"" transform=\""translate(26 15)\"" stroke=\""cyan\"" />"",""<path d=\""M 50 57 L 50 43\"" stroke=\""black\"" transform=\""translate(26 15) rotate(45 50 50)\""/>"",""<circle cx=\""50\"" cy=\""50\"" r=\""10\"" fill=\""none\"" transform=\""translate(0 30)\"" stroke=\""magenta\"" />"",""<path d=\""M 50 57 L 50 43\"" stroke=\""black\"" transform=\""translate(0 30) rotate(-45 50 50)\""/>"",""<circle cx=\""50\"" cy=\""50\"" r=\""10\"" fill=\""none\"" transform=\""translate(-26 15)\"" stroke=\""yellow\"" />"",""<path d=\""M 50 57 L 50 43\"" stroke=\""black\"" transform=\""translate(-26 15) rotate(-45 50 50)\""/>"",""<circle cx=\""50\"" cy=\""50\"" r=\""10\"" fill=\""none\"" transform=\""translate(-26 -15)\"" stroke=\""lime\"" />"",""<path d=\""M 50 57 L 50 43\"" stroke=\""black\"" transform=\""translate(-26 -15) rotate(0 50 50)\""/>"",""<circle cx=\""50\"" cy=\""50\"" r=\""10\"" fill=\""none\"" transform=\""translate(0 -30)\"" stroke=\""blue\"" />"",""<path d=\""M 50 57 L 50 43\"" stroke=\""black\"" transform=\""translate(0 -30) rotate(45 50 50)\""/>"",""<circle cx=\""50\"" cy=\""50\"" r=\""10\"" fill=\""none\"" transform=\""translate(26 -15)\"" stroke=\""black\"" />"",""<path d=\""M 50 57 L 50 43\"" stroke=\""black\"" transform=\""translate(26 -15) rotate(-45 50 50)\""/>"",""</svg>""]","m","VDACtest","g","3","v","true","high","","","",""
"","html-keyboard-response","56","236525","0.0-3.0-2.3","y95","[""g""]","","null","<p style=""font-size:300%;""> + 10 points.</p><p style=""font-size:300%"">Total: 24 points.</p>","null","","","","","","","24","","",""
"","html-keyboard-response","57","238114","0.0-3.0-0.4","y95","[""g""]","","null","<svg viewBox=""0 0 100 100"" > <path d=""M 50 52 L 50 48"" stroke=""black"" stroke-width="".5""/> <path d=""M 52 50 L 48 50"" stroke=""black"" stroke-width="".5""/>","null","","","","","","","","","",""
"","html-keyboard-response","58","238582","0.0-3.0-1.4","y95","[""g""]","","465.10000002384186","[""<svg viewBox=\""0 0 100 100\"" >"",""<path d=\""M 50 52 L 50 48\"" stroke=\""black\"" stroke-width=\"".5\""/>"","" <path d=\""M 52 50 L 48 50\"" stroke=\""black\"" stroke-width=\"".5\""/>"",""<circle cx=\""50\"" cy=\""50\"" r=\""10\"" fill=\""none\"" transform=\""translate(26 15)\"" stroke=\""red\"" />"",""<path d=\""M 50 57 L 50 43\"" stroke=\""black\"" transform=\""translate(26 15) rotate(90 50 50)\""/>"",""<circle cx=\""50\"" cy=\""50\"" r=\""10\"" fill=\""none\"" transform=\""translate(0 30)\"" stroke=\""black\"" />"",""<path d=\""M 50 57 L 50 43\"" stroke=\""black\"" transform=\""translate(0 30) rotate(45 50 50)\""/>"",""<circle cx=\""50\"" cy=\""50\"" r=\""10\"" fill=\""none\"" transform=\""translate(-26 15)\"" stroke=\""blue\"" />"",""<path d=\""M 50 57 L 50 43\"" stroke=\""black\"" transform=\""translate(-26 15) rotate(-45 50 50)\""/>"",""<circle cx=\""50\"" cy=\""50\"" r=\""10\"" fill=\""none\"" transform=\""translate(-26 -15)\"" stroke=\""cyan\"" />"",""<path d=\""M 50 57 L 50 43\"" stroke=\""black\"" transform=\""translate(-26 -15) rotate(45 50 50)\""/>"",""<circle cx=\""50\"" cy=\""50\"" r=\""10\"" fill=\""none\"" transform=\""translate(0 -30)\"" stroke=\""yellow\"" />"",""<path d=\""M 50 57 L 50 43\"" stroke=\""black\"" transform=\""translate(0 -30) rotate(-45 50 50)\""/>"",""<circle cx=\""50\"" cy=\""50\"" r=\""10\"" fill=\""none\"" transform=\""translate(26 -15)\"" stroke=\""magenta\"" />"",""<path d=\""M 50 57 L 50 43\"" stroke=\""black\"" transform=\""translate(26 -15) rotate(-45 50 50)\""/>"",""</svg>""]","z","VDACtest","r","0","h","true","low","","","",""
"","html-keyboard-response","59","241086","0.0-3.0-2.4","y95","[""g""]","","null","<p style=""font-size:300%;""> + 2 points.</p><p style=""font-size:300%"">Total: 26 points.</p>","null","","","","","","","26","","",""
"","html-keyboard-response","60","242676","0.0-3.0-0.5","y95","[""g""]","","null","<svg viewBox=""0 0 100 100"" > <path d=""M 50 52 L 50 48"" stroke=""black"" stroke-width="".5""/> <path d=""M 52 50 L 48 50"" stroke=""black"" stroke-width="".5""/>","null","","","","","","","","","",""
"","html-keyboard-response","61","243142","0.0-3.0-1.5","y95","[""g""]","","463.2999999523163","[""<svg viewBox=\""0 0 100 100\"" >"",""<path d=\""M 50 52 L 50 48\"" stroke=\""black\"" stroke-width=\"".5\""/>"","" <path d=\""M 52 50 L 48 50\"" stroke=\""black\"" stroke-width=\"".5\""/>"",""<circle cx=\""50\"" cy=\""50\"" r=\""10\"" fill=\""none\"" transform=\""translate(26 15)\"" stroke=\""yellow\"" />"",""<path d=\""M 50 57 L 50 43\"" stroke=\""black\"" transform=\""translate(26 15) rotate(-45 50 50)\""/>"",""<circle cx=\""50\"" cy=\""50\"" r=\""10\"" fill=\""none\"" transform=\""translate(0 30)\"" stroke=\""blue\"" />"",""<path d=\""M 50 57 L 50 43\"" stroke=\""black\"" transform=\""translate(0 30) rotate(45 50 50)\""/>"",""<circle cx=\""50\"" cy=\""50\"" r=\""10\"" fill=\""none\"" transform=\""translate(-26 15)\"" stroke=\""black\"" />"",""<path d=\""M 50 57 L 50 43\"" stroke=\""black\"" transform=\""translate(-26 15) rotate(45 50 50)\""/>"",""<circle cx=\""50\"" cy=\""50\"" r=\""10\"" fill=\""none\"" transform=\""translate(-26 -15)\"" stroke=\""magenta\"" />"",""<path d=\""M 50 57 L 50 43\"" stroke=\""black\"" transform=\""translate(-26 -15) rotate(45 50 50)\""/>"",""<circle cx=\""50\"" cy=\""50\"" r=\""10\"" fill=\""none\"" transform=\""translate(0 -30)\"" stroke=\""lime\"" />"",""<path d=\""M 50 57 L 50 43\"" stroke=\""black\"" transform=\""translate(0 -30) rotate(90 50 50)\""/>"",""<circle cx=\""50\"" cy=\""50\"" r=\""10\"" fill=\""none\"" transform=\""translate(26 -15)\"" stroke=\""cyan\"" />"",""<path d=\""M 50 57 L 50 43\"" stroke=\""black\"" transform=\""translate(26 -15) rotate(-45 50 50)\""/>"",""</svg>""]","m","VDACtest","g","4","h","false","high","","","",""
"","html-keyboard-response","62","245644","0.0-3.0-2.5","y95","[""g""]","","null","<p style=""font-size:300%;"">Miss.</p><p style=""font-size:300%"">Total: 26 points.</p>","null","","","","","","","26","","",""
"","html-keyboard-response","63","247233","0.0-3.0-0.6","y95","[""g""]","","null","<svg viewBox=""0 0 100 100"" > <path d=""M 50 52 L 50 48"" stroke=""black"" stroke-width="".5""/> <path d=""M 52 50 L 48 50"" stroke=""black"" stroke-width="".5""/>","null","","","","","","","","","",""
"","html-keyboard-response","64","247950","0.0-3.0-1.6","y95","[""g""]","","714.8999999761581","[""<svg viewBox=\""0 0 100 100\"" >"",""<path d=\""M 50 52 L 50 48\"" stroke=\""black\"" stroke-width=\"".5\""/>"","" <path d=\""M 52 50 L 48 50\"" stroke=\""black\"" stroke-width=\"".5\""/>"",""<circle cx=\""50\"" cy=\""50\"" r=\""10\"" fill=\""none\"" transform=\""translate(26 15)\"" stroke=\""cyan\"" />"",""<path d=\""M 50 57 L 50 43\"" stroke=\""black\"" transform=\""translate(26 15) rotate(-45 50 50)\""/>"",""<circle cx=\""50\"" cy=\""50\"" r=\""10\"" fill=\""none\"" transform=\""translate(0 30)\"" stroke=\""blue\"" />"",""<path d=\""M 50 57 L 50 43\"" stroke=\""black\"" transform=\""translate(0 30) rotate(45 50 50)\""/>"",""<circle cx=\""50\"" cy=\""50\"" r=\""10\"" fill=\""none\"" transform=\""translate(-26 15)\"" stroke=\""yellow\"" />"",""<path d=\""M 50 57 L 50 43\"" stroke=\""black\"" transform=\""translate(-26 15) rotate(-45 50 50)\""/>"",""<circle cx=\""50\"" cy=\""50\"" r=\""10\"" fill=\""none\"" transform=\""translate(-26 -15)\"" stroke=\""black\"" />"",""<path d=\""M 50 57 L 50 43\"" stroke=\""black\"" transform=\""translate(-26 -15) rotate(-45 50 50)\""/>"",""<circle cx=\""50\"" cy=\""50\"" r=\""10\"" fill=\""none\"" transform=\""translate(0 -30)\"" stroke=\""magenta\"" />"",""<path d=\""M 50 57 L 50 43\"" stroke=\""black\"" transform=\""translate(0 -30) rotate(45 50 50)\""/>"",""<circle cx=\""50\"" cy=\""50\"" r=\""10\"" fill=\""none\"" transform=\""translate(26 -15)\"" stroke=\""red\"" />"",""<path d=\""M 50 57 L 50 43\"" stroke=\""black\"" transform=\""translate(26 -15) rotate(90 50 50)\""/>"",""</svg>""]","z","VDACtest","r","5","h","true","low","","","",""
"","html-keyboard-response","65","250452","0.0-3.0-2.6","y95","[""g""]","","null","<p style=""font-size:300%;""> + 2 points.</p><p style=""font-size:300%"">Total: 28 points.</p>","null","","","","","","","28","","",""
"","html-keyboard-response","66","252042","0.0-3.0-0.7","y95","[""g""]","","null","<svg viewBox=""0 0 100 100"" > <path d=""M 50 52 L 50 48"" stroke=""black"" stroke-width="".5""/> <path d=""M 52 50 L 48 50"" stroke=""black"" stroke-width="".5""/>","null","","","","","","","","","",""
"","html-keyboard-response","67","252575","0.0-3.0-1.7","y95","[""g""]","","528.5","[""<svg viewBox=\""0 0 100 100\"" >"",""<path d=\""M 50 52 L 50 48\"" stroke=\""black\"" stroke-width=\"".5\""/>"","" <path d=\""M 52 50 L 48 50\"" stroke=\""black\"" stroke-width=\"".5\""/>"",""<circle cx=\""50\"" cy=\""50\"" r=\""10\"" fill=\""none\"" transform=\""translate(26 15)\"" stroke=\""blue\"" />"",""<path d=\""M 50 57 L 50 43\"" stroke=\""black\"" transform=\""translate(26 15) rotate(45 50 50)\""/>"",""<circle cx=\""50\"" cy=\""50\"" r=\""10\"" fill=\""none\"" transform=\""translate(0 30)\"" stroke=\""magenta\"" />"",""<path d=\""M 50 57 L 50 43\"" stroke=\""black\"" transform=\""translate(0 30) rotate(45 50 50)\""/>"",""<circle cx=\""50\"" cy=\""50\"" r=\""10\"" fill=\""none\"" transform=\""translate(-26 15)\"" stroke=\""black\"" />"",""<path d=\""M 50 57 L 50 43\"" stroke=\""black\"" transform=\""translate(-26 15) rotate(-45 50 50)\""/>"",""<circle cx=\""50\"" cy=\""50\"" r=\""10\"" fill=\""none\"" transform=\""translate(-26 -15)\"" stroke=\""yellow\"" />"",""<path d=\""M 50 57 L 50 43\"" stroke=\""black\"" transform=\""translate(-26 -15) rotate(-45 50 50)\""/>"",""<circle cx=\""50\"" cy=\""50\"" r=\""10\"" fill=\""none\"" transform=\""translate(0 -30)\"" stroke=\""cyan\"" />"",""<path d=\""M 50 57 L 50 43\"" stroke=\""black\"" transform=\""translate(0 -30) rotate(-45 50 50)\""/>"",""<circle cx=\""50\"" cy=\""50\"" r=\""10\"" fill=\""none\"" transform=\""translate(26 -15)\"" stroke=\""lime\"" />"",""<path d=\""M 50 57 L 50 43\"" stroke=\""black\"" transform=\""translate(26 -15) rotate(90 50 50)\""/>"",""</svg>""]","z","VDACtest","g","5","h","true","high","","","",""
"","html-keyboard-response","68","255078","0.0-3.0-2.7","y95","[""g""]","","null","<p style=""font-size:300%;""> + 10 points.</p><p style=""font-size:300%"">Total: 38 points.</p>","null","","","","","","","38","","",""
"","html-keyboard-response","69","256668","0.0-3.0-0.8","y95","[""g""]","","null","<svg viewBox=""0 0 100 100"" > <path d=""M 50 52 L 50 48"" stroke=""black"" stroke-width="".5""/> <path d=""M 52 50 L 48 50"" stroke=""black"" stroke-width="".5""/>","null","","","","","","","","","",""
"","html-keyboard-response","70","257231","0.0-3.0-1.8","y95","[""g""]","","556.6000000238419","[""<svg viewBox=\""0 0 100 100\"" >"",""<path d=\""M 50 52 L 50 48\"" stroke=\""black\"" stroke-width=\"".5\""/>"","" <path d=\""M 52 50 L 48 50\"" stroke=\""black\"" stroke-width=\"".5\""/>"",""<circle cx=\""50\"" cy=\""50\"" r=\""10\"" fill=\""none\"" transform=\""translate(26 15)\"" stroke=\""yellow\"" />"",""<path d=\""M 50 57 L 50 43\"" stroke=\""black\"" transform=\""translate(26 15) rotate(45 50 50)\""/>"",""<circle cx=\""50\"" cy=\""50\"" r=\""10\"" fill=\""none\"" transform=\""translate(0 30)\"" stroke=\""magenta\"" />"",""<path d=\""M 50 57 L 50 43\"" stroke=\""black\"" transform=\""translate(0 30) rotate(-45 50 50)\""/>"",""<circle cx=\""50\"" cy=\""50\"" r=\""10\"" fill=\""none\"" transform=\""translate(-26 15)\"" stroke=\""black\"" />"",""<path d=\""M 50 57 L 50 43\"" stroke=\""black\"" transform=\""translate(-26 15) rotate(-45 50 50)\""/>"",""<circle cx=\""50\"" cy=\""50\"" r=\""10\"" fill=\""none\"" transform=\""translate(-26 -15)\"" stroke=\""cyan\"" />"",""<path d=\""M 50 57 L 50 43\"" stroke=\""black\"" transform=\""translate(-26 -15) rotate(45 50 50)\""/>"",""<circle cx=\""50\"" cy=\""50\"" r=\""10\"" fill=\""none\"" transform=\""translate(0 -30)\"" stroke=\""lime\"" />"",""<path d=\""M 50 57 L 50 43\"" stroke=\""black\"" transform=\""translate(0 -30) rotate(0 50 50)\""/>"",""<circle cx=\""50\"" cy=\""50\"" r=\""10\"" fill=\""none\"" transform=\""translate(26 -15)\"" stroke=\""blue\"" />"",""<path d=\""M 50 57 L 50 43\"" stroke=\""black\"" transform=\""translate(26 -15) rotate(-45 50 50)\""/>"",""</svg>""]","m","VDACtest","g","4","v","true","high","","","",""
"","html-keyboard-response","71","259732","0.0-3.0-2.8","y95","[""g""]","","null","<p style=""font-size:300%;""> + 10 points.</p><p style=""font-size:300%"">Total: 48 points.</p>","null","","","","","","","48","","",""
"","html-keyboard-response","72","261320","0.0-3.0-0.9","y95","[""g""]","","null","<svg viewBox=""0 0 100 100"" > <path d=""M 50 52 L 50 48"" stroke=""black"" stroke-width="".5""/> <path d=""M 52 50 L 48 50"" stroke=""black"" stroke-width="".5""/>","null","","","","","","","","","",""
"","html-keyboard-response","73","261894","0.0-3.0-1.9","y95","[""g""]","","571.1000000238419","[""<svg viewBox=\""0 0 100 100\"" >"",""<path d=\""M 50 52 L 50 48\"" stroke=\""black\"" stroke-width=\"".5\""/>"","" <path d=\""M 52 50 L 48 50\"" stroke=\""black\"" stroke-width=\"".5\""/>"",""<circle cx=\""50\"" cy=\""50\"" r=\""10\"" fill=\""none\"" transform=\""translate(26 15)\"" stroke=\""yellow\"" />"",""<path d=\""M 50 57 L 50 43\"" stroke=\""black\"" transform=\""translate(26 15) rotate(45 50 50)\""/>"",""<circle cx=\""50\"" cy=\""50\"" r=\""10\"" fill=\""none\"" transform=\""translate(0 30)\"" stroke=\""black\"" />"",""<path d=\""M 50 57 L 50 43\"" stroke=\""black\"" transform=\""translate(0 30) rotate(45 50 50)\""/>"",""<circle cx=\""50\"" cy=\""50\"" r=\""10\"" fill=\""none\"" transform=\""translate(-26 15)\"" stroke=\""magenta\"" />"",""<path d=\""M 50 57 L 50 43\"" stroke=\""black\"" transform=\""translate(-26 15) rotate(-45 50 50)\""/>"",""<circle cx=\""50\"" cy=\""50\"" r=\""10\"" fill=\""none\"" transform=\""translate(-26 -15)\"" stroke=\""cyan\"" />"",""<path d=\""M 50 57 L 50 43\"" stroke=\""black\"" transform=\""translate(-26 -15) rotate(45 50 50)\""/>"",""<circle cx=\""50\"" cy=\""50\"" r=\""10\"" fill=\""none\"" transform=\""translate(0 -30)\"" stroke=\""red\"" />"",""<path d=\""M 50 57 L 50 43\"" stroke=\""black\"" transform=\""translate(0 -30) rotate(0 50 50)\""/>"",""<circle cx=\""50\"" cy=\""50\"" r=\""10\"" fill=\""none\"" transform=\""translate(26 -15)\"" stroke=\""blue\"" />"",""<path d=\""M 50 57 L 50 43\"" stroke=\""black\"" transform=\""translate(26 -15) rotate(45 50 50)\""/>"",""</svg>""]","m","VDACtest","r","4","v","true","low","","","",""
"","html-keyboard-response","74","264398","0.0-3.0-2.9","y95","[""g""]","","null","<p style=""font-size:300%;""> + 2 points.</p><p style=""font-size:300%"">Total: 50 points.</p>","null","","","","","","","50","","",""
"","html-keyboard-response","75","265988","0.0-3.0-0.10","y95","[""g""]","","null","<svg viewBox=""0 0 100 100"" > <path d=""M 50 52 L 50 48"" stroke=""black"" stroke-width="".5""/> <path d=""M 52 50 L 48 50"" stroke=""black"" stroke-width="".5""/>","null","","","","","","","","","",""
"","html-keyboard-response","76","266655","0.0-3.0-1.10","y95","[""g""]","","663.3000000119209","[""<svg viewBox=\""0 0 100 100\"" >"",""<path d=\""M 50 52 L 50 48\"" stroke=\""black\"" stroke-width=\"".5\""/>"","" <path d=\""M 52 50 L 48 50\"" stroke=\""black\"" stroke-width=\"".5\""/>"",""<circle cx=\""50\"" cy=\""50\"" r=\""10\"" fill=\""none\"" transform=\""translate(26 15)\"" stroke=\""lime\"" />"",""<path d=\""M 50 57 L 50 43\"" stroke=\""black\"" transform=\""translate(26 15) rotate(0 50 50)\""/>"",""<circle cx=\""50\"" cy=\""50\"" r=\""10\"" fill=\""none\"" transform=\""translate(0 30)\"" stroke=\""blue\"" />"",""<path d=\""M 50 57 L 50 43\"" stroke=\""black\"" transform=\""translate(0 30) rotate(45 50 50)\""/>"",""<circle cx=\""50\"" cy=\""50\"" r=\""10\"" fill=\""none\"" transform=\""translate(-26 15)\"" stroke=\""yellow\"" />"",""<path d=\""M 50 57 L 50 43\"" stroke=\""black\"" transform=\""translate(-26 15) rotate(45 50 50)\""/>"",""<circle cx=\""50\"" cy=\""50\"" r=\""10\"" fill=\""none\"" transform=\""translate(-26 -15)\"" stroke=\""cyan\"" />"",""<path d=\""M 50 57 L 50 43\"" stroke=\""black\"" transform=\""translate(-26 -15) rotate(-45 50 50)\""/>"",""<circle cx=\""50\"" cy=\""50\"" r=\""10\"" fill=\""none\"" transform=\""translate(0 -30)\"" stroke=\""magenta\"" />"",""<path d=\""M 50 57 L 50 43\"" stroke=\""black\"" transform=\""translate(0 -30) rotate(45 50 50)\""/>"",""<circle cx=\""50\"" cy=\""50\"" r=\""10\"" fill=\""none\"" transform=\""translate(26 -15)\"" stroke=\""black\"" />"",""<path d=\""M 50 57 L 50 43\"" stroke=\""black\"" transform=\""translate(26 -15) rotate(-45 50 50)\""/>"",""</svg>""]","m","VDACtest","g","0","v","true","high","","","",""
"","html-keyboard-response","77","269157","0.0-3.0-2.10","y95","[""g""]","","null","<p style=""font-size:300%;""> + 10 points.</p><p style=""font-size:300%"">Total: 60 points.</p>","null","","","","","","","60","","",""
"","html-keyboard-response","78","270746","0.0-3.0-0.11","y95","[""g""]","","null","<svg viewBox=""0 0 100 100"" > <path d=""M 50 52 L 50 48"" stroke=""black"" stroke-width="".5""/> <path d=""M 52 50 L 48 50"" stroke=""black"" stroke-width="".5""/>","null","","","","","","","","","",""
"","html-keyboard-response","79","271414","0.0-3.0-1.11","y95","[""g""]","","665.1999999880791","[""<svg viewBox=\""0 0 100 100\"" >"",""<path d=\""M 50 52 L 50 48\"" stroke=\""black\"" stroke-width=\"".5\""/>"","" <path d=\""M 52 50 L 48 50\"" stroke=\""black\"" stroke-width=\"".5\""/>"",""<circle cx=\""50\"" cy=\""50\"" r=\""10\"" fill=\""none\"" transform=\""translate(26 15)\"" stroke=\""cyan\"" />"",""<path d=\""M 50 57 L 50 43\"" stroke=\""black\"" transform=\""translate(26 15) rotate(45 50 50)\""/>"",""<circle cx=\""50\"" cy=\""50\"" r=\""10\"" fill=\""none\"" transform=\""translate(0 30)\"" stroke=\""magenta\"" />"",""<path d=\""M 50 57 L 50 43\"" stroke=\""black\"" transform=\""translate(0 30) rotate(45 50 50)\""/>"",""<circle cx=\""50\"" cy=\""50\"" r=\""10\"" fill=\""none\"" transform=\""translate(-26 15)\"" stroke=\""blue\"" />"",""<path d=\""M 50 57 L 50 43\"" stroke=\""black\"" transform=\""translate(-26 15) rotate(45 50 50)\""/>"",""<circle cx=\""50\"" cy=\""50\"" r=\""10\"" fill=\""none\"" transform=\""translate(-26 -15)\"" stroke=\""black\"" />"",""<path d=\""M 50 57 L 50 43\"" stroke=\""black\"" transform=\""translate(-26 -15) rotate(45 50 50)\""/>"",""<circle cx=\""50\"" cy=\""50\"" r=\""10\"" fill=\""none\"" transform=\""translate(0 -30)\"" stroke=\""yellow\"" />"",""<path d=\""M 50 57 L 50 43\"" stroke=\""black\"" transform=\""translate(0 -30) rotate(45 50 50)\""/>"",""<circle cx=\""50\"" cy=\""50\"" r=\""10\"" fill=\""none\"" transform=\""translate(26 -15)\"" stroke=\""lime\"" />"",""<path d=\""M 50 57 L 50 43\"" stroke=\""black\"" transform=\""translate(26 -15) rotate(90 50 50)\""/>"",""</svg>""]","z","VDACtest","g","5","h","true","high","","","",""
"","html-keyboard-response","80","273916","0.0-3.0-2.11","y95","[""g""]","","null","<p style=""font-size:300%;""> + 10 points.</p><p style=""font-size:300%"">Total: 70 points.</p>","null","","","","","","","70","","",""
"","html-keyboard-response","81","275506","0.0-3.0-0.12","y95","[""g""]","","null","<svg viewBox=""0 0 100 100"" > <path d=""M 50 52 L 50 48"" stroke=""black"" stroke-width="".5""/> <path d=""M 52 50 L 48 50"" stroke=""black"" stroke-width="".5""/>","null","","","","","","","","","",""
"","html-keyboard-response","82","276190","0.0-3.0-1.12","y95","[""g""]","","680.7999999523163","[""<svg viewBox=\""0 0 100 100\"" >"",""<path d=\""M 50 52 L 50 48\"" stroke=\""black\"" stroke-width=\"".5\""/>"","" <path d=\""M 52 50 L 48 50\"" stroke=\""black\"" stroke-width=\"".5\""/>"",""<circle cx=\""50\"" cy=\""50\"" r=\""10\"" fill=\""none\"" transform=\""translate(26 15)\"" stroke=\""black\"" />"",""<path d=\""M 50 57 L 50 43\"" stroke=\""black\"" transform=\""translate(26 15) rotate(-45 50 50)\""/>"",""<circle cx=\""50\"" cy=\""50\"" r=\""10\"" fill=\""none\"" transform=\""translate(0 30)\"" stroke=\""red\"" />"",""<path d=\""M 50 57 L 50 43\"" stroke=\""black\"" transform=\""translate(0 30) rotate(90 50 50)\""/>"",""<circle cx=\""50\"" cy=\""50\"" r=\""10\"" fill=\""none\"" transform=\""translate(-26 15)\"" stroke=\""magenta\"" />"",""<path d=\""M 50 57 L 50 43\"" stroke=\""black\"" transform=\""translate(-26 15) rotate(-45 50 50)\""/>"",""<circle cx=\""50\"" cy=\""50\"" r=\""10\"" fill=\""none\"" transform=\""translate(-26 -15)\"" stroke=\""cyan\"" />"",""<path d=\""M 50 57 L 50 43\"" stroke=\""black\"" transform=\""translate(-26 -15) rotate(-45 50 50)\""/>"",""<circle cx=\""50\"" cy=\""50\"" r=\""10\"" fill=\""none\"" transform=\""translate(0 -30)\"" stroke=\""yellow\"" />"",""<path d=\""M 50 57 L 50 43\"" stroke=\""black\"" transform=\""translate(0 -30) rotate(-45 50 50)\""/>"",""<circle cx=\""50\"" cy=\""50\"" r=\""10\"" fill=\""none\"" transform=\""translate(26 -15)\"" stroke=\""blue\"" />"",""<path d=\""M 50 57 L 50 43\"" stroke=\""black\"" transform=\""translate(26 -15) rotate(-45 50 50)\""/>"",""</svg>""]","z","VDACtest","r","1","h","true","low","","","",""
"","html-keyboard-response","83","278692","0.0-3.0-2.12","y95","[""g""]","","null","<p style=""font-size:300%;""> + 10 points.</p><p style=""font-size:300%"">Total: 80 points.</p>","null","","","","","","","80","","",""
"","html-keyboard-response","84","280281","0.0-3.0-0.13","y95","[""g""]","","null","<svg viewBox=""0 0 100 100"" > <path d=""M 50 52 L 50 48"" stroke=""black"" stroke-width="".5""/> <path d=""M 52 50 L 48 50"" stroke=""black"" stroke-width="".5""/>","null","","","","","","","","","",""
"","html-keyboard-response","85","280894","0.0-3.0-1.13","y95","[""g""]","","609.3999999761581","[""<svg viewBox=\""0 0 100 100\"" >"",""<path d=\""M 50 52 L 50 48\"" stroke=\""black\"" stroke-width=\"".5\""/>"","" <path d=\""M 52 50 L 48 50\"" stroke=\""black\"" stroke-width=\"".5\""/>"",""<circle cx=\""50\"" cy=\""50\"" r=\""10\"" fill=\""none\"" transform=\""translate(26 15)\"" stroke=\""cyan\"" />"",""<path d=\""M 50 57 L 50 43\"" stroke=\""black\"" transform=\""translate(26 15) rotate(-45 50 50)\""/>"",""<circle cx=\""50\"" cy=\""50\"" r=\""10\"" fill=\""none\"" transform=\""translate(0 30)\"" stroke=\""blue\"" />"",""<path d=\""M 50 57 L 50 43\"" stroke=\""black\"" transform=\""translate(0 30) rotate(45 50 50)\""/>"",""<circle cx=\""50\"" cy=\""50\"" r=\""10\"" fill=\""none\"" transform=\""translate(-26 15)\"" stroke=\""lime\"" />"",""<path d=\""M 50 57 L 50 43\"" stroke=\""black\"" transform=\""translate(-26 15) rotate(90 50 50)\""/>"",""<circle cx=\""50\"" cy=\""50\"" r=\""10\"" fill=\""none\"" transform=\""translate(-26 -15)\"" stroke=\""magenta\"" />"",""<path d=\""M 50 57 L 50 43\"" stroke=\""black\"" transform=\""translate(-26 -15) rotate(-45 50 50)\""/>"",""<circle cx=\""50\"" cy=\""50\"" r=\""10\"" fill=\""none\"" transform=\""translate(0 -30)\"" stroke=\""yellow\"" />"",""<path d=\""M 50 57 L 50 43\"" stroke=\""black\"" transform=\""translate(0 -30) rotate(45 50 50)\""/>"",""<circle cx=\""50\"" cy=\""50\"" r=\""10\"" fill=\""none\"" transform=\""translate(26 -15)\"" stroke=\""black\"" />"",""<path d=\""M 50 57 L 50 43\"" stroke=\""black\"" transform=\""translate(26 -15) rotate(-45 50 50)\""/>"",""</svg>""]","z","VDACtest","g","2","h","true","high","","","",""
"","html-keyboard-response","86","283397","0.0-3.0-2.13","y95","[""g""]","","null","<p style=""font-size:300%;""> + 2 points.</p><p style=""font-size:300%"">Total: 82 points.</p>","null","","","","","","","82","","",""
"","html-keyboard-response","87","284987","0.0-3.0-0.14","y95","[""g""]","","null","<svg viewBox=""0 0 100 100"" > <path d=""M 50 52 L 50 48"" stroke=""black"" stroke-width="".5""/> <path d=""M 52 50 L 48 50"" stroke=""black"" stroke-width="".5""/>","null","","","","","","","","","",""
"","html-keyboard-response","88","285510","0.0-3.0-1.14","y95","[""g""]","","520.0999999642372","[""<svg viewBox=\""0 0 100 100\"" >"",""<path d=\""M 50 52 L 50 48\"" stroke=\""black\"" stroke-width=\"".5\""/>"","" <path d=\""M 52 50 L 48 50\"" stroke=\""black\"" stroke-width=\"".5\""/>"",""<circle cx=\""50\"" cy=\""50\"" r=\""10\"" fill=\""none\"" transform=\""translate(26 15)\"" stroke=\""blue\"" />"",""<path d=\""M 50 57 L 50 43\"" stroke=\""black\"" transform=\""translate(26 15) rotate(45 50 50)\""/>"",""<circle cx=\""50\"" cy=\""50\"" r=\""10\"" fill=\""none\"" transform=\""translate(0 30)\"" stroke=\""black\"" />"",""<path d=\""M 50 57 L 50 43\"" stroke=\""black\"" transform=\""translate(0 30) rotate(-45 50 50)\""/>"",""<circle cx=\""50\"" cy=\""50\"" r=\""10\"" fill=\""none\"" transform=\""translate(-26 15)\"" stroke=\""magenta\"" />"",""<path d=\""M 50 57 L 50 43\"" stroke=\""black\"" transform=\""translate(-26 15) rotate(45 50 50)\""/>"",""<circle cx=\""50\"" cy=\""50\"" r=\""10\"" fill=\""none\"" transform=\""translate(-26 -15)\"" stroke=\""cyan\"" />"",""<path d=\""M 50 57 L 50 43\"" stroke=\""black\"" transform=\""translate(-26 -15) rotate(45 50 50)\""/>"",""<circle cx=\""50\"" cy=\""50\"" r=\""10\"" fill=\""none\"" transform=\""translate(0 -30)\"" stroke=\""red\"" />"",""<path d=\""M 50 57 L 50 43\"" stroke=\""black\"" transform=\""translate(0 -30) rotate(90 50 50)\""/>"",""<circle cx=\""50\"" cy=\""50\"" r=\""10\"" fill=\""none\"" transform=\""translate(26 -15)\"" stroke=\""yellow\"" />"",""<path d=\""M 50 57 L 50 43\"" stroke=\""black\"" transform=\""translate(26 -15) rotate(45 50 50)\""/>"",""</svg>""]","z","VDACtest","r","4","h","true","low","","","",""
"","html-keyboard-response","89","288012","0.0-3.0-2.14","y95","[""g""]","","null","<p style=""font-size:300%;""> + 2 points.</p><p style=""font-size:300%"">Total: 84 points.</p>","null","","","","","","","84","","",""
"","html-keyboard-response","90","289602","0.0-3.0-0.15","y95","[""g""]","","null","<svg viewBox=""0 0 100 100"" > <path d=""M 50 52 L 50 48"" stroke=""black"" stroke-width="".5""/> <path d=""M 52 50 L 48 50"" stroke=""black"" stroke-width="".5""/>","null","","","","","","","","","",""
"","html-keyboard-response","91","290262","0.0-3.0-1.15","y95","[""g""]","","656.8999999761581","[""<svg viewBox=\""0 0 100 100\"" >"",""<path d=\""M 50 52 L 50 48\"" stroke=\""black\"" stroke-width=\"".5\""/>"","" <path d=\""M 52 50 L 48 50\"" stroke=\""black\"" stroke-width=\"".5\""/>"",""<circle cx=\""50\"" cy=\""50\"" r=\""10\"" fill=\""none\"" transform=\""translate(26 15)\"" stroke=\""cyan\"" />"",""<path d=\""M 50 57 L 50 43\"" stroke=\""black\"" transform=\""translate(26 15) rotate(-45 50 50)\""/>"",""<circle cx=\""50\"" cy=\""50\"" r=\""10\"" fill=\""none\"" transform=\""translate(0 30)\"" stroke=\""magenta\"" />"",""<path d=\""M 50 57 L 50 43\"" stroke=\""black\"" transform=\""translate(0 30) rotate(45 50 50)\""/>"",""<circle cx=\""50\"" cy=\""50\"" r=\""10\"" fill=\""none\"" transform=\""translate(-26 15)\"" stroke=\""yellow\"" />"",""<path d=\""M 50 57 L 50 43\"" stroke=\""black\"" transform=\""translate(-26 15) rotate(45 50 50)\""/>"",""<circle cx=\""50\"" cy=\""50\"" r=\""10\"" fill=\""none\"" transform=\""translate(-26 -15)\"" stroke=\""blue\"" />"",""<path d=\""M 50 57 L 50 43\"" stroke=\""black\"" transform=\""translate(-26 -15) rotate(-45 50 50)\""/>"",""<circle cx=\""50\"" cy=\""50\"" r=\""10\"" fill=\""none\"" transform=\""translate(0 -30)\"" stroke=\""black\"" />"",""<path d=\""M 50 57 L 50 43\"" stroke=\""black\"" transform=\""translate(0 -30) rotate(-45 50 50)\""/>"",""<circle cx=\""50\"" cy=\""50\"" r=\""10\"" fill=\""none\"" transform=\""translate(26 -15)\"" stroke=\""lime\"" />"",""<path d=\""M 50 57 L 50 43\"" stroke=\""black\"" transform=\""translate(26 -15) rotate(90 50 50)\""/>"",""</svg>""]","z","VDACtest","g","5","h","true","high","","","",""
"","html-keyboard-response","92","292764","0.0-3.0-2.15","y95","[""g""]","","null","<p style=""font-size:300%;""> + 10 points.</p><p style=""font-size:300%"">Total: 94 points.</p>","null","","","","","","","94","","",""
"","html-keyboard-response","93","294354","0.0-3.0-0.16","y95","[""g""]","","null","<svg viewBox=""0 0 100 100"" > <path d=""M 50 52 L 50 48"" stroke=""black"" stroke-width="".5""/> <path d=""M 52 50 L 48 50"" stroke=""black"" stroke-width="".5""/>","null","","","","","","","","","",""
"","html-keyboard-response","94","294918","0.0-3.0-1.16","y95","[""g""]","","560.2000000476837","[""<svg viewBox=\""0 0 100 100\"" >"",""<path d=\""M 50 52 L 50 48\"" stroke=\""black\"" stroke-width=\"".5\""/>"","" <path d=\""M 52 50 L 48 50\"" stroke=\""black\"" stroke-width=\"".5\""/>"",""<circle cx=\""50\"" cy=\""50\"" r=\""10\"" fill=\""none\"" transform=\""translate(26 15)\"" stroke=\""magenta\"" />"",""<path d=\""M 50 57 L 50 43\"" stroke=\""black\"" transform=\""translate(26 15) rotate(-45 50 50)\""/>"",""<circle cx=\""50\"" cy=\""50\"" r=\""10\"" fill=\""none\"" transform=\""translate(0 30)\"" stroke=\""yellow\"" />"",""<path d=\""M 50 57 L 50 43\"" stroke=\""black\"" transform=\""translate(0 30) rotate(-45 50 50)\""/>"",""<circle cx=\""50\"" cy=\""50\"" r=\""10\"" fill=\""none\"" transform=\""translate(-26 15)\"" stroke=\""black\"" />"",""<path d=\""M 50 57 L 50 43\"" stroke=\""black\"" transform=\""translate(-26 15) rotate(-45 50 50)\""/>"",""<circle cx=\""50\"" cy=\""50\"" r=\""10\"" fill=\""none\"" transform=\""translate(-26 -15)\"" stroke=\""lime\"" />"",""<path d=\""M 50 57 L 50 43\"" stroke=\""black\"" transform=\""translate(-26 -15) rotate(0 50 50)\""/>"",""<circle cx=\""50\"" cy=\""50\"" r=\""10\"" fill=\""none\"" transform=\""translate(0 -30)\"" stroke=\""blue\"" />"",""<path d=\""M 50 57 L 50 43\"" stroke=\""black\"" transform=\""translate(0 -30) rotate(45 50 50)\""/>"",""<circle cx=\""50\"" cy=\""50\"" r=\""10\"" fill=\""none\"" transform=\""translate(26 -15)\"" stroke=\""cyan\"" />"",""<path d=\""M 50 57 L 50 43\"" stroke=\""black\"" transform=\""translate(26 -15) rotate(-45 50 50)\""/>"",""</svg>""]","m","VDACtest","g","3","v","true","high","","","",""
"","html-keyboard-response","95","297421","0.0-3.0-2.16","y95","[""g""]","","null","<p style=""font-size:300%;""> + 10 points.</p><p style=""font-size:300%"">Total: 104 points.</p>","null","","","","","","","104","","",""
"","html-keyboard-response","96","299010","0.0-3.0-0.17","y95","[""g""]","","null","<svg viewBox=""0 0 100 100"" > <path d=""M 50 52 L 50 48"" stroke=""black"" stroke-width="".5""/> <path d=""M 52 50 L 48 50"" stroke=""black"" stroke-width="".5""/>","null","","","","","","","","","",""
"","html-keyboard-response","97","299558","0.0-3.0-1.17","y95","[""g""]","","544.5","[""<svg viewBox=\""0 0 100 100\"" >"",""<path d=\""M 50 52 L 50 48\"" stroke=\""black\"" stroke-width=\"".5\""/>"","" <path d=\""M 52 50 L 48 50\"" stroke=\""black\"" stroke-width=\"".5\""/>"",""<circle cx=\""50\"" cy=\""50\"" r=\""10\"" fill=\""none\"" transform=\""translate(26 15)\"" stroke=\""magenta\"" />"",""<path d=\""M 50 57 L 50 43\"" stroke=\""black\"" transform=\""translate(26 15) rotate(-45 50 50)\""/>"",""<circle cx=\""50\"" cy=\""50\"" r=\""10\"" fill=\""none\"" transform=\""translate(0 30)\"" stroke=\""yellow\"" />"",""<path d=\""M 50 57 L 50 43\"" stroke=\""black\"" transform=\""translate(0 30) rotate(45 50 50)\""/>"",""<circle cx=\""50\"" cy=\""50\"" r=\""10\"" fill=\""none\"" transform=\""translate(-26 15)\"" stroke=\""blue\"" />"",""<path d=\""M 50 57 L 50 43\"" stroke=\""black\"" transform=\""translate(-26 15) rotate(-45 50 50)\""/>"",""<circle cx=\""50\"" cy=\""50\"" r=\""10\"" fill=\""none\"" transform=\""translate(-26 -15)\"" stroke=\""red\"" />"",""<path d=\""M 50 57 L 50 43\"" stroke=\""black\"" transform=\""translate(-26 -15) rotate(0 50 50)\""/>"",""<circle cx=\""50\"" cy=\""50\"" r=\""10\"" fill=\""none\"" transform=\""translate(0 -30)\"" stroke=\""cyan\"" />"",""<path d=\""M 50 57 L 50 43\"" stroke=\""black\"" transform=\""translate(0 -30) rotate(45 50 50)\""/>"",""<circle cx=\""50\"" cy=\""50\"" r=\""10\"" fill=\""none\"" transform=\""translate(26 -15)\"" stroke=\""black\"" />"",""<path d=\""M 50 57 L 50 43\"" stroke=\""black\"" transform=\""translate(26 -15) rotate(45 50 50)\""/>"",""</svg>""]","m","VDACtest","r","3","v","true","low","","","",""
"","html-keyboard-response","98","302061","0.0-3.0-2.17","y95","[""g""]","","null","<p style=""font-size:300%;""> + 2 points.</p><p style=""font-size:300%"">Total: 106 points.</p>","null","","","","","","","106","","",""
"","html-keyboard-response","99","303650","0.0-3.0-0.18","y95","[""g""]","","null","<svg viewBox=""0 0 100 100"" > <path d=""M 50 52 L 50 48"" stroke=""black"" stroke-width="".5""/> <path d=""M 52 50 L 48 50"" stroke=""black"" stroke-width="".5""/>","null","","","","","","","","","",""
"","html-keyboard-response","100","304230","0.0-3.0-1.18","y95","[""g""]","","577","[""<svg viewBox=\""0 0 100 100\"" >"",""<path d=\""M 50 52 L 50 48\"" stroke=\""black\"" stroke-width=\"".5\""/>"","" <path d=\""M 52 50 L 48 50\"" stroke=\""black\"" stroke-width=\"".5\""/>"",""<circle cx=\""50\"" cy=\""50\"" r=\""10\"" fill=\""none\"" transform=\""translate(26 15)\"" stroke=\""black\"" />"",""<path d=\""M 50 57 L 50 43\"" stroke=\""black\"" transform=\""translate(26 15) rotate(-45 50 50)\""/>"",""<circle cx=\""50\"" cy=\""50\"" r=\""10\"" fill=\""none\"" transform=\""translate(0 30)\"" stroke=\""red\"" />"",""<path d=\""M 50 57 L 50 43\"" stroke=\""black\"" transform=\""translate(0 30) rotate(90 50 50)\""/>"",""<circle cx=\""50\"" cy=\""50\"" r=\""10\"" fill=\""none\"" transform=\""translate(-26 15)\"" stroke=\""yellow\"" />"",""<path d=\""M 50 57 L 50 43\"" stroke=\""black\"" transform=\""translate(-26 15) rotate(-45 50 50)\""/>"",""<circle cx=\""50\"" cy=\""50\"" r=\""10\"" fill=\""none\"" transform=\""translate(-26 -15)\"" stroke=\""blue\"" />"",""<path d=\""M 50 57 L 50 43\"" stroke=\""black\"" transform=\""translate(-26 -15) rotate(45 50 50)\""/>"",""<circle cx=\""50\"" cy=\""50\"" r=\""10\"" fill=\""none\"" transform=\""translate(0 -30)\"" stroke=\""cyan\"" />"",""<path d=\""M 50 57 L 50 43\"" stroke=\""black\"" transform=\""translate(0 -30) rotate(45 50 50)\""/>"",""<circle cx=\""50\"" cy=\""50\"" r=\""10\"" fill=\""none\"" transform=\""translate(26 -15)\"" stroke=\""magenta\"" />"",""<path d=\""M 50 57 L 50 43\"" stroke=\""black\"" transform=\""translate(26 -15) rotate(-45 50 50)\""/>"",""</svg>""]","z","VDACtest","r","1","h","true","low","","","",""
"","html-keyboard-response","101","306733","0.0-3.0-2.18","y95","[""g""]","","null","<p style=""font-size:300%;""> + 2 points.</p><p style=""font-size:300%"">Total: 108 points.</p>","null","","","","","","","108","","",""
"","html-keyboard-response","102","308329","0.0-3.0-0.19","y95","[""g""]","","null","<svg viewBox=""0 0 100 100"" > <path d=""M 50 52 L 50 48"" stroke=""black"" stroke-width="".5""/> <path d=""M 52 50 L 48 50"" stroke=""black"" stroke-width="".5""/>","null","","","","","","","","","",""
"","html-keyboard-response","103","308926","0.0-3.0-1.19","y95","[""g""]","","593.2999999523163","[""<svg viewBox=\""0 0 100 100\"" >"",""<path d=\""M 50 52 L 50 48\"" stroke=\""black\"" stroke-width=\"".5\""/>"","" <path d=\""M 52 50 L 48 50\"" stroke=\""black\"" stroke-width=\"".5\""/>"",""<circle cx=\""50\"" cy=\""50\"" r=\""10\"" fill=\""none\"" transform=\""translate(26 15)\"" stroke=\""black\"" />"",""<path d=\""M 50 57 L 50 43\"" stroke=\""black\"" transform=\""translate(26 15) rotate(-45 50 50)\""/>"",""<circle cx=\""50\"" cy=\""50\"" r=\""10\"" fill=\""none\"" transform=\""translate(0 30)\"" stroke=\""yellow\"" />"",""<path d=\""M 50 57 L 50 43\"" stroke=\""black\"" transform=\""translate(0 30) rotate(45 50 50)\""/>"",""<circle cx=\""50\"" cy=\""50\"" r=\""10\"" fill=\""none\"" transform=\""translate(-26 15)\"" stroke=\""blue\"" />"",""<path d=\""M 50 57 L 50 43\"" stroke=\""black\"" transform=\""translate(-26 15) rotate(-45 50 50)\""/>"",""<circle cx=\""50\"" cy=\""50\"" r=\""10\"" fill=\""none\"" transform=\""translate(-26 -15)\"" stroke=\""magenta\"" />"",""<path d=\""M 50 57 L 50 43\"" stroke=\""black\"" transform=\""translate(-26 -15) rotate(45 50 50)\""/>"",""<circle cx=\""50\"" cy=\""50\"" r=\""10\"" fill=\""none\"" transform=\""translate(0 -30)\"" stroke=\""cyan\"" />"",""<path d=\""M 50 57 L 50 43\"" stroke=\""black\"" transform=\""translate(0 -30) rotate(45 50 50)\""/>"",""<circle cx=\""50\"" cy=\""50\"" r=\""10\"" fill=\""none\"" transform=\""translate(26 -15)\"" stroke=\""red\"" />"",""<path d=\""M 50 57 L 50 43\"" stroke=\""black\"" transform=\""translate(26 -15) rotate(0 50 50)\""/>"",""</svg>""]","m","VDACtest","r","5","v","true","low","","","",""
"","html-keyboard-response","104","311429","0.0-3.0-2.19","y95","[""g""]","","null","<p style=""font-size:300%;""> + 2 points.</p><p style=""font-size:300%"">Total: 110 points.</p>","null","","","","","","","110","","",""
"","html-keyboard-response","105","313018","0.0-3.0-0.20","y95","[""g""]","","null","<svg viewBox=""0 0 100 100"" > <path d=""M 50 52 L 50 48"" stroke=""black"" stroke-width="".5""/> <path d=""M 52 50 L 48 50"" stroke=""black"" stroke-width="".5""/>","null","","","","","","","","","",""
"","html-keyboard-response","106","313598","0.0-3.0-1.20","y95","[""g""]","","577.3000000119209","[""<svg viewBox=\""0 0 100 100\"" >"",""<path d=\""M 50 52 L 50 48\"" stroke=\""black\"" stroke-width=\"".5\""/>"","" <path d=\""M 52 50 L 48 50\"" stroke=\""black\"" stroke-width=\"".5\""/>"",""<circle cx=\""50\"" cy=\""50\"" r=\""10\"" fill=\""none\"" transform=\""translate(26 15)\"" stroke=\""yellow\"" />"",""<path d=\""M 50 57 L 50 43\"" stroke=\""black\"" transform=\""translate(26 15) rotate(45 50 50)\""/>"",""<circle cx=\""50\"" cy=\""50\"" r=\""10\"" fill=\""none\"" transform=\""translate(0 30)\"" stroke=\""blue\"" />"",""<path d=\""M 50 57 L 50 43\"" stroke=\""black\"" transform=\""translate(0 30) rotate(-45 50 50)\""/>"",""<circle cx=\""50\"" cy=\""50\"" r=\""10\"" fill=\""none\"" transform=\""translate(-26 15)\"" stroke=\""red\"" />"",""<path d=\""M 50 57 L 50 43\"" stroke=\""black\"" transform=\""translate(-26 15) rotate(0 50 50)\""/>"",""<circle cx=\""50\"" cy=\""50\"" r=\""10\"" fill=\""none\"" transform=\""translate(-26 -15)\"" stroke=\""magenta\"" />"",""<path d=\""M 50 57 L 50 43\"" stroke=\""black\"" transform=\""translate(-26 -15) rotate(-45 50 50)\""/>"",""<circle cx=\""50\"" cy=\""50\"" r=\""10\"" fill=\""none\"" transform=\""translate(0 -30)\"" stroke=\""cyan\"" />"",""<path d=\""M 50 57 L 50 43\"" stroke=\""black\"" transform=\""translate(0 -30) rotate(-45 50 50)\""/>"",""<circle cx=\""50\"" cy=\""50\"" r=\""10\"" fill=\""none\"" transform=\""translate(26 -15)\"" stroke=\""black\"" />"",""<path d=\""M 50 57 L 50 43\"" stroke=\""black\"" transform=\""translate(26 -15) rotate(45 50 50)\""/>"",""</svg>""]","m","VDACtest","r","2","v","true","low","","","",""
"","html-keyboard-response","107","316101","0.0-3.0-2.20","y95","[""g""]","","null","<p style=""font-size:300%;""> + 2 points.</p><p style=""font-size:300%"">Total: 112 points.</p>","null","","","","","","","112","","",""
"","html-keyboard-response","108","317690","0.0-3.0-0.21","y95","[""g""]","","null","<svg viewBox=""0 0 100 100"" > <path d=""M 50 52 L 50 48"" stroke=""black"" stroke-width="".5""/> <path d=""M 52 50 L 48 50"" stroke=""black"" stroke-width="".5""/>","null","","","","","","","","","",""
"","html-keyboard-response","109","318390","0.0-3.0-1.21","y95","[""g""]","","696.5","[""<svg viewBox=\""0 0 100 100\"" >"",""<path d=\""M 50 52 L 50 48\"" stroke=\""black\"" stroke-width=\"".5\""/>"","" <path d=\""M 52 50 L 48 50\"" stroke=\""black\"" stroke-width=\"".5\""/>"",""<circle cx=\""50\"" cy=\""50\"" r=\""10\"" fill=\""none\"" transform=\""translate(26 15)\"" stroke=\""magenta\"" />"",""<path d=\""M 50 57 L 50 43\"" stroke=\""black\"" transform=\""translate(26 15) rotate(-45 50 50)\""/>"",""<circle cx=\""50\"" cy=\""50\"" r=\""10\"" fill=\""none\"" transform=\""translate(0 30)\"" stroke=\""blue\"" />"",""<path d=\""M 50 57 L 50 43\"" stroke=\""black\"" transform=\""translate(0 30) rotate(-45 50 50)\""/>"",""<circle cx=\""50\"" cy=\""50\"" r=\""10\"" fill=\""none\"" transform=\""translate(-26 15)\"" stroke=\""black\"" />"",""<path d=\""M 50 57 L 50 43\"" stroke=\""black\"" transform=\""translate(-26 15) rotate(-45 50 50)\""/>"",""<circle cx=\""50\"" cy=\""50\"" r=\""10\"" fill=\""none\"" transform=\""translate(-26 -15)\"" stroke=\""yellow\"" />"",""<path d=\""M 50 57 L 50 43\"" stroke=\""black\"" transform=\""translate(-26 -15) rotate(45 50 50)\""/>"",""<circle cx=\""50\"" cy=\""50\"" r=\""10\"" fill=\""none\"" transform=\""translate(0 -30)\"" stroke=\""cyan\"" />"",""<path d=\""M 50 57 L 50 43\"" stroke=\""black\"" transform=\""translate(0 -30) rotate(-45 50 50)\""/>"",""<circle cx=\""50\"" cy=\""50\"" r=\""10\"" fill=\""none\"" transform=\""translate(26 -15)\"" stroke=\""red\"" />"",""<path d=\""M 50 57 L 50 43\"" stroke=\""black\"" transform=\""translate(26 -15) rotate(90 50 50)\""/>"",""</svg>""]","z","VDACtest","r","5","h","true","low","","","",""
"","html-keyboard-response","110","320892","0.0-3.0-2.21","y95","[""g""]","","null","<p style=""font-size:300%;""> + 10 points.</p><p style=""font-size:300%"">Total: 122 points.</p>","null","","","","","","","122","","",""
"","html-keyboard-response","111","322481","0.0-3.0-0.22","y95","[""g""]","","null","<svg viewBox=""0 0 100 100"" > <path d=""M 50 52 L 50 48"" stroke=""black"" stroke-width="".5""/> <path d=""M 52 50 L 48 50"" stroke=""black"" stroke-width="".5""/>","null","","","","","","","","","",""
"","html-keyboard-response","112","322998","0.0-3.0-1.22","y95","[""g""]","","513","[""<svg viewBox=\""0 0 100 100\"" >"",""<path d=\""M 50 52 L 50 48\"" stroke=\""black\"" stroke-width=\"".5\""/>"","" <path d=\""M 52 50 L 48 50\"" stroke=\""black\"" stroke-width=\"".5\""/>"",""<circle cx=\""50\"" cy=\""50\"" r=\""10\"" fill=\""none\"" transform=\""translate(26 15)\"" stroke=\""magenta\"" />"",""<path d=\""M 50 57 L 50 43\"" stroke=\""black\"" transform=\""translate(26 15) rotate(45 50 50)\""/>"",""<circle cx=\""50\"" cy=\""50\"" r=\""10\"" fill=\""none\"" transform=\""translate(0 30)\"" stroke=\""yellow\"" />"",""<path d=\""M 50 57 L 50 43\"" stroke=\""black\"" transform=\""translate(0 30) rotate(-45 50 50)\""/>"",""<circle cx=\""50\"" cy=\""50\"" r=\""10\"" fill=\""none\"" transform=\""translate(-26 15)\"" stroke=\""lime\"" />"",""<path d=\""M 50 57 L 50 43\"" stroke=\""black\"" transform=\""translate(-26 15) rotate(0 50 50)\""/>"",""<circle cx=\""50\"" cy=\""50\"" r=\""10\"" fill=\""none\"" transform=\""translate(-26 -15)\"" stroke=\""black\"" />"",""<path d=\""M 50 57 L 50 43\"" stroke=\""black\"" transform=\""translate(-26 -15) rotate(-45 50 50)\""/>"",""<circle cx=\""50\"" cy=\""50\"" r=\""10\"" fill=\""none\"" transform=\""translate(0 -30)\"" stroke=\""blue\"" />"",""<path d=\""M 50 57 L 50 43\"" stroke=\""black\"" transform=\""translate(0 -30) rotate(45 50 50)\""/>"",""<circle cx=\""50\"" cy=\""50\"" r=\""10\"" fill=\""none\"" transform=\""translate(26 -15)\"" stroke=\""cyan\"" />"",""<path d=\""M 50 57 L 50 43\"" stroke=\""black\"" transform=\""translate(26 -15) rotate(-45 50 50)\""/>"",""</svg>""]","m","VDACtest","g","2","v","true","high","","","",""
"","html-keyboard-response","113","325501","0.0-3.0-2.22","y95","[""g""]","","null","<p style=""font-size:300%;""> + 10 points.</p><p style=""font-size:300%"">Total: 132 points.</p>","null","","","","","","","132","","",""
"","html-keyboard-response","114","327090","0.0-3.0-0.23","y95","[""g""]","","null","<svg viewBox=""0 0 100 100"" > <path d=""M 50 52 L 50 48"" stroke=""black"" stroke-width="".5""/> <path d=""M 52 50 L 48 50"" stroke=""black"" stroke-width="".5""/>","null","","","","","","","","","",""
"","html-keyboard-response","115","327846","0.0-3.0-1.23","y95","[""g""]","","752.6000000238419","[""<svg viewBox=\""0 0 100 100\"" >"",""<path d=\""M 50 52 L 50 48\"" stroke=\""black\"" stroke-width=\"".5\""/>"","" <path d=\""M 52 50 L 48 50\"" stroke=\""black\"" stroke-width=\"".5\""/>"",""<circle cx=\""50\"" cy=\""50\"" r=\""10\"" fill=\""none\"" transform=\""translate(26 15)\"" stroke=\""yellow\"" />"",""<path d=\""M 50 57 L 50 43\"" stroke=\""black\"" transform=\""translate(26 15) rotate(45 50 50)\""/>"",""<circle cx=\""50\"" cy=\""50\"" r=\""10\"" fill=\""none\"" transform=\""translate(0 30)\"" stroke=\""magenta\"" />"",""<path d=\""M 50 57 L 50 43\"" stroke=\""black\"" transform=\""translate(0 30) rotate(45 50 50)\""/>"",""<circle cx=\""50\"" cy=\""50\"" r=\""10\"" fill=\""none\"" transform=\""translate(-26 15)\"" stroke=\""black\"" />"",""<path d=\""M 50 57 L 50 43\"" stroke=\""black\"" transform=\""translate(-26 15) rotate(45 50 50)\""/>"",""<circle cx=\""50\"" cy=\""50\"" r=\""10\"" fill=\""none\"" transform=\""translate(-26 -15)\"" stroke=\""blue\"" />"",""<path d=\""M 50 57 L 50 43\"" stroke=\""black\"" transform=\""translate(-26 -15) rotate(45 50 50)\""/>"",""<circle cx=\""50\"" cy=\""50\"" r=\""10\"" fill=\""none\"" transform=\""translate(0 -30)\"" stroke=\""cyan\"" />"",""<path d=\""M 50 57 L 50 43\"" stroke=\""black\"" transform=\""translate(0 -30) rotate(-45 50 50)\""/>"",""<circle cx=\""50\"" cy=\""50\"" r=\""10\"" fill=\""none\"" transform=\""translate(26 -15)\"" stroke=\""red\"" />"",""<path d=\""M 50 57 L 50 43\"" stroke=\""black\"" transform=\""translate(26 -15) rotate(0 50 50)\""/>"",""</svg>""]","z","VDACtest","r","5","v","false","low","","","",""
"","html-keyboard-response","116","330349","0.0-3.0-2.23","y95","[""g""]","","null","<p style=""font-size:300%;"">Miss.</p><p style=""font-size:300%"">Total: 132 points.</p>","null","","","","","","","132","","",""
"","html-keyboard-response","117","331938","0.0-3.0-0.24","y95","[""g""]","","null","<svg viewBox=""0 0 100 100"" > <path d=""M 50 52 L 50 48"" stroke=""black"" stroke-width="".5""/> <path d=""M 52 50 L 48 50"" stroke=""black"" stroke-width="".5""/>","null","","","","","","","","","",""
"","html-keyboard-response","118","332726","0.0-3.0-1.24","y95","[""g""]","","784.1000000238419","[""<svg viewBox=\""0 0 100 100\"" >"",""<path d=\""M 50 52 L 50 48\"" stroke=\""black\"" stroke-width=\"".5\""/>"","" <path d=\""M 52 50 L 48 50\"" stroke=\""black\"" stroke-width=\"".5\""/>"",""<circle cx=\""50\"" cy=\""50\"" r=\""10\"" fill=\""none\"" transform=\""translate(26 15)\"" stroke=\""magenta\"" />"",""<path d=\""M 50 57 L 50 43\"" stroke=\""black\"" transform=\""translate(26 15) rotate(-45 50 50)\""/>"",""<circle cx=\""50\"" cy=\""50\"" r=\""10\"" fill=\""none\"" transform=\""translate(0 30)\"" stroke=\""red\"" />"",""<path d=\""M 50 57 L 50 43\"" stroke=\""black\"" transform=\""translate(0 30) rotate(0 50 50)\""/>"",""<circle cx=\""50\"" cy=\""50\"" r=\""10\"" fill=\""none\"" transform=\""translate(-26 15)\"" stroke=\""black\"" />"",""<path d=\""M 50 57 L 50 43\"" stroke=\""black\"" transform=\""translate(-26 15) rotate(45 50 50)\""/>"",""<circle cx=\""50\"" cy=\""50\"" r=\""10\"" fill=\""none\"" transform=\""translate(-26 -15)\"" stroke=\""blue\"" />"",""<path d=\""M 50 57 L 50 43\"" stroke=\""black\"" transform=\""translate(-26 -15) rotate(-45 50 50)\""/>"",""<circle cx=\""50\"" cy=\""50\"" r=\""10\"" fill=\""none\"" transform=\""translate(0 -30)\"" stroke=\""cyan\"" />"",""<path d=\""M 50 57 L 50 43\"" stroke=\""black\"" transform=\""translate(0 -30) rotate(45 50 50)\""/>"",""<circle cx=\""50\"" cy=\""50\"" r=\""10\"" fill=\""none\"" transform=\""translate(26 -15)\"" stroke=\""yellow\"" />"",""<path d=\""M 50 57 L 50 43\"" stroke=\""black\"" transform=\""translate(26 -15) rotate(-45 50 50)\""/>"",""</svg>""]","m","VDACtest","r","1","v","true","low","","","",""
"","html-keyboard-response","119","335229","0.0-3.0-2.24","y95","[""g""]","","null","<p style=""font-size:300%;""> + 2 points.</p><p style=""font-size:300%"">Total: 134 points.</p>","null","","","","","","","134","","",""
"","html-keyboard-response","120","336818","0.0-3.0-0.25","y95","[""g""]","","null","<svg viewBox=""0 0 100 100"" > <path d=""M 50 52 L 50 48"" stroke=""black"" stroke-width="".5""/> <path d=""M 52 50 L 48 50"" stroke=""black"" stroke-width="".5""/>","null","","","","","","","","","",""
"","html-keyboard-response","121","337430","0.0-3.0-1.25","y95","[""g""]","","608.8999999761581","[""<svg viewBox=\""0 0 100 100\"" >"",""<path d=\""M 50 52 L 50 48\"" stroke=\""black\"" stroke-width=\"".5\""/>"","" <path d=\""M 52 50 L 48 50\"" stroke=\""black\"" stroke-width=\"".5\""/>"",""<circle cx=\""50\"" cy=\""50\"" r=\""10\"" fill=\""none\"" transform=\""translate(26 15)\"" stroke=\""cyan\"" />"",""<path d=\""M 50 57 L 50 43\"" stroke=\""black\"" transform=\""translate(26 15) rotate(-45 50 50)\""/>"",""<circle cx=\""50\"" cy=\""50\"" r=\""10\"" fill=\""none\"" transform=\""translate(0 30)\"" stroke=\""red\"" />"",""<path d=\""M 50 57 L 50 43\"" stroke=\""black\"" transform=\""translate(0 30) rotate(90 50 50)\""/>"",""<circle cx=\""50\"" cy=\""50\"" r=\""10\"" fill=\""none\"" transform=\""translate(-26 15)\"" stroke=\""black\"" />"",""<path d=\""M 50 57 L 50 43\"" stroke=\""black\"" transform=\""translate(-26 15) rotate(-45 50 50)\""/>"",""<circle cx=\""50\"" cy=\""50\"" r=\""10\"" fill=\""none\"" transform=\""translate(-26 -15)\"" stroke=\""yellow\"" />"",""<path d=\""M 50 57 L 50 43\"" stroke=\""black\"" transform=\""translate(-26 -15) rotate(45 50 50)\""/>"",""<circle cx=\""50\"" cy=\""50\"" r=\""10\"" fill=\""none\"" transform=\""translate(0 -30)\"" stroke=\""magenta\"" />"",""<path d=\""M 50 57 L 50 43\"" stroke=\""black\"" transform=\""translate(0 -30) rotate(45 50 50)\""/>"",""<circle cx=\""50\"" cy=\""50\"" r=\""10\"" fill=\""none\"" transform=\""translate(26 -15)\"" stroke=\""blue\"" />"",""<path d=\""M 50 57 L 50 43\"" stroke=\""black\"" transform=\""translate(26 -15) rotate(-45 50 50)\""/>"",""</svg>""]","z","VDACtest","r","1","h","true","low","","","",""
"","html-keyboard-response","122","339933","0.0-3.0-2.25","y95","[""g""]","","null","<p style=""font-size:300%;""> + 2 points.</p><p style=""font-size:300%"">Total: 136 points.</p>","null","","","","","","","136","","",""
"","html-keyboard-response","123","341523","0.0-3.0-0.26","y95","[""g""]","","null","<svg viewBox=""0 0 100 100"" > <path d=""M 50 52 L 50 48"" stroke=""black"" stroke-width="".5""/> <path d=""M 52 50 L 48 50"" stroke=""black"" stroke-width="".5""/>","null","","","","","","","","","",""
"","html-keyboard-response","124","342214","0.0-3.0-1.26","y95","[""g""]","","687.4000000357628","[""<svg viewBox=\""0 0 100 100\"" >"",""<path d=\""M 50 52 L 50 48\"" stroke=\""black\"" stroke-width=\"".5\""/>"","" <path d=\""M 52 50 L 48 50\"" stroke=\""black\"" stroke-width=\"".5\""/>"",""<circle cx=\""50\"" cy=\""50\"" r=\""10\"" fill=\""none\"" transform=\""translate(26 15)\"" stroke=\""cyan\"" />"",""<path d=\""M 50 57 L 50 43\"" stroke=\""black\"" transform=\""translate(26 15) rotate(-45 50 50)\""/>"",""<circle cx=\""50\"" cy=\""50\"" r=\""10\"" fill=\""none\"" transform=\""translate(0 30)\"" stroke=\""yellow\"" />"",""<path d=\""M 50 57 L 50 43\"" stroke=\""black\"" transform=\""translate(0 30) rotate(45 50 50)\""/>"",""<circle cx=\""50\"" cy=\""50\"" r=\""10\"" fill=\""none\"" transform=\""translate(-26 15)\"" stroke=\""black\"" />"",""<path d=\""M 50 57 L 50 43\"" stroke=\""black\"" transform=\""translate(-26 15) rotate(-45 50 50)\""/>"",""<circle cx=\""50\"" cy=\""50\"" r=\""10\"" fill=\""none\"" transform=\""translate(-26 -15)\"" stroke=\""magenta\"" />"",""<path d=\""M 50 57 L 50 43\"" stroke=\""black\"" transform=\""translate(-26 -15) rotate(-45 50 50)\""/>"",""<circle cx=\""50\"" cy=\""50\"" r=\""10\"" fill=\""none\"" transform=\""translate(0 -30)\"" stroke=\""red\"" />"",""<path d=\""M 50 57 L 50 43\"" stroke=\""black\"" transform=\""translate(0 -30) rotate(0 50 50)\""/>"",""<circle cx=\""50\"" cy=\""50\"" r=\""10\"" fill=\""none\"" transform=\""translate(26 -15)\"" stroke=\""blue\"" />"",""<path d=\""M 50 57 L 50 43\"" stroke=\""black\"" transform=\""translate(26 -15) rotate(-45 50 50)\""/>"",""</svg>""]","m","VDACtest","r","4","v","true","low","","","",""
"","html-keyboard-response","125","344717","0.0-3.0-2.26","y95","[""g""]","","null","<p style=""font-size:300%;""> + 2 points.</p><p style=""font-size:300%"">Total: 138 points.</p>","null","","","","","","","138","","",""
"","html-keyboard-response","126","346308","0.0-3.0-0.27","y95","[""g""]","","null","<svg viewBox=""0 0 100 100"" > <path d=""M 50 52 L 50 48"" stroke=""black"" stroke-width="".5""/> <path d=""M 52 50 L 48 50"" stroke=""black"" stroke-width="".5""/>","null","","","","","","","","","",""
"","html-keyboard-response","127","346862","0.0-3.0-1.27","y95","[""g""]","","550.8000000119209","[""<svg viewBox=\""0 0 100 100\"" >"",""<path d=\""M 50 52 L 50 48\"" stroke=\""black\"" stroke-width=\"".5\""/>"","" <path d=\""M 52 50 L 48 50\"" stroke=\""black\"" stroke-width=\"".5\""/>"",""<circle cx=\""50\"" cy=\""50\"" r=\""10\"" fill=\""none\"" transform=\""translate(26 15)\"" stroke=\""yellow\"" />"",""<path d=\""M 50 57 L 50 43\"" stroke=\""black\"" transform=\""translate(26 15) rotate(45 50 50)\""/>"",""<circle cx=\""50\"" cy=\""50\"" r=\""10\"" fill=\""none\"" transform=\""translate(0 30)\"" stroke=\""cyan\"" />"",""<path d=\""M 50 57 L 50 43\"" stroke=\""black\"" transform=\""translate(0 30) rotate(45 50 50)\""/>"",""<circle cx=\""50\"" cy=\""50\"" r=\""10\"" fill=\""none\"" transform=\""translate(-26 15)\"" stroke=\""red\"" />"",""<path d=\""M 50 57 L 50 43\"" stroke=\""black\"" transform=\""translate(-26 15) rotate(0 50 50)\""/>"",""<circle cx=\""50\"" cy=\""50\"" r=\""10\"" fill=\""none\"" transform=\""translate(-26 -15)\"" stroke=\""blue\"" />"",""<path d=\""M 50 57 L 50 43\"" stroke=\""black\"" transform=\""translate(-26 -15) rotate(45 50 50)\""/>"",""<circle cx=\""50\"" cy=\""50\"" r=\""10\"" fill=\""none\"" transform=\""translate(0 -30)\"" stroke=\""black\"" />"",""<path d=\""M 50 57 L 50 43\"" stroke=\""black\"" transform=\""translate(0 -30) rotate(-45 50 50)\""/>"",""<circle cx=\""50\"" cy=\""50\"" r=\""10\"" fill=\""none\"" transform=\""translate(26 -15)\"" stroke=\""magenta\"" />"",""<path d=\""M 50 57 L 50 43\"" stroke=\""black\"" transform=\""translate(26 -15) rotate(-45 50 50)\""/>"",""</svg>""]","m","VDACtest","r","2","v","true","low","","","",""
"","html-keyboard-response","128","349364","0.0-3.0-2.27","y95","[""g""]","","null","<p style=""font-size:300%;""> + 2 points.</p><p style=""font-size:300%"">Total: 140 points.</p>","null","","","","","","","140","","",""
"","html-keyboard-response","129","350952","0.0-3.0-0.28","y95","[""g""]","","null","<svg viewBox=""0 0 100 100"" > <path d=""M 50 52 L 50 48"" stroke=""black"" stroke-width="".5""/> <path d=""M 52 50 L 48 50"" stroke=""black"" stroke-width="".5""/>","null","","","","","","","","","",""
"","html-keyboard-response","130","351502","0.0-3.0-1.28","y95","[""g""]","","545.1000000238419","[""<svg viewBox=\""0 0 100 100\"" >"",""<path d=\""M 50 52 L 50 48\"" stroke=\""black\"" stroke-width=\"".5\""/>"","" <path d=\""M 52 50 L 48 50\"" stroke=\""black\"" stroke-width=\"".5\""/>"",""<circle cx=\""50\"" cy=\""50\"" r=\""10\"" fill=\""none\"" transform=\""translate(26 15)\"" stroke=\""cyan\"" />"",""<path d=\""M 50 57 L 50 43\"" stroke=\""black\"" transform=\""translate(26 15) rotate(45 50 50)\""/>"",""<circle cx=\""50\"" cy=\""50\"" r=\""10\"" fill=\""none\"" transform=\""translate(0 30)\"" stroke=\""yellow\"" />"",""<path d=\""M 50 57 L 50 43\"" stroke=\""black\"" transform=\""translate(0 30) rotate(-45 50 50)\""/>"",""<circle cx=\""50\"" cy=\""50\"" r=\""10\"" fill=\""none\"" transform=\""translate(-26 15)\"" stroke=\""red\"" />"",""<path d=\""M 50 57 L 50 43\"" stroke=\""black\"" transform=\""translate(-26 15) rotate(90 50 50)\""/>"",""<circle cx=\""50\"" cy=\""50\"" r=\""10\"" fill=\""none\"" transform=\""translate(-26 -15)\"" stroke=\""magenta\"" />"",""<path d=\""M 50 57 L 50 43\"" stroke=\""black\"" transform=\""translate(-26 -15) rotate(-45 50 50)\""/>"",""<circle cx=\""50\"" cy=\""50\"" r=\""10\"" fill=\""none\"" transform=\""translate(0 -30)\"" stroke=\""blue\"" />"",""<path d=\""M 50 57 L 50 43\"" stroke=\""black\"" transform=\""translate(0 -30) rotate(-45 50 50)\""/>"",""<circle cx=\""50\"" cy=\""50\"" r=\""10\"" fill=\""none\"" transform=\""translate(26 -15)\"" stroke=\""black\"" />"",""<path d=\""M 50 57 L 50 43\"" stroke=\""black\"" transform=\""translate(26 -15) rotate(-45 50 50)\""/>"",""</svg>""]","z","VDACtest","r","2","h","true","low","","","",""
"","html-keyboard-response","131","354004","0.0-3.0-2.28","y95","[""g""]","","null","<p style=""font-size:300%;""> + 10 points.</p><p style=""font-size:300%"">Total: 150 points.</p>","null","","","","","","","150","","",""
"","html-keyboard-response","132","355593","0.0-3.0-0.29","y95","[""g""]","","null","<svg viewBox=""0 0 100 100"" > <path d=""M 50 52 L 50 48"" stroke=""black"" stroke-width="".5""/> <path d=""M 52 50 L 48 50"" stroke=""black"" stroke-width="".5""/>","null","","","","","","","","","",""
"","html-keyboard-response","133","356038","0.0-3.0-1.29","y95","[""g""]","","441.5","[""<svg viewBox=\""0 0 100 100\"" >"",""<path d=\""M 50 52 L 50 48\"" stroke=\""black\"" stroke-width=\"".5\""/>"","" <path d=\""M 52 50 L 48 50\"" stroke=\""black\"" stroke-width=\"".5\""/>"",""<circle cx=\""50\"" cy=\""50\"" r=\""10\"" fill=\""none\"" transform=\""translate(26 15)\"" stroke=\""blue\"" />"",""<path d=\""M 50 57 L 50 43\"" stroke=\""black\"" transform=\""translate(26 15) rotate(45 50 50)\""/>"",""<circle cx=\""50\"" cy=\""50\"" r=\""10\"" fill=\""none\"" transform=\""translate(0 30)\"" stroke=\""yellow\"" />"",""<path d=\""M 50 57 L 50 43\"" stroke=\""black\"" transform=\""translate(0 30) rotate(45 50 50)\""/>"",""<circle cx=\""50\"" cy=\""50\"" r=\""10\"" fill=\""none\"" transform=\""translate(-26 15)\"" stroke=\""black\"" />"",""<path d=\""M 50 57 L 50 43\"" stroke=\""black\"" transform=\""translate(-26 15) rotate(-45 50 50)\""/>"",""<circle cx=\""50\"" cy=\""50\"" r=\""10\"" fill=\""none\"" transform=\""translate(-26 -15)\"" stroke=\""magenta\"" />"",""<path d=\""M 50 57 L 50 43\"" stroke=\""black\"" transform=\""translate(-26 -15) rotate(-45 50 50)\""/>"",""<circle cx=\""50\"" cy=\""50\"" r=\""10\"" fill=\""none\"" transform=\""translate(0 -30)\"" stroke=\""cyan\"" />"",""<path d=\""M 50 57 L 50 43\"" stroke=\""black\"" transform=\""translate(0 -30) rotate(45 50 50)\""/>"",""<circle cx=\""50\"" cy=\""50\"" r=\""10\"" fill=\""none\"" transform=\""translate(26 -15)\"" stroke=\""red\"" />"",""<path d=\""M 50 57 L 50 43\"" stroke=\""black\"" transform=\""translate(26 -15) rotate(0 50 50)\""/>"",""</svg>""]","m","VDACtest","r","5","v","true","low","","","",""
"","html-keyboard-response","134","358542","0.0-3.0-2.29","y95","[""g""]","","null","<p style=""font-size:300%;""> + 10 points.</p><p style=""font-size:300%"">Total: 160 points.</p>","null","","","","","","","160","","",""
"","html-keyboard-response","135","360131","0.0-3.0-0.30","y95","[""g""]","","null","<svg viewBox=""0 0 100 100"" > <path d=""M 50 52 L 50 48"" stroke=""black"" stroke-width="".5""/> <path d=""M 52 50 L 48 50"" stroke=""black"" stroke-width="".5""/>","null","","","","","","","","","",""
"","html-keyboard-response","136","360606","0.0-3.0-1.30","y95","[""g""]","","471.30000001192093","[""<svg viewBox=\""0 0 100 100\"" >"",""<path d=\""M 50 52 L 50 48\"" stroke=\""black\"" stroke-width=\"".5\""/>"","" <path d=\""M 52 50 L 48 50\"" stroke=\""black\"" stroke-width=\"".5\""/>"",""<circle cx=\""50\"" cy=\""50\"" r=\""10\"" fill=\""none\"" transform=\""translate(26 15)\"" stroke=\""lime\"" />"",""<path d=\""M 50 57 L 50 43\"" stroke=\""black\"" transform=\""translate(26 15) rotate(90 50 50)\""/>"",""<circle cx=\""50\"" cy=\""50\"" r=\""10\"" fill=\""none\"" transform=\""translate(0 30)\"" stroke=\""cyan\"" />"",""<path d=\""M 50 57 L 50 43\"" stroke=\""black\"" transform=\""translate(0 30) rotate(45 50 50)\""/>"",""<circle cx=\""50\"" cy=\""50\"" r=\""10\"" fill=\""none\"" transform=\""translate(-26 15)\"" stroke=\""yellow\"" />"",""<path d=\""M 50 57 L 50 43\"" stroke=\""black\"" transform=\""translate(-26 15) rotate(-45 50 50)\""/>"",""<circle cx=\""50\"" cy=\""50\"" r=\""10\"" fill=\""none\"" transform=\""translate(-26 -15)\"" stroke=\""blue\"" />"",""<path d=\""M 50 57 L 50 43\"" stroke=\""black\"" transform=\""translate(-26 -15) rotate(45 50 50)\""/>"",""<circle cx=\""50\"" cy=\""50\"" r=\""10\"" fill=\""none\"" transform=\""translate(0 -30)\"" stroke=\""magenta\"" />"",""<path d=\""M 50 57 L 50 43\"" stroke=\""black\"" transform=\""translate(0 -30) rotate(-45 50 50)\""/>"",""<circle cx=\""50\"" cy=\""50\"" r=\""10\"" fill=\""none\"" transform=\""translate(26 -15)\"" stroke=\""black\"" />"",""<path d=\""M 50 57 L 50 43\"" stroke=\""black\"" transform=\""translate(26 -15) rotate(45 50 50)\""/>"",""</svg>""]","z","VDACtest","g","0","h","true","high","","","",""
"","html-keyboard-response","137","363110","0.0-3.0-2.30","y95","[""g""]","","null","<p style=""font-size:300%;""> + 2 points.</p><p style=""font-size:300%"">Total: 162 points.</p>","null","","","","","","","162","","",""
"","html-keyboard-response","138","364700","0.0-3.0-0.31","y95","[""g""]","","null","<svg viewBox=""0 0 100 100"" > <path d=""M 50 52 L 50 48"" stroke=""black"" stroke-width="".5""/> <path d=""M 52 50 L 48 50"" stroke=""black"" stroke-width="".5""/>","null","","","","","","","","","",""
"","html-keyboard-response","139","365254","0.0-3.0-1.31","y95","[""g""]","","551.5","[""<svg viewBox=\""0 0 100 100\"" >"",""<path d=\""M 50 52 L 50 48\"" stroke=\""black\"" stroke-width=\"".5\""/>"","" <path d=\""M 52 50 L 48 50\"" stroke=\""black\"" stroke-width=\"".5\""/>"",""<circle cx=\""50\"" cy=\""50\"" r=\""10\"" fill=\""none\"" transform=\""translate(26 15)\"" stroke=\""black\"" />"",""<path d=\""M 50 57 L 50 43\"" stroke=\""black\"" transform=\""translate(26 15) rotate(45 50 50)\""/>"",""<circle cx=\""50\"" cy=\""50\"" r=\""10\"" fill=\""none\"" transform=\""translate(0 30)\"" stroke=\""magenta\"" />"",""<path d=\""M 50 57 L 50 43\"" stroke=\""black\"" transform=\""translate(0 30) rotate(45 50 50)\""/>"",""<circle cx=\""50\"" cy=\""50\"" r=\""10\"" fill=\""none\"" transform=\""translate(-26 15)\"" stroke=\""cyan\"" />"",""<path d=\""M 50 57 L 50 43\"" stroke=\""black\"" transform=\""translate(-26 15) rotate(45 50 50)\""/>"",""<circle cx=\""50\"" cy=\""50\"" r=\""10\"" fill=\""none\"" transform=\""translate(-26 -15)\"" stroke=\""yellow\"" />"",""<path d=\""M 50 57 L 50 43\"" stroke=\""black\"" transform=\""translate(-26 -15) rotate(-45 50 50)\""/>"",""<circle cx=\""50\"" cy=\""50\"" r=\""10\"" fill=\""none\"" transform=\""translate(0 -30)\"" stroke=\""lime\"" />"",""<path d=\""M 50 57 L 50 43\"" stroke=\""black\"" transform=\""translate(0 -30) rotate(90 50 50)\""/>"",""<circle cx=\""50\"" cy=\""50\"" r=\""10\"" fill=\""none\"" transform=\""translate(26 -15)\"" stroke=\""blue\"" />"",""<path d=\""M 50 57 L 50 43\"" stroke=\""black\"" transform=\""translate(26 -15) rotate(-45 50 50)\""/>"",""</svg>""]","z","VDACtest","g","4","h","true","high","","","",""
"","html-keyboard-response","140","367768","0.0-3.0-2.31","y95","[""g""]","","null","<p style=""font-size:300%;""> + 10 points.</p><p style=""font-size:300%"">Total: 172 points.</p>","null","","","","","","","172","","",""
"","html-keyboard-response","141","369358","0.0-3.0-0.32","y95","[""g""]","","null","<svg viewBox=""0 0 100 100"" > <path d=""M 50 52 L 50 48"" stroke=""black"" stroke-width="".5""/> <path d=""M 52 50 L 48 50"" stroke=""black"" stroke-width="".5""/>","null","","","","","","","","","",""
"","html-keyboard-response","142","369854","0.0-3.0-1.32","y95","[""g""]","","493.19999998807907","[""<svg viewBox=\""0 0 100 100\"" >"",""<path d=\""M 50 52 L 50 48\"" stroke=\""black\"" stroke-width=\"".5\""/>"","" <path d=\""M 52 50 L 48 50\"" stroke=\""black\"" stroke-width=\"".5\""/>"",""<circle cx=\""50\"" cy=\""50\"" r=\""10\"" fill=\""none\"" transform=\""translate(26 15)\"" stroke=\""red\"" />"",""<path d=\""M 50 57 L 50 43\"" stroke=\""black\"" transform=\""translate(26 15) rotate(0 50 50)\""/>"",""<circle cx=\""50\"" cy=\""50\"" r=\""10\"" fill=\""none\"" transform=\""translate(0 30)\"" stroke=\""magenta\"" />"",""<path d=\""M 50 57 L 50 43\"" stroke=\""black\"" transform=\""translate(0 30) rotate(-45 50 50)\""/>"",""<circle cx=\""50\"" cy=\""50\"" r=\""10\"" fill=\""none\"" transform=\""translate(-26 15)\"" stroke=\""blue\"" />"",""<path d=\""M 50 57 L 50 43\"" stroke=\""black\"" transform=\""translate(-26 15) rotate(45 50 50)\""/>"",""<circle cx=\""50\"" cy=\""50\"" r=\""10\"" fill=\""none\"" transform=\""translate(-26 -15)\"" stroke=\""cyan\"" />"",""<path d=\""M 50 57 L 50 43\"" stroke=\""black\"" transform=\""translate(-26 -15) rotate(45 50 50)\""/>"",""<circle cx=\""50\"" cy=\""50\"" r=\""10\"" fill=\""none\"" transform=\""translate(0 -30)\"" stroke=\""yellow\"" />"",""<path d=\""M 50 57 L 50 43\"" stroke=\""black\"" transform=\""translate(0 -30) rotate(45 50 50)\""/>"",""<circle cx=\""50\"" cy=\""50\"" r=\""10\"" fill=\""none\"" transform=\""translate(26 -15)\"" stroke=\""black\"" />"",""<path d=\""M 50 57 L 50 43\"" stroke=\""black\"" transform=\""translate(26 -15) rotate(-45 50 50)\""/>"",""</svg>""]","m","VDACtest","r","0","v","true","low","","","",""
"","html-keyboard-response","143","372356","0.0-3.0-2.32","y95","[""g""]","","null","<p style=""font-size:300%;""> + 2 points.</p><p style=""font-size:300%"">Total: 174 points.</p>","null","","","","","","","174","","",""
"","html-keyboard-response","144","373945","0.0-3.0-0.33","y95","[""g""]","","null","<svg viewBox=""0 0 100 100"" > <path d=""M 50 52 L 50 48"" stroke=""black"" stroke-width="".5""/> <path d=""M 52 50 L 48 50"" stroke=""black"" stroke-width="".5""/>","null","","","","","","","","","",""
