"success","trial_type","trial_index","time_elapsed","internal_node_id","subject","condition","rt","stimulus","key_press","url","responses","question_order","value","view_history","trialType","color","tgtPosition","orientation","correct","rewardType","reward","colorPosition"
"true","fullscreen","0","3598","0.0-0.0-0.0","s1ylc86720","green","","","","","","","","","","","","","","","",""
"","html-keyboard-response","1","12497","0.0-0.0-1.0","s1ylc86720","green","8888.59000010416","<div style= ""font-size:20px;"" <p> <strong> Welcome to the experiment! </strong><br> <p style=""color:red; font-size:25px;""> Please do NOT exit full screen until you are done with the experiment. </p><p style=""color:red;""> The experiment will be canceled and your data will be lost if you try to go back or refresh the page at any time during the experiment.</p><p style=""color:red;""> Please rely on your memory and do NOT write anything down throughout the experiment. </p><br><p style=""color:black;"">Press any key to continue.</p> </span>","32","","","","","","","","","","","","",""
"","external-html","2","52753","0.0-0.0-2.0","s1ylc86720","green","40201.54000003822","","","http://labs.psychology.illinois.edu/~jy57/memory_capture/supportFiles/Consent.html","","","","","","","","","","","",""
"","survey-text","3","61631","0.0-0.0-3.0","s1ylc86720","green","8840.555000118911","","","","{""Q0"":""22"",""Q1"":""4""}","","","","","","","","","","",""
"","survey-multi-select","4","64883","0.0-0.0-4.0","s1ylc86720","green","3237.680000020191","","","","{""Q0"":[""White""]}","[0]","","","","","","","","","",""
"","survey-multi-choice","5","73078","0.0-0.0-5.0","s1ylc86720","green","8171.839999966323","","","","{""Q0"":""Female"",""Q1"":""No"",""Q2"":""Somewhat better than average""}","[0,1,2]","","","","","","","","","",""
"","call-function","6","73102","0.0-0.0-6.0","s1ylc86720","green","","","","","","","","","","","","","","","",""
"","instructions","7","207125","0.0-1.0-0.0","s1ylc86720","green","134018.77999980934","","","","","","","[{""page_index"":0,""viewing_time"":31064.899999881163},{""page_index"":1,""viewing_time"":8290.920000057667},{""page_index"":2,""viewing_time"":1569.7200000286102},{""page_index"":3,""viewing_time"":6322.045000037178},{""page_index"":4,""viewing_time"":3844.969999976456},{""page_index"":5,""viewing_time"":41012.144999811426},{""page_index"":6,""viewing_time"":3342.0600001700222},{""page_index"":7,""viewing_time"":38571.28999987617}]","","","","","","","",""
"","html-keyboard-response","8","209132","0.0-1.0-1.0-0.0","s1ylc86720","green","null","<p>Place your fingers on the <b>Z</b> and <b>M</b> keys. The experiment will begin shortly.</p><p>&nbsp</p>","null","","","","","","","","","","","","",""
"","html-keyboard-response","9","210137","0.0-1.0-1.0-1.0","s1ylc86720","green","null","<p>Place your fingers on the <b>Z</b> and <b>M</b> keys. The experiment will begin shortly.</p><p>3</p>","null","","","","","","","","","","","","",""
"","html-keyboard-response","10","211155","0.0-1.0-1.0-2.0","s1ylc86720","green","null","<p>Place your fingers on the <b>Z</b> and <b>M</b> keys. The experiment will begin shortly.</p><p>2</p>","null","","","","","","","","","","","","",""
"","html-keyboard-response","11","212166","0.0-1.0-1.0-3.0","s1ylc86720","green","null","<p>Place your fingers on the <b>Z</b> and <b>M</b> keys. The experiment will begin shortly.</p><p>1</p>","null","","","","","","","","","","","","",""
"","html-keyboard-response","12","212691","0.0-1.0-2.0-0.0","s1ylc86720","green","null","<svg viewBox=""0 0 100 100"" > <path d=""M 50 52 L 50 48"" stroke=""black"" stroke-width="".5""/> <path d=""M 52 50 L 48 50"" stroke=""black"" stroke-width="".5""/>","null","","","","","","","","","","","","",""
"","html-keyboard-response","13","213707","0.0-1.0-2.0-1.0","s1ylc86720","green","null","<svg viewBox=""0 0 100 100"" ><text font-size=""10%"" text-anchor=""middle""  x=""50"" y=""98"">Press Z for horizontal or M for vertical</text><circle cx=""50"" cy=""50"" r=""10"" fill=""none"" transform=""translate( 26  15)"" stroke=""gold"" /><circle cx=""50"" cy=""50"" r=""10"" fill=""none"" transform=""translate(  0  30)"" stroke=""blueviolet"" /><circle cx=""50"" cy=""50"" r=""10"" fill=""none"" transform=""translate(-26  15)"" stroke=""black"" /><circle cx=""50"" cy=""50"" r=""10"" fill=""none"" transform=""translate(-26 -15)"" stroke=""red"" /><circle cx=""50"" cy=""50"" r=""10"" fill=""none"" transform=""translate(  0 -30)"" stroke=""magenta"" /><circle cx=""50"" cy=""50"" r=""10"" fill=""none"" transform=""translate( 26 -15)"" stroke=""cyan"" /><path d=""M 50 57 L 50 43"" stroke=""black"" transform=""translate( 26  15) rotate(-45 50 50)""/><path d=""M 50 57 L 50 43"" stroke=""black"" transform=""translate(  0  30) rotate(-45 50 50)""/><path d=""M 50 57 L 50 43"" stroke=""black"" transform=""translate(-26  15) rotate(45 50 50)""/><path d=""M 50 57 L 50 43"" stroke=""black"" transform=""translate(-26 -15) rotate(0 50 50)""/><path d=""M 50 57 L 50 43"" stroke=""black"" transform=""translate(  0 -30) rotate(45 50 50)""/><path d=""M 50 57 L 50 43"" stroke=""black"" transform=""translate( 26 -15) rotate(-45 50 50)""/><path d=""M 50 52 L 50 48"" stroke=""black"" stroke-width="".5""/> <path d=""M 52 50 L 48 50"" stroke=""black"" stroke-width="".5""/></svg>","null","","","","","","VDACtraining","red","3","vertical","null","","",""
"","html-keyboard-response","14","216226","0.0-1.0-2.0-2.0","s1ylc86720","green","null","<p style=""font-size:300%;"">Miss.</p> <p style=""font-size:300%;"">Too slow.</p>","null","","","","","","","","","","","","",""
"","html-keyboard-response","15","217759","0.0-1.0-2.0-0.1","s1ylc86720","green","null","<svg viewBox=""0 0 100 100"" > <path d=""M 50 52 L 50 48"" stroke=""black"" stroke-width="".5""/> <path d=""M 52 50 L 48 50"" stroke=""black"" stroke-width="".5""/>","null","","","","","","","","","","","","",""
"","html-keyboard-response","16","218581","0.0-1.0-2.0-1.1","s1ylc86720","green","812.6850000116974","<svg viewBox=""0 0 100 100"" ><text font-size=""10%"" text-anchor=""middle""  x=""50"" y=""98"">Press Z for horizontal or M for vertical</text><circle cx=""50"" cy=""50"" r=""10"" fill=""none"" transform=""translate( 26  15)"" stroke=""gold"" /><circle cx=""50"" cy=""50"" r=""10"" fill=""none"" transform=""translate(  0  30)"" stroke=""magenta"" /><circle cx=""50"" cy=""50"" r=""10"" fill=""none"" transform=""translate(-26  15)"" stroke=""red"" /><circle cx=""50"" cy=""50"" r=""10"" fill=""none"" transform=""translate(-26 -15)"" stroke=""black"" /><circle cx=""50"" cy=""50"" r=""10"" fill=""none"" transform=""translate(  0 -30)"" stroke=""cyan"" /><circle cx=""50"" cy=""50"" r=""10"" fill=""none"" transform=""translate( 26 -15)"" stroke=""blueviolet"" /><path d=""M 50 57 L 50 43"" stroke=""black"" transform=""translate( 26  15) rotate(45 50 50)""/><path d=""M 50 57 L 50 43"" stroke=""black"" transform=""translate(  0  30) rotate(45 50 50)""/><path d=""M 50 57 L 50 43"" stroke=""black"" transform=""translate(-26  15) rotate(90 50 50)""/><path d=""M 50 57 L 50 43"" stroke=""black"" transform=""translate(-26 -15) rotate(-45 50 50)""/><path d=""M 50 57 L 50 43"" stroke=""black"" transform=""translate(  0 -30) rotate(-45 50 50)""/><path d=""M 50 57 L 50 43"" stroke=""black"" transform=""translate( 26 -15) rotate(45 50 50)""/><path d=""M 50 52 L 50 48"" stroke=""black"" stroke-width="".5""/> <path d=""M 52 50 L 48 50"" stroke=""black"" stroke-width="".5""/></svg>","90","","","","","","VDACtraining","red","2","horizontal","true","","",""
"","html-keyboard-response","17","221107","0.0-1.0-2.0-2.1","s1ylc86720","green","null","<p style=""font-size:300%;"">Correct!</p>","null","","","","","","","","","","","","",""
"","html-keyboard-response","18","222643","0.0-1.0-2.0-0.2","s1ylc86720","green","null","<svg viewBox=""0 0 100 100"" > <path d=""M 50 52 L 50 48"" stroke=""black"" stroke-width="".5""/> <path d=""M 52 50 L 48 50"" stroke=""black"" stroke-width="".5""/>","null","","","","","","","","","","","","",""
"","html-keyboard-response","19","223662","0.0-1.0-2.0-1.2","s1ylc86720","green","null","<svg viewBox=""0 0 100 100"" ><text font-size=""10%"" text-anchor=""middle""  x=""50"" y=""98"">Press Z for horizontal or M for vertical</text><circle cx=""50"" cy=""50"" r=""10"" fill=""none"" transform=""translate( 26  15)"" stroke=""blueviolet"" /><circle cx=""50"" cy=""50"" r=""10"" fill=""none"" transform=""translate(  0  30)"" stroke=""gold"" /><circle cx=""50"" cy=""50"" r=""10"" fill=""none"" transform=""translate(-26  15)"" stroke=""cyan"" /><circle cx=""50"" cy=""50"" r=""10"" fill=""none"" transform=""translate(-26 -15)"" stroke=""magenta"" /><circle cx=""50"" cy=""50"" r=""10"" fill=""none"" transform=""translate(  0 -30)"" stroke=""black"" /><circle cx=""50"" cy=""50"" r=""10"" fill=""none"" transform=""translate( 26 -15)"" stroke=""green"" /><path d=""M 50 57 L 50 43"" stroke=""black"" transform=""translate( 26  15) rotate(-45 50 50)""/><path d=""M 50 57 L 50 43"" stroke=""black"" transform=""translate(  0  30) rotate(-45 50 50)""/><path d=""M 50 57 L 50 43"" stroke=""black"" transform=""translate(-26  15) rotate(45 50 50)""/><path d=""M 50 57 L 50 43"" stroke=""black"" transform=""translate(-26 -15) rotate(-45 50 50)""/><path d=""M 50 57 L 50 43"" stroke=""black"" transform=""translate(  0 -30) rotate(45 50 50)""/><path d=""M 50 57 L 50 43"" stroke=""black"" transform=""translate( 26 -15) rotate(90 50 50)""/><path d=""M 50 52 L 50 48"" stroke=""black"" stroke-width="".5""/> <path d=""M 52 50 L 48 50"" stroke=""black"" stroke-width="".5""/></svg>","null","","","","","","VDACtraining","green","5","horizontal","null","","",""
"","html-keyboard-response","20","226177","0.0-1.0-2.0-2.2","s1ylc86720","green","null","<p style=""font-size:300%;"">Miss.</p> <p style=""font-size:300%;"">Too slow.</p>","null","","","","","","","","","","","","",""
"","html-keyboard-response","21","227715","0.0-1.0-2.0-0.3","s1ylc86720","green","null","<svg viewBox=""0 0 100 100"" > <path d=""M 50 52 L 50 48"" stroke=""black"" stroke-width="".5""/> <path d=""M 52 50 L 48 50"" stroke=""black"" stroke-width="".5""/>","null","","","","","","","","","","","","",""
"","html-keyboard-response","22","228348","0.0-1.0-2.0-1.3","s1ylc86720","green","622.1999998670071","<svg viewBox=""0 0 100 100"" ><text font-size=""10%"" text-anchor=""middle""  x=""50"" y=""98"">Press Z for horizontal or M for vertical</text><circle cx=""50"" cy=""50"" r=""10"" fill=""none"" transform=""translate( 26  15)"" stroke=""gold"" /><circle cx=""50"" cy=""50"" r=""10"" fill=""none"" transform=""translate(  0  30)"" stroke=""blueviolet"" /><circle cx=""50"" cy=""50"" r=""10"" fill=""none"" transform=""translate(-26  15)"" stroke=""black"" /><circle cx=""50"" cy=""50"" r=""10"" fill=""none"" transform=""translate(-26 -15)"" stroke=""magenta"" /><circle cx=""50"" cy=""50"" r=""10"" fill=""none"" transform=""translate(  0 -30)"" stroke=""cyan"" /><circle cx=""50"" cy=""50"" r=""10"" fill=""none"" transform=""translate( 26 -15)"" stroke=""red"" /><path d=""M 50 57 L 50 43"" stroke=""black"" transform=""translate( 26  15) rotate(-45 50 50)""/><path d=""M 50 57 L 50 43"" stroke=""black"" transform=""translate(  0  30) rotate(-45 50 50)""/><path d=""M 50 57 L 50 43"" stroke=""black"" transform=""translate(-26  15) rotate(-45 50 50)""/><path d=""M 50 57 L 50 43"" stroke=""black"" transform=""translate(-26 -15) rotate(45 50 50)""/><path d=""M 50 57 L 50 43"" stroke=""black"" transform=""translate(  0 -30) rotate(-45 50 50)""/><path d=""M 50 57 L 50 43"" stroke=""black"" transform=""translate( 26 -15) rotate(0 50 50)""/><path d=""M 50 52 L 50 48"" stroke=""black"" stroke-width="".5""/> <path d=""M 52 50 L 48 50"" stroke=""black"" stroke-width="".5""/></svg>","77","","","","","","VDACtraining","red","5","vertical","true","","",""
"","html-keyboard-response","23","230860","0.0-1.0-2.0-2.3","s1ylc86720","green","null","<p style=""font-size:300%;"">Correct!</p>","null","","","","","","","","","","","","",""
"","html-keyboard-response","24","232408","0.0-1.0-2.0-0.4","s1ylc86720","green","null","<svg viewBox=""0 0 100 100"" > <path d=""M 50 52 L 50 48"" stroke=""black"" stroke-width="".5""/> <path d=""M 52 50 L 48 50"" stroke=""black"" stroke-width="".5""/>","null","","","","","","","","","","","","",""
"","html-keyboard-response","25","233263","0.0-1.0-2.0-1.4","s1ylc86720","green","848.1250000186265","<svg viewBox=""0 0 100 100"" ><text font-size=""10%"" text-anchor=""middle""  x=""50"" y=""98"">Press Z for horizontal or M for vertical</text><circle cx=""50"" cy=""50"" r=""10"" fill=""none"" transform=""translate( 26  15)"" stroke=""magenta"" /><circle cx=""50"" cy=""50"" r=""10"" fill=""none"" transform=""translate(  0  30)"" stroke=""green"" /><circle cx=""50"" cy=""50"" r=""10"" fill=""none"" transform=""translate(-26  15)"" stroke=""cyan"" /><circle cx=""50"" cy=""50"" r=""10"" fill=""none"" transform=""translate(-26 -15)"" stroke=""blueviolet"" /><circle cx=""50"" cy=""50"" r=""10"" fill=""none"" transform=""translate(  0 -30)"" stroke=""gold"" /><circle cx=""50"" cy=""50"" r=""10"" fill=""none"" transform=""translate( 26 -15)"" stroke=""black"" /><path d=""M 50 57 L 50 43"" stroke=""black"" transform=""translate( 26  15) rotate(-45 50 50)""/><path d=""M 50 57 L 50 43"" stroke=""black"" transform=""translate(  0  30) rotate(90 50 50)""/><path d=""M 50 57 L 50 43"" stroke=""black"" transform=""translate(-26  15) rotate(-45 50 50)""/><path d=""M 50 57 L 50 43"" stroke=""black"" transform=""translate(-26 -15) rotate(-45 50 50)""/><path d=""M 50 57 L 50 43"" stroke=""black"" transform=""translate(  0 -30) rotate(-45 50 50)""/><path d=""M 50 57 L 50 43"" stroke=""black"" transform=""translate( 26 -15) rotate(-45 50 50)""/><path d=""M 50 52 L 50 48"" stroke=""black"" stroke-width="".5""/> <path d=""M 52 50 L 48 50"" stroke=""black"" stroke-width="".5""/></svg>","77","","","","","","VDACtraining","green","1","horizontal","false","","",""
"","html-keyboard-response","26","235795","0.0-1.0-2.0-2.4","s1ylc86720","green","null","<p style=""font-size:300%;"">Miss.</p> <p style=""font-size:300%;"">Wrong response.</p>","null","","","","","","","","","","","","",""
"","html-keyboard-response","27","237335","0.0-1.0-2.0-0.5","s1ylc86720","green","null","<svg viewBox=""0 0 100 100"" > <path d=""M 50 52 L 50 48"" stroke=""black"" stroke-width="".5""/> <path d=""M 52 50 L 48 50"" stroke=""black"" stroke-width="".5""/>","null","","","","","","","","","","","","",""
"","html-keyboard-response","28","238313","0.0-1.0-2.0-1.5","s1ylc86720","green","966.4000000339001","<svg viewBox=""0 0 100 100"" ><text font-size=""10%"" text-anchor=""middle""  x=""50"" y=""98"">Press Z for horizontal or M for vertical</text><circle cx=""50"" cy=""50"" r=""10"" fill=""none"" transform=""translate( 26  15)"" stroke=""magenta"" /><circle cx=""50"" cy=""50"" r=""10"" fill=""none"" transform=""translate(  0  30)"" stroke=""cyan"" /><circle cx=""50"" cy=""50"" r=""10"" fill=""none"" transform=""translate(-26  15)"" stroke=""green"" /><circle cx=""50"" cy=""50"" r=""10"" fill=""none"" transform=""translate(-26 -15)"" stroke=""black"" /><circle cx=""50"" cy=""50"" r=""10"" fill=""none"" transform=""translate(  0 -30)"" stroke=""gold"" /><circle cx=""50"" cy=""50"" r=""10"" fill=""none"" transform=""translate( 26 -15)"" stroke=""blueviolet"" /><path d=""M 50 57 L 50 43"" stroke=""black"" transform=""translate( 26  15) rotate(45 50 50)""/><path d=""M 50 57 L 50 43"" stroke=""black"" transform=""translate(  0  30) rotate(45 50 50)""/><path d=""M 50 57 L 50 43"" stroke=""black"" transform=""translate(-26  15) rotate(0 50 50)""/><path d=""M 50 57 L 50 43"" stroke=""black"" transform=""translate(-26 -15) rotate(-45 50 50)""/><path d=""M 50 57 L 50 43"" stroke=""black"" transform=""translate(  0 -30) rotate(45 50 50)""/><path d=""M 50 57 L 50 43"" stroke=""black"" transform=""translate( 26 -15) rotate(-45 50 50)""/><path d=""M 50 52 L 50 48"" stroke=""black"" stroke-width="".5""/> <path d=""M 52 50 L 48 50"" stroke=""black"" stroke-width="".5""/></svg>","77","","","","","","VDACtraining","green","2","vertical","true","","",""
"","html-keyboard-response","29","240826","0.0-1.0-2.0-2.5","s1ylc86720","green","null","<p style=""font-size:300%;"">Correct!</p>","null","","","","","","","","","","","","",""
"","html-keyboard-response","30","242373","0.0-1.0-2.0-0.6","s1ylc86720","green","null","<svg viewBox=""0 0 100 100"" > <path d=""M 50 52 L 50 48"" stroke=""black"" stroke-width="".5""/> <path d=""M 52 50 L 48 50"" stroke=""black"" stroke-width="".5""/>","null","","","","","","","","","","","","",""
"","html-keyboard-response","31","243382","0.0-1.0-2.0-1.6","s1ylc86720","green","null","<svg viewBox=""0 0 100 100"" ><text font-size=""10%"" text-anchor=""middle""  x=""50"" y=""98"">Press Z for horizontal or M for vertical</text><circle cx=""50"" cy=""50"" r=""10"" fill=""none"" transform=""translate( 26  15)"" stroke=""cyan"" /><circle cx=""50"" cy=""50"" r=""10"" fill=""none"" transform=""translate(  0  30)"" stroke=""blueviolet"" /><circle cx=""50"" cy=""50"" r=""10"" fill=""none"" transform=""translate(-26  15)"" stroke=""gold"" /><circle cx=""50"" cy=""50"" r=""10"" fill=""none"" transform=""translate(-26 -15)"" stroke=""black"" /><circle cx=""50"" cy=""50"" r=""10"" fill=""none"" transform=""translate(  0 -30)"" stroke=""red"" /><circle cx=""50"" cy=""50"" r=""10"" fill=""none"" transform=""translate( 26 -15)"" stroke=""magenta"" /><path d=""M 50 57 L 50 43"" stroke=""black"" transform=""translate( 26  15) rotate(-45 50 50)""/><path d=""M 50 57 L 50 43"" stroke=""black"" transform=""translate(  0  30) rotate(45 50 50)""/><path d=""M 50 57 L 50 43"" stroke=""black"" transform=""translate(-26  15) rotate(-45 50 50)""/><path d=""M 50 57 L 50 43"" stroke=""black"" transform=""translate(-26 -15) rotate(-45 50 50)""/><path d=""M 50 57 L 50 43"" stroke=""black"" transform=""translate(  0 -30) rotate(90 50 50)""/><path d=""M 50 57 L 50 43"" stroke=""black"" transform=""translate( 26 -15) rotate(-45 50 50)""/><path d=""M 50 52 L 50 48"" stroke=""black"" stroke-width="".5""/> <path d=""M 52 50 L 48 50"" stroke=""black"" stroke-width="".5""/></svg>","null","","","","","","VDACtraining","red","4","horizontal","null","","",""
"","html-keyboard-response","32","245912","0.0-1.0-2.0-2.6","s1ylc86720","green","null","<p style=""font-size:300%;"">Miss.</p> <p style=""font-size:300%;"">Too slow.</p>","null","","","","","","","","","","","","",""
"","html-keyboard-response","33","247453","0.0-1.0-2.0-0.7","s1ylc86720","green","null","<svg viewBox=""0 0 100 100"" > <path d=""M 50 52 L 50 48"" stroke=""black"" stroke-width="".5""/> <path d=""M 52 50 L 48 50"" stroke=""black"" stroke-width="".5""/>","null","","","","","","","","","","","","",""
"","html-keyboard-response","34","248156","0.0-1.0-2.0-1.7","s1ylc86720","green","692.8650001063943","<svg viewBox=""0 0 100 100"" ><text font-size=""10%"" text-anchor=""middle""  x=""50"" y=""98"">Press Z for horizontal or M for vertical</text><circle cx=""50"" cy=""50"" r=""10"" fill=""none"" transform=""translate( 26  15)"" stroke=""magenta"" /><circle cx=""50"" cy=""50"" r=""10"" fill=""none"" transform=""translate(  0  30)"" stroke=""red"" /><circle cx=""50"" cy=""50"" r=""10"" fill=""none"" transform=""translate(-26  15)"" stroke=""cyan"" /><circle cx=""50"" cy=""50"" r=""10"" fill=""none"" transform=""translate(-26 -15)"" stroke=""blueviolet"" /><circle cx=""50"" cy=""50"" r=""10"" fill=""none"" transform=""translate(  0 -30)"" stroke=""gold"" /><circle cx=""50"" cy=""50"" r=""10"" fill=""none"" transform=""translate( 26 -15)"" stroke=""black"" /><path d=""M 50 57 L 50 43"" stroke=""black"" transform=""translate( 26  15) rotate(-45 50 50)""/><path d=""M 50 57 L 50 43"" stroke=""black"" transform=""translate(  0  30) rotate(0 50 50)""/><path d=""M 50 57 L 50 43"" stroke=""black"" transform=""translate(-26  15) rotate(-45 50 50)""/><path d=""M 50 57 L 50 43"" stroke=""black"" transform=""translate(-26 -15) rotate(-45 50 50)""/><path d=""M 50 57 L 50 43"" stroke=""black"" transform=""translate(  0 -30) rotate(45 50 50)""/><path d=""M 50 57 L 50 43"" stroke=""black"" transform=""translate( 26 -15) rotate(-45 50 50)""/><path d=""M 50 52 L 50 48"" stroke=""black"" stroke-width="".5""/> <path d=""M 52 50 L 48 50"" stroke=""black"" stroke-width="".5""/></svg>","77","","","","","","VDACtraining","red","1","vertical","true","","",""
"","html-keyboard-response","35","250665","0.0-1.0-2.0-2.7","s1ylc86720","green","null","<p style=""font-size:300%;"">Correct!</p>","null","","","","","","","","","","","","",""
"","html-keyboard-response","36","252193","0.0-1.0-2.0-0.8","s1ylc86720","green","null","<svg viewBox=""0 0 100 100"" > <path d=""M 50 52 L 50 48"" stroke=""black"" stroke-width="".5""/> <path d=""M 52 50 L 48 50"" stroke=""black"" stroke-width="".5""/>","null","","","","","","","","","","","","",""
"","html-keyboard-response","37","253210","0.0-1.0-2.0-1.8","s1ylc86720","green","null","<svg viewBox=""0 0 100 100"" ><text font-size=""10%"" text-anchor=""middle""  x=""50"" y=""98"">Press Z for horizontal or M for vertical</text><circle cx=""50"" cy=""50"" r=""10"" fill=""none"" transform=""translate( 26  15)"" stroke=""green"" /><circle cx=""50"" cy=""50"" r=""10"" fill=""none"" transform=""translate(  0  30)"" stroke=""gold"" /><circle cx=""50"" cy=""50"" r=""10"" fill=""none"" transform=""translate(-26  15)"" stroke=""black"" /><circle cx=""50"" cy=""50"" r=""10"" fill=""none"" transform=""translate(-26 -15)"" stroke=""cyan"" /><circle cx=""50"" cy=""50"" r=""10"" fill=""none"" transform=""translate(  0 -30)"" stroke=""blueviolet"" /><circle cx=""50"" cy=""50"" r=""10"" fill=""none"" transform=""translate( 26 -15)"" stroke=""magenta"" /><path d=""M 50 57 L 50 43"" stroke=""black"" transform=""translate( 26  15) rotate(0 50 50)""/><path d=""M 50 57 L 50 43"" stroke=""black"" transform=""translate(  0  30) rotate(45 50 50)""/><path d=""M 50 57 L 50 43"" stroke=""black"" transform=""translate(-26  15) rotate(-45 50 50)""/><path d=""M 50 57 L 50 43"" stroke=""black"" transform=""translate(-26 -15) rotate(-45 50 50)""/><path d=""M 50 57 L 50 43"" stroke=""black"" transform=""translate(  0 -30) rotate(-45 50 50)""/><path d=""M 50 57 L 50 43"" stroke=""black"" transform=""translate( 26 -15) rotate(45 50 50)""/><path d=""M 50 52 L 50 48"" stroke=""black"" stroke-width="".5""/> <path d=""M 52 50 L 48 50"" stroke=""black"" stroke-width="".5""/></svg>","null","","","","","","VDACtraining","green","0","vertical","null","","",""
"","html-keyboard-response","38","255731","0.0-1.0-2.0-2.8","s1ylc86720","green","null","<p style=""font-size:300%;"">Miss.</p> <p style=""font-size:300%;"">Too slow.</p>","null","","","","","","","","","","","","",""
"","html-keyboard-response","39","257270","0.0-1.0-2.0-0.9","s1ylc86720","green","null","<svg viewBox=""0 0 100 100"" > <path d=""M 50 52 L 50 48"" stroke=""black"" stroke-width="".5""/> <path d=""M 52 50 L 48 50"" stroke=""black"" stroke-width="".5""/>","null","","","","","","","","","","","","",""
"","html-keyboard-response","40","258283","0.0-1.0-2.0-1.9","s1ylc86720","green","null","<svg viewBox=""0 0 100 100"" ><text font-size=""10%"" text-anchor=""middle""  x=""50"" y=""98"">Press Z for horizontal or M for vertical</text><circle cx=""50"" cy=""50"" r=""10"" fill=""none"" transform=""translate( 26  15)"" stroke=""gold"" /><circle cx=""50"" cy=""50"" r=""10"" fill=""none"" transform=""translate(  0  30)"" stroke=""cyan"" /><circle cx=""50"" cy=""50"" r=""10"" fill=""none"" transform=""translate(-26  15)"" stroke=""black"" /><circle cx=""50"" cy=""50"" r=""10"" fill=""none"" transform=""translate(-26 -15)"" stroke=""green"" /><circle cx=""50"" cy=""50"" r=""10"" fill=""none"" transform=""translate(  0 -30)"" stroke=""magenta"" /><circle cx=""50"" cy=""50"" r=""10"" fill=""none"" transform=""translate( 26 -15)"" stroke=""blueviolet"" /><path d=""M 50 57 L 50 43"" stroke=""black"" transform=""translate( 26  15) rotate(-45 50 50)""/><path d=""M 50 57 L 50 43"" stroke=""black"" transform=""translate(  0  30) rotate(45 50 50)""/><path d=""M 50 57 L 50 43"" stroke=""black"" transform=""translate(-26  15) rotate(45 50 50)""/><path d=""M 50 57 L 50 43"" stroke=""black"" transform=""translate(-26 -15) rotate(90 50 50)""/><path d=""M 50 57 L 50 43"" stroke=""black"" transform=""translate(  0 -30) rotate(45 50 50)""/><path d=""M 50 57 L 50 43"" stroke=""black"" transform=""translate( 26 -15) rotate(-45 50 50)""/><path d=""M 50 52 L 50 48"" stroke=""black"" stroke-width="".5""/> <path d=""M 52 50 L 48 50"" stroke=""black"" stroke-width="".5""/></svg>","null","","","","","","VDACtraining","green","3","horizontal","null","","",""
"","html-keyboard-response","41","260806","0.0-1.0-2.0-2.9","s1ylc86720","green","null","<p style=""font-size:300%;"">Miss.</p> <p style=""font-size:300%;"">Too slow.</p>","null","","","","","","","","","","","","",""
"","call-function","42","261822","0.0-1.0-3.0","s1ylc86720","green","","","","","","","","","","","","","","","",""
"","html-keyboard-response","43","279205","0.0-1.0-4.0","s1ylc86720","green","17381.575000006706","<p>You have now finished the training exercise. If you would like to repeat the instructions and training exercise, press R. If you are ready to continue to the task, press C. </p>","67","","","","","","","","","","","","",""
"","html-keyboard-response","44","281217","0.0-2.0-0.0","s1ylc86720","green","null","<p>Place your fingers on the <b>Z</b> and <b>M</b> keys. The experiment will begin shortly.</p><p>&nbsp</p>","null","","","","","","","","","","","","",""
"","html-keyboard-response","45","282235","0.0-2.0-1.0","s1ylc86720","green","null","<p>Place your fingers on the <b>Z</b> and <b>M</b> keys. The experiment will begin shortly.</p><p>3</p>","null","","","","","","","","","","","","",""
"","html-keyboard-response","46","283241","0.0-2.0-2.0","s1ylc86720","green","null","<p>Place your fingers on the <b>Z</b> and <b>M</b> keys. The experiment will begin shortly.</p><p>2</p>","null","","","","","","","","","","","","",""
"","html-keyboard-response","47","284246","0.0-2.0-3.0","s1ylc86720","green","null","<p>Place your fingers on the <b>Z</b> and <b>M</b> keys. The experiment will begin shortly.</p><p>1</p>","null","","","","","","","","","","","","",""
"","html-keyboard-response","48","284775","0.0-3.0-0.0-0.0","s1ylc86720","green","null","<svg viewBox=""0 0 100 100"" > <path d=""M 50 52 L 50 48"" stroke=""black"" stroke-width="".5""/> <path d=""M 52 50 L 48 50"" stroke=""black"" stroke-width="".5""/>","null","","","","","","","","","","","","",""
"","html-keyboard-response","49","285574","0.0-3.0-0.0-1.0","s1ylc86720","green","789.5749998278916","<svg viewBox=""0 0 100 100"" ><circle cx=""50"" cy=""50"" r=""10"" fill=""none"" transform=""translate( 26  15)"" stroke=""cyan"" /><circle cx=""50"" cy=""50"" r=""10"" fill=""none"" transform=""translate(  0  30)"" stroke=""black"" /><circle cx=""50"" cy=""50"" r=""10"" fill=""none"" transform=""translate(-26  15)"" stroke=""gold"" /><circle cx=""50"" cy=""50"" r=""10"" fill=""none"" transform=""translate(-26 -15)"" stroke=""magenta"" /><circle cx=""50"" cy=""50"" r=""10"" fill=""none"" transform=""translate(  0 -30)"" stroke=""red"" /><circle cx=""50"" cy=""50"" r=""10"" fill=""none"" transform=""translate( 26 -15)"" stroke=""blueviolet"" /><path d=""M 50 57 L 50 43"" stroke=""black"" transform=""translate( 26  15) rotate(-45 50 50)""/><path d=""M 50 57 L 50 43"" stroke=""black"" transform=""translate(  0  30) rotate(45 50 50)""/><path d=""M 50 57 L 50 43"" stroke=""black"" transform=""translate(-26  15) rotate(45 50 50)""/><path d=""M 50 57 L 50 43"" stroke=""black"" transform=""translate(-26 -15) rotate(45 50 50)""/><path d=""M 50 57 L 50 43"" stroke=""black"" transform=""translate(  0 -30) rotate(0 50 50)""/><path d=""M 50 57 L 50 43"" stroke=""black"" transform=""translate( 26 -15) rotate(-45 50 50)""/><path d=""M 50 52 L 50 48"" stroke=""black"" stroke-width="".5""/> <path d=""M 52 50 L 48 50"" stroke=""black"" stroke-width="".5""/></svg>","77","","","","","","VDACtest","red","5th","vertical","true","low","",""
"","html-keyboard-response","50","288095","0.0-3.0-0.0-2.0","s1ylc86720","green","null","<p style=""font-size:300%;""> + 2 points.</p><p style=""font-size:300%"">Total: 2 points.</p>","null","","","","","","","","","","","","2",""
"","html-keyboard-response","51","289637","0.0-3.0-0.0-0.1","s1ylc86720","green","null","<svg viewBox=""0 0 100 100"" > <path d=""M 50 52 L 50 48"" stroke=""black"" stroke-width="".5""/> <path d=""M 52 50 L 48 50"" stroke=""black"" stroke-width="".5""/>","null","","","","","","","","","","","","",""
"","html-keyboard-response","52","290276","0.0-3.0-0.0-1.1","s1ylc86720","green","631.2949999701232","<svg viewBox=""0 0 100 100"" ><circle cx=""50"" cy=""50"" r=""10"" fill=""none"" transform=""translate( 26  15)"" stroke=""magenta"" /><circle cx=""50"" cy=""50"" r=""10"" fill=""none"" transform=""translate(  0  30)"" stroke=""black"" /><circle cx=""50"" cy=""50"" r=""10"" fill=""none"" transform=""translate(-26  15)"" stroke=""blueviolet"" /><circle cx=""50"" cy=""50"" r=""10"" fill=""none"" transform=""translate(-26 -15)"" stroke=""red"" /><circle cx=""50"" cy=""50"" r=""10"" fill=""none"" transform=""translate(  0 -30)"" stroke=""gold"" /><circle cx=""50"" cy=""50"" r=""10"" fill=""none"" transform=""translate( 26 -15)"" stroke=""cyan"" /><path d=""M 50 57 L 50 43"" stroke=""black"" transform=""translate( 26  15) rotate(45 50 50)""/><path d=""M 50 57 L 50 43"" stroke=""black"" transform=""translate(  0  30) rotate(-45 50 50)""/><path d=""M 50 57 L 50 43"" stroke=""black"" transform=""translate(-26  15) rotate(-45 50 50)""/><path d=""M 50 57 L 50 43"" stroke=""black"" transform=""translate(-26 -15) rotate(90 50 50)""/><path d=""M 50 57 L 50 43"" stroke=""black"" transform=""translate(  0 -30) rotate(-45 50 50)""/><path d=""M 50 57 L 50 43"" stroke=""black"" transform=""translate( 26 -15) rotate(-45 50 50)""/><path d=""M 50 52 L 50 48"" stroke=""black"" stroke-width="".5""/> <path d=""M 52 50 L 48 50"" stroke=""black"" stroke-width="".5""/></svg>","77","","","","","","VDACtest","red","4th","horizontal","false","low","",""
"","html-keyboard-response","53","292800","0.0-3.0-0.0-2.1","s1ylc86720","green","null","<p style=""font-size:300%;"">Miss.</p><p style=""font-size:300%"">Total: 2 points.</p>","null","","","","","","","","","","","","2",""
"","html-keyboard-response","54","294340","0.0-3.0-0.0-0.2","s1ylc86720","green","null","<svg viewBox=""0 0 100 100"" > <path d=""M 50 52 L 50 48"" stroke=""black"" stroke-width="".5""/> <path d=""M 52 50 L 48 50"" stroke=""black"" stroke-width="".5""/>","null","","","","","","","","","","","","",""
"","html-keyboard-response","55","295388","0.0-3.0-0.0-1.2","s1ylc86720","green","null","<svg viewBox=""0 0 100 100"" ><circle cx=""50"" cy=""50"" r=""10"" fill=""none"" transform=""translate( 26  15)"" stroke=""blueviolet"" /><circle cx=""50"" cy=""50"" r=""10"" fill=""none"" transform=""translate(  0  30)"" stroke=""black"" /><circle cx=""50"" cy=""50"" r=""10"" fill=""none"" transform=""translate(-26  15)"" stroke=""cyan"" /><circle cx=""50"" cy=""50"" r=""10"" fill=""none"" transform=""translate(-26 -15)"" stroke=""green"" /><circle cx=""50"" cy=""50"" r=""10"" fill=""none"" transform=""translate(  0 -30)"" stroke=""magenta"" /><circle cx=""50"" cy=""50"" r=""10"" fill=""none"" transform=""translate( 26 -15)"" stroke=""gold"" /><path d=""M 50 57 L 50 43"" stroke=""black"" transform=""translate( 26  15) rotate(45 50 50)""/><path d=""M 50 57 L 50 43"" stroke=""black"" transform=""translate(  0  30) rotate(45 50 50)""/><path d=""M 50 57 L 50 43"" stroke=""black"" transform=""translate(-26  15) rotate(45 50 50)""/><path d=""M 50 57 L 50 43"" stroke=""black"" transform=""translate(-26 -15) rotate(90 50 50)""/><path d=""M 50 57 L 50 43"" stroke=""black"" transform=""translate(  0 -30) rotate(45 50 50)""/><path d=""M 50 57 L 50 43"" stroke=""black"" transform=""translate( 26 -15) rotate(45 50 50)""/><path d=""M 50 52 L 50 48"" stroke=""black"" stroke-width="".5""/> <path d=""M 52 50 L 48 50"" stroke=""black"" stroke-width="".5""/></svg>","null","","","","","","VDACtest","green","4th","horizontal","null","high","",""
"","html-keyboard-response","56","297909","0.0-3.0-0.0-2.2","s1ylc86720","green","null","<p style=""font-size:300%;"">Miss.</p><p style=""font-size:300%"">Total: 2 points.</p>","null","","","","","","","","","","","","2",""
"","html-keyboard-response","57","299456","0.0-3.0-0.0-0.3","s1ylc86720","green","null","<svg viewBox=""0 0 100 100"" > <path d=""M 50 52 L 50 48"" stroke=""black"" stroke-width="".5""/> <path d=""M 52 50 L 48 50"" stroke=""black"" stroke-width="".5""/>","null","","","","","","","","","","","","",""
"","html-keyboard-response","58","300129","0.0-3.0-0.0-1.3","s1ylc86720","green","662.9749999847263","<svg viewBox=""0 0 100 100"" ><circle cx=""50"" cy=""50"" r=""10"" fill=""none"" transform=""translate( 26  15)"" stroke=""cyan"" /><circle cx=""50"" cy=""50"" r=""10"" fill=""none"" transform=""translate(  0  30)"" stroke=""blueviolet"" /><circle cx=""50"" cy=""50"" r=""10"" fill=""none"" transform=""translate(-26  15)"" stroke=""red"" /><circle cx=""50"" cy=""50"" r=""10"" fill=""none"" transform=""translate(-26 -15)"" stroke=""gold"" /><circle cx=""50"" cy=""50"" r=""10"" fill=""none"" transform=""translate(  0 -30)"" stroke=""black"" /><circle cx=""50"" cy=""50"" r=""10"" fill=""none"" transform=""translate( 26 -15)"" stroke=""magenta"" /><path d=""M 50 57 L 50 43"" stroke=""black"" transform=""translate( 26  15) rotate(-45 50 50)""/><path d=""M 50 57 L 50 43"" stroke=""black"" transform=""translate(  0  30) rotate(-45 50 50)""/><path d=""M 50 57 L 50 43"" stroke=""black"" transform=""translate(-26  15) rotate(0 50 50)""/><path d=""M 50 57 L 50 43"" stroke=""black"" transform=""translate(-26 -15) rotate(45 50 50)""/><path d=""M 50 57 L 50 43"" stroke=""black"" transform=""translate(  0 -30) rotate(45 50 50)""/><path d=""M 50 57 L 50 43"" stroke=""black"" transform=""translate( 26 -15) rotate(45 50 50)""/><path d=""M 50 52 L 50 48"" stroke=""black"" stroke-width="".5""/> <path d=""M 52 50 L 48 50"" stroke=""black"" stroke-width="".5""/></svg>","77","","","","","","VDACtest","red","3rd","vertical","true","low","",""
"","html-keyboard-response","59","302646","0.0-3.0-0.0-2.3","s1ylc86720","green","null","<p style=""font-size:300%;""> + 2 points.</p><p style=""font-size:300%"">Total: 4 points.</p>","null","","","","","","","","","","","","4",""
"","html-keyboard-response","60","304185","0.0-3.0-0.0-0.4","s1ylc86720","green","null","<svg viewBox=""0 0 100 100"" > <path d=""M 50 52 L 50 48"" stroke=""black"" stroke-width="".5""/> <path d=""M 52 50 L 48 50"" stroke=""black"" stroke-width="".5""/>","null","","","","","","","","","","","","",""
"","html-keyboard-response","61","304866","0.0-3.0-0.0-1.4","s1ylc86720","green","670.7850000821054","<svg viewBox=""0 0 100 100"" ><circle cx=""50"" cy=""50"" r=""10"" fill=""none"" transform=""translate( 26  15)"" stroke=""blueviolet"" /><circle cx=""50"" cy=""50"" r=""10"" fill=""none"" transform=""translate(  0  30)"" stroke=""red"" /><circle cx=""50"" cy=""50"" r=""10"" fill=""none"" transform=""translate(-26  15)"" stroke=""gold"" /><circle cx=""50"" cy=""50"" r=""10"" fill=""none"" transform=""translate(-26 -15)"" stroke=""black"" /><circle cx=""50"" cy=""50"" r=""10"" fill=""none"" transform=""translate(  0 -30)"" stroke=""magenta"" /><circle cx=""50"" cy=""50"" r=""10"" fill=""none"" transform=""translate( 26 -15)"" stroke=""cyan"" /><path d=""M 50 57 L 50 43"" stroke=""black"" transform=""translate( 26  15) rotate(-45 50 50)""/><path d=""M 50 57 L 50 43"" stroke=""black"" transform=""translate(  0  30) rotate(0 50 50)""/><path d=""M 50 57 L 50 43"" stroke=""black"" transform=""translate(-26  15) rotate(45 50 50)""/><path d=""M 50 57 L 50 43"" stroke=""black"" transform=""translate(-26 -15) rotate(45 50 50)""/><path d=""M 50 57 L 50 43"" stroke=""black"" transform=""translate(  0 -30) rotate(45 50 50)""/><path d=""M 50 57 L 50 43"" stroke=""black"" transform=""translate( 26 -15) rotate(45 50 50)""/><path d=""M 50 52 L 50 48"" stroke=""black"" stroke-width="".5""/> <path d=""M 52 50 L 48 50"" stroke=""black"" stroke-width="".5""/></svg>","77","","","","","","VDACtest","red","2nd","vertical","true","low","",""
"","html-keyboard-response","62","307389","0.0-3.0-0.0-2.4","s1ylc86720","green","null","<p style=""font-size:300%;""> + 2 points.</p><p style=""font-size:300%"">Total: 6 points.</p>","null","","","","","","","","","","","","6",""
"","html-keyboard-response","63","308926","0.0-3.0-0.0-0.5","s1ylc86720","green","null","<svg viewBox=""0 0 100 100"" > <path d=""M 50 52 L 50 48"" stroke=""black"" stroke-width="".5""/> <path d=""M 52 50 L 48 50"" stroke=""black"" stroke-width="".5""/>","null","","","","","","","","","","","","",""
"","html-keyboard-response","64","309464","0.0-3.0-0.0-1.5","s1ylc86720","green","529.2150001041591","<svg viewBox=""0 0 100 100"" ><circle cx=""50"" cy=""50"" r=""10"" fill=""none"" transform=""translate( 26  15)"" stroke=""gold"" /><circle cx=""50"" cy=""50"" r=""10"" fill=""none"" transform=""translate(  0  30)"" stroke=""cyan"" /><circle cx=""50"" cy=""50"" r=""10"" fill=""none"" transform=""translate(-26  15)"" stroke=""green"" /><circle cx=""50"" cy=""50"" r=""10"" fill=""none"" transform=""translate(-26 -15)"" stroke=""black"" /><circle cx=""50"" cy=""50"" r=""10"" fill=""none"" transform=""translate(  0 -30)"" stroke=""blueviolet"" /><circle cx=""50"" cy=""50"" r=""10"" fill=""none"" transform=""translate( 26 -15)"" stroke=""magenta"" /><path d=""M 50 57 L 50 43"" stroke=""black"" transform=""translate( 26  15) rotate(45 50 50)""/><path d=""M 50 57 L 50 43"" stroke=""black"" transform=""translate(  0  30) rotate(45 50 50)""/><path d=""M 50 57 L 50 43"" stroke=""black"" transform=""translate(-26  15) rotate(90 50 50)""/><path d=""M 50 57 L 50 43"" stroke=""black"" transform=""translate(-26 -15) rotate(-45 50 50)""/><path d=""M 50 57 L 50 43"" stroke=""black"" transform=""translate(  0 -30) rotate(-45 50 50)""/><path d=""M 50 57 L 50 43"" stroke=""black"" transform=""translate( 26 -15) rotate(45 50 50)""/><path d=""M 50 52 L 50 48"" stroke=""black"" stroke-width="".5""/> <path d=""M 52 50 L 48 50"" stroke=""black"" stroke-width="".5""/></svg>","90","","","","","","VDACtest","green","3rd","horizontal","true","high","",""
"","html-keyboard-response","65","311982","0.0-3.0-0.0-2.5","s1ylc86720","green","null","<p style=""font-size:300%;""> + 10 points.</p><p style=""font-size:300%"">Total: 16 points.</p>","null","","","","","","","","","","","","16",""
"","html-keyboard-response","66","313527","0.0-3.0-0.0-0.6","s1ylc86720","green","null","<svg viewBox=""0 0 100 100"" > <path d=""M 50 52 L 50 48"" stroke=""black"" stroke-width="".5""/> <path d=""M 52 50 L 48 50"" stroke=""black"" stroke-width="".5""/>","null","","","","","","","","","","","","",""
"","html-keyboard-response","67","314188","0.0-3.0-0.0-1.6","s1ylc86720","green","649.6099999640137","<svg viewBox=""0 0 100 100"" ><circle cx=""50"" cy=""50"" r=""10"" fill=""none"" transform=""translate( 26  15)"" stroke=""magenta"" /><circle cx=""50"" cy=""50"" r=""10"" fill=""none"" transform=""translate(  0  30)"" stroke=""black"" /><circle cx=""50"" cy=""50"" r=""10"" fill=""none"" transform=""translate(-26  15)"" stroke=""gold"" /><circle cx=""50"" cy=""50"" r=""10"" fill=""none"" transform=""translate(-26 -15)"" stroke=""cyan"" /><circle cx=""50"" cy=""50"" r=""10"" fill=""none"" transform=""translate(  0 -30)"" stroke=""red"" /><circle cx=""50"" cy=""50"" r=""10"" fill=""none"" transform=""translate( 26 -15)"" stroke=""blueviolet"" /><path d=""M 50 57 L 50 43"" stroke=""black"" transform=""translate( 26  15) rotate(45 50 50)""/><path d=""M 50 57 L 50 43"" stroke=""black"" transform=""translate(  0  30) rotate(45 50 50)""/><path d=""M 50 57 L 50 43"" stroke=""black"" transform=""translate(-26  15) rotate(-45 50 50)""/><path d=""M 50 57 L 50 43"" stroke=""black"" transform=""translate(-26 -15) rotate(-45 50 50)""/><path d=""M 50 57 L 50 43"" stroke=""black"" transform=""translate(  0 -30) rotate(90 50 50)""/><path d=""M 50 57 L 50 43"" stroke=""black"" transform=""translate( 26 -15) rotate(45 50 50)""/><path d=""M 50 52 L 50 48"" stroke=""black"" stroke-width="".5""/> <path d=""M 52 50 L 48 50"" stroke=""black"" stroke-width="".5""/></svg>","90","","","","","","VDACtest","red","5th","horizontal","true","low","",""
"","html-keyboard-response","68","316720","0.0-3.0-0.0-2.6","s1ylc86720","green","null","<p style=""font-size:300%;""> + 2 points.</p><p style=""font-size:300%"">Total: 18 points.</p>","null","","","","","","","","","","","","18",""
"","html-keyboard-response","69","318288","0.0-3.0-0.0-0.7","s1ylc86720","green","null","<svg viewBox=""0 0 100 100"" > <path d=""M 50 52 L 50 48"" stroke=""black"" stroke-width="".5""/> <path d=""M 52 50 L 48 50"" stroke=""black"" stroke-width="".5""/>","null","","","","","","","","","","","","",""
"","html-keyboard-response","70","318868","0.0-3.0-0.0-1.7","s1ylc86720","green","570.3400000929832","<svg viewBox=""0 0 100 100"" ><circle cx=""50"" cy=""50"" r=""10"" fill=""none"" transform=""translate( 26  15)"" stroke=""blueviolet"" /><circle cx=""50"" cy=""50"" r=""10"" fill=""none"" transform=""translate(  0  30)"" stroke=""black"" /><circle cx=""50"" cy=""50"" r=""10"" fill=""none"" transform=""translate(-26  15)"" stroke=""cyan"" /><circle cx=""50"" cy=""50"" r=""10"" fill=""none"" transform=""translate(-26 -15)"" stroke=""gold"" /><circle cx=""50"" cy=""50"" r=""10"" fill=""none"" transform=""translate(  0 -30)"" stroke=""red"" /><circle cx=""50"" cy=""50"" r=""10"" fill=""none"" transform=""translate( 26 -15)"" stroke=""magenta"" /><path d=""M 50 57 L 50 43"" stroke=""black"" transform=""translate( 26  15) rotate(-45 50 50)""/><path d=""M 50 57 L 50 43"" stroke=""black"" transform=""translate(  0  30) rotate(-45 50 50)""/><path d=""M 50 57 L 50 43"" stroke=""black"" transform=""translate(-26  15) rotate(45 50 50)""/><path d=""M 50 57 L 50 43"" stroke=""black"" transform=""translate(-26 -15) rotate(45 50 50)""/><path d=""M 50 57 L 50 43"" stroke=""black"" transform=""translate(  0 -30) rotate(90 50 50)""/><path d=""M 50 57 L 50 43"" stroke=""black"" transform=""translate( 26 -15) rotate(45 50 50)""/><path d=""M 50 52 L 50 48"" stroke=""black"" stroke-width="".5""/> <path d=""M 52 50 L 48 50"" stroke=""black"" stroke-width="".5""/></svg>","90","","","","","","VDACtest","red","5th","horizontal","true","low","",""
"","html-keyboard-response","71","321379","0.0-3.0-0.0-2.7","s1ylc86720","green","null","<p style=""font-size:300%;""> + 2 points.</p><p style=""font-size:300%"">Total: 20 points.</p>","null","","","","","","","","","","","","20",""
"","html-keyboard-response","72","322912","0.0-3.0-0.0-0.8","s1ylc86720","green","null","<svg viewBox=""0 0 100 100"" > <path d=""M 50 52 L 50 48"" stroke=""black"" stroke-width="".5""/> <path d=""M 52 50 L 48 50"" stroke=""black"" stroke-width="".5""/>","null","","","","","","","","","","","","",""
"","html-keyboard-response","73","323578","0.0-3.0-0.0-1.8","s1ylc86720","green","658.4499999880791","<svg viewBox=""0 0 100 100"" ><circle cx=""50"" cy=""50"" r=""10"" fill=""none"" transform=""translate( 26  15)"" stroke=""gold"" /><circle cx=""50"" cy=""50"" r=""10"" fill=""none"" transform=""translate(  0  30)"" stroke=""black"" /><circle cx=""50"" cy=""50"" r=""10"" fill=""none"" transform=""translate(-26  15)"" stroke=""magenta"" /><circle cx=""50"" cy=""50"" r=""10"" fill=""none"" transform=""translate(-26 -15)"" stroke=""green"" /><circle cx=""50"" cy=""50"" r=""10"" fill=""none"" transform=""translate(  0 -30)"" stroke=""blueviolet"" /><circle cx=""50"" cy=""50"" r=""10"" fill=""none"" transform=""translate( 26 -15)"" stroke=""cyan"" /><path d=""M 50 57 L 50 43"" stroke=""black"" transform=""translate( 26  15) rotate(-45 50 50)""/><path d=""M 50 57 L 50 43"" stroke=""black"" transform=""translate(  0  30) rotate(-45 50 50)""/><path d=""M 50 57 L 50 43"" stroke=""black"" transform=""translate(-26  15) rotate(45 50 50)""/><path d=""M 50 57 L 50 43"" stroke=""black"" transform=""translate(-26 -15) rotate(0 50 50)""/><path d=""M 50 57 L 50 43"" stroke=""black"" transform=""translate(  0 -30) rotate(-45 50 50)""/><path d=""M 50 57 L 50 43"" stroke=""black"" transform=""translate( 26 -15) rotate(-45 50 50)""/><path d=""M 50 52 L 50 48"" stroke=""black"" stroke-width="".5""/> <path d=""M 52 50 L 48 50"" stroke=""black"" stroke-width="".5""/></svg>","77","","","","","","VDACtest","green","4th","vertical","true","high","",""
"","html-keyboard-response","74","326106","0.0-3.0-0.0-2.8","s1ylc86720","green","null","<p style=""font-size:300%;""> + 10 points.</p><p style=""font-size:300%"">Total: 30 points.</p>","null","","","","","","","","","","","","30",""
"","html-keyboard-response","75","327647","0.0-3.0-0.0-0.9","s1ylc86720","green","null","<svg viewBox=""0 0 100 100"" > <path d=""M 50 52 L 50 48"" stroke=""black"" stroke-width="".5""/> <path d=""M 52 50 L 48 50"" stroke=""black"" stroke-width="".5""/>","null","","","","","","","","","","","","",""
"","html-keyboard-response","76","328536","0.0-3.0-0.0-1.9","s1ylc86720","green","878.6299999337643","<svg viewBox=""0 0 100 100"" ><circle cx=""50"" cy=""50"" r=""10"" fill=""none"" transform=""translate( 26  15)"" stroke=""green"" /><circle cx=""50"" cy=""50"" r=""10"" fill=""none"" transform=""translate(  0  30)"" stroke=""gold"" /><circle cx=""50"" cy=""50"" r=""10"" fill=""none"" transform=""translate(-26  15)"" stroke=""cyan"" /><circle cx=""50"" cy=""50"" r=""10"" fill=""none"" transform=""translate(-26 -15)"" stroke=""magenta"" /><circle cx=""50"" cy=""50"" r=""10"" fill=""none"" transform=""translate(  0 -30)"" stroke=""blueviolet"" /><circle cx=""50"" cy=""50"" r=""10"" fill=""none"" transform=""translate( 26 -15)"" stroke=""black"" /><path d=""M 50 57 L 50 43"" stroke=""black"" transform=""translate( 26  15) rotate(0 50 50)""/><path d=""M 50 57 L 50 43"" stroke=""black"" transform=""translate(  0  30) rotate(-45 50 50)""/><path d=""M 50 57 L 50 43"" stroke=""black"" transform=""translate(-26  15) rotate(45 50 50)""/><path d=""M 50 57 L 50 43"" stroke=""black"" transform=""translate(-26 -15) rotate(-45 50 50)""/><path d=""M 50 57 L 50 43"" stroke=""black"" transform=""translate(  0 -30) rotate(-45 50 50)""/><path d=""M 50 57 L 50 43"" stroke=""black"" transform=""translate( 26 -15) rotate(-45 50 50)""/><path d=""M 50 52 L 50 48"" stroke=""black"" stroke-width="".5""/> <path d=""M 52 50 L 48 50"" stroke=""black"" stroke-width="".5""/></svg>","77","","","","","","VDACtest","green","1st","vertical","true","high","",""
"","html-keyboard-response","77","331057","0.0-3.0-0.0-2.9","s1ylc86720","green","null","<p style=""font-size:300%;""> + 10 points.</p><p style=""font-size:300%"">Total: 40 points.</p>","null","","","","","","","","","","","","40",""
"","html-keyboard-response","78","332593","0.0-3.0-0.0-0.10","s1ylc86720","green","null","<svg viewBox=""0 0 100 100"" > <path d=""M 50 52 L 50 48"" stroke=""black"" stroke-width="".5""/> <path d=""M 52 50 L 48 50"" stroke=""black"" stroke-width="".5""/>","null","","","","","","","","","","","","",""
"","html-keyboard-response","79","333240","0.0-3.0-0.0-1.10","s1ylc86720","green","638.8900000602007","<svg viewBox=""0 0 100 100"" ><circle cx=""50"" cy=""50"" r=""10"" fill=""none"" transform=""translate( 26  15)"" stroke=""blueviolet"" /><circle cx=""50"" cy=""50"" r=""10"" fill=""none"" transform=""translate(  0  30)"" stroke=""cyan"" /><circle cx=""50"" cy=""50"" r=""10"" fill=""none"" transform=""translate(-26  15)"" stroke=""magenta"" /><circle cx=""50"" cy=""50"" r=""10"" fill=""none"" transform=""translate(-26 -15)"" stroke=""gold"" /><circle cx=""50"" cy=""50"" r=""10"" fill=""none"" transform=""translate(  0 -30)"" stroke=""black"" /><circle cx=""50"" cy=""50"" r=""10"" fill=""none"" transform=""translate( 26 -15)"" stroke=""red"" /><path d=""M 50 57 L 50 43"" stroke=""black"" transform=""translate( 26  15) rotate(-45 50 50)""/><path d=""M 50 57 L 50 43"" stroke=""black"" transform=""translate(  0  30) rotate(-45 50 50)""/><path d=""M 50 57 L 50 43"" stroke=""black"" transform=""translate(-26  15) rotate(-45 50 50)""/><path d=""M 50 57 L 50 43"" stroke=""black"" transform=""translate(-26 -15) rotate(-45 50 50)""/><path d=""M 50 57 L 50 43"" stroke=""black"" transform=""translate(  0 -30) rotate(-45 50 50)""/><path d=""M 50 57 L 50 43"" stroke=""black"" transform=""translate( 26 -15) rotate(90 50 50)""/><path d=""M 50 52 L 50 48"" stroke=""black"" stroke-width="".5""/> <path d=""M 52 50 L 48 50"" stroke=""black"" stroke-width="".5""/></svg>","90","","","","","","VDACtest","red","6th","horizontal","true","low","",""
"","html-keyboard-response","80","335756","0.0-3.0-0.0-2.10","s1ylc86720","green","null","<p style=""font-size:300%;""> + 2 points.</p><p style=""font-size:300%"">Total: 42 points.</p>","null","","","","","","","","","","","","42",""
"","html-keyboard-response","81","337299","0.0-3.0-0.0-0.11","s1ylc86720","green","null","<svg viewBox=""0 0 100 100"" > <path d=""M 50 52 L 50 48"" stroke=""black"" stroke-width="".5""/> <path d=""M 52 50 L 48 50"" stroke=""black"" stroke-width="".5""/>","null","","","","","","","","","","","","",""
"","html-keyboard-response","82","338057","0.0-3.0-0.0-1.11","s1ylc86720","green","750.840000109747","<svg viewBox=""0 0 100 100"" ><circle cx=""50"" cy=""50"" r=""10"" fill=""none"" transform=""translate( 26  15)"" stroke=""blueviolet"" /><circle cx=""50"" cy=""50"" r=""10"" fill=""none"" transform=""translate(  0  30)"" stroke=""red"" /><circle cx=""50"" cy=""50"" r=""10"" fill=""none"" transform=""translate(-26  15)"" stroke=""gold"" /><circle cx=""50"" cy=""50"" r=""10"" fill=""none"" transform=""translate(-26 -15)"" stroke=""cyan"" /><circle cx=""50"" cy=""50"" r=""10"" fill=""none"" transform=""translate(  0 -30)"" stroke=""black"" /><circle cx=""50"" cy=""50"" r=""10"" fill=""none"" transform=""translate( 26 -15)"" stroke=""magenta"" /><path d=""M 50 57 L 50 43"" stroke=""black"" transform=""translate( 26  15) rotate(45 50 50)""/><path d=""M 50 57 L 50 43"" stroke=""black"" transform=""translate(  0  30) rotate(0 50 50)""/><path d=""M 50 57 L 50 43"" stroke=""black"" transform=""translate(-26  15) rotate(45 50 50)""/><path d=""M 50 57 L 50 43"" stroke=""black"" transform=""translate(-26 -15) rotate(45 50 50)""/><path d=""M 50 57 L 50 43"" stroke=""black"" transform=""translate(  0 -30) rotate(-45 50 50)""/><path d=""M 50 57 L 50 43"" stroke=""black"" transform=""translate( 26 -15) rotate(45 50 50)""/><path d=""M 50 52 L 50 48"" stroke=""black"" stroke-width="".5""/> <path d=""M 52 50 L 48 50"" stroke=""black"" stroke-width="".5""/></svg>","77","","","","","","VDACtest","red","2nd","vertical","true","low","",""
"","html-keyboard-response","83","340580","0.0-3.0-0.0-2.11","s1ylc86720","green","null","<p style=""font-size:300%;""> + 10 points.</p><p style=""font-size:300%"">Total: 52 points.</p>","null","","","","","","","","","","","","52",""
"","html-keyboard-response","84","342116","0.0-3.0-0.0-0.12","s1ylc86720","green","null","<svg viewBox=""0 0 100 100"" > <path d=""M 50 52 L 50 48"" stroke=""black"" stroke-width="".5""/> <path d=""M 52 50 L 48 50"" stroke=""black"" stroke-width="".5""/>","null","","","","","","","","","","","","",""
"","html-keyboard-response","85","342856","0.0-3.0-0.0-1.12","s1ylc86720","green","728.2749998848885","<svg viewBox=""0 0 100 100"" ><circle cx=""50"" cy=""50"" r=""10"" fill=""none"" transform=""translate( 26  15)"" stroke=""black"" /><circle cx=""50"" cy=""50"" r=""10"" fill=""none"" transform=""translate(  0  30)"" stroke=""magenta"" /><circle cx=""50"" cy=""50"" r=""10"" fill=""none"" transform=""translate(-26  15)"" stroke=""cyan"" /><circle cx=""50"" cy=""50"" r=""10"" fill=""none"" transform=""translate(-26 -15)"" stroke=""red"" /><circle cx=""50"" cy=""50"" r=""10"" fill=""none"" transform=""translate(  0 -30)"" stroke=""gold"" /><circle cx=""50"" cy=""50"" r=""10"" fill=""none"" transform=""translate( 26 -15)"" stroke=""blueviolet"" /><path d=""M 50 57 L 50 43"" stroke=""black"" transform=""translate( 26  15) rotate(45 50 50)""/><path d=""M 50 57 L 50 43"" stroke=""black"" transform=""translate(  0  30) rotate(45 50 50)""/><path d=""M 50 57 L 50 43"" stroke=""black"" transform=""translate(-26  15) rotate(45 50 50)""/><path d=""M 50 57 L 50 43"" stroke=""black"" transform=""translate(-26 -15) rotate(0 50 50)""/><path d=""M 50 57 L 50 43"" stroke=""black"" transform=""translate(  0 -30) rotate(45 50 50)""/><path d=""M 50 57 L 50 43"" stroke=""black"" transform=""translate( 26 -15) rotate(45 50 50)""/><path d=""M 50 52 L 50 48"" stroke=""black"" stroke-width="".5""/> <path d=""M 52 50 L 48 50"" stroke=""black"" stroke-width="".5""/></svg>","77","","","","","","VDACtest","red","4th","vertical","true","low","",""
"","html-keyboard-response","86","345370","0.0-3.0-0.0-2.12","s1ylc86720","green","null","<p style=""font-size:300%;""> + 2 points.</p><p style=""font-size:300%"">Total: 54 points.</p>","null","","","","","","","","","","","","54",""
"","html-keyboard-response","87","346905","0.0-3.0-0.0-0.13","s1ylc86720","green","null","<svg viewBox=""0 0 100 100"" > <path d=""M 50 52 L 50 48"" stroke=""black"" stroke-width="".5""/> <path d=""M 52 50 L 48 50"" stroke=""black"" stroke-width="".5""/>","null","","","","","","","","","","","","",""
"","html-keyboard-response","88","347595","0.0-3.0-0.0-1.13","s1ylc86720","green","681.9649999961257","<svg viewBox=""0 0 100 100"" ><circle cx=""50"" cy=""50"" r=""10"" fill=""none"" transform=""translate( 26  15)"" stroke=""cyan"" /><circle cx=""50"" cy=""50"" r=""10"" fill=""none"" transform=""translate(  0  30)"" stroke=""green"" /><circle cx=""50"" cy=""50"" r=""10"" fill=""none"" transform=""translate(-26  15)"" stroke=""black"" /><circle cx=""50"" cy=""50"" r=""10"" fill=""none"" transform=""translate(-26 -15)"" stroke=""magenta"" /><circle cx=""50"" cy=""50"" r=""10"" fill=""none"" transform=""translate(  0 -30)"" stroke=""gold"" /><circle cx=""50"" cy=""50"" r=""10"" fill=""none"" transform=""translate( 26 -15)"" stroke=""blueviolet"" /><path d=""M 50 57 L 50 43"" stroke=""black"" transform=""translate( 26  15) rotate(45 50 50)""/><path d=""M 50 57 L 50 43"" stroke=""black"" transform=""translate(  0  30) rotate(0 50 50)""/><path d=""M 50 57 L 50 43"" stroke=""black"" transform=""translate(-26  15) rotate(45 50 50)""/><path d=""M 50 57 L 50 43"" stroke=""black"" transform=""translate(-26 -15) rotate(-45 50 50)""/><path d=""M 50 57 L 50 43"" stroke=""black"" transform=""translate(  0 -30) rotate(-45 50 50)""/><path d=""M 50 57 L 50 43"" stroke=""black"" transform=""translate( 26 -15) rotate(45 50 50)""/><path d=""M 50 52 L 50 48"" stroke=""black"" stroke-width="".5""/> <path d=""M 52 50 L 48 50"" stroke=""black"" stroke-width="".5""/></svg>","77","","","","","","VDACtest","green","2nd","vertical","true","high","",""
"","html-keyboard-response","89","350116","0.0-3.0-0.0-2.13","s1ylc86720","green","null","<p style=""font-size:300%;""> + 2 points.</p><p style=""font-size:300%"">Total: 56 points.</p>","null","","","","","","","","","","","","56",""
"","html-keyboard-response","90","351647","0.0-3.0-0.0-0.14","s1ylc86720","green","null","<svg viewBox=""0 0 100 100"" > <path d=""M 50 52 L 50 48"" stroke=""black"" stroke-width="".5""/> <path d=""M 52 50 L 48 50"" stroke=""black"" stroke-width="".5""/>","null","","","","","","","","","","","","",""
"","html-keyboard-response","91","352276","0.0-3.0-0.0-1.14","s1ylc86720","green","617.945000063628","<svg viewBox=""0 0 100 100"" ><circle cx=""50"" cy=""50"" r=""10"" fill=""none"" transform=""translate( 26  15)"" stroke=""black"" /><circle cx=""50"" cy=""50"" r=""10"" fill=""none"" transform=""translate(  0  30)"" stroke=""red"" /><circle cx=""50"" cy=""50"" r=""10"" fill=""none"" transform=""translate(-26  15)"" stroke=""magenta"" /><circle cx=""50"" cy=""50"" r=""10"" fill=""none"" transform=""translate(-26 -15)"" stroke=""gold"" /><circle cx=""50"" cy=""50"" r=""10"" fill=""none"" transform=""translate(  0 -30)"" stroke=""blueviolet"" /><circle cx=""50"" cy=""50"" r=""10"" fill=""none"" transform=""translate( 26 -15)"" stroke=""cyan"" /><path d=""M 50 57 L 50 43"" stroke=""black"" transform=""translate( 26  15) rotate(45 50 50)""/><path d=""M 50 57 L 50 43"" stroke=""black"" transform=""translate(  0  30) rotate(90 50 50)""/><path d=""M 50 57 L 50 43"" stroke=""black"" transform=""translate(-26  15) rotate(-45 50 50)""/><path d=""M 50 57 L 50 43"" stroke=""black"" transform=""translate(-26 -15) rotate(45 50 50)""/><path d=""M 50 57 L 50 43"" stroke=""black"" transform=""translate(  0 -30) rotate(-45 50 50)""/><path d=""M 50 57 L 50 43"" stroke=""black"" transform=""translate( 26 -15) rotate(-45 50 50)""/><path d=""M 50 52 L 50 48"" stroke=""black"" stroke-width="".5""/> <path d=""M 52 50 L 48 50"" stroke=""black"" stroke-width="".5""/></svg>","90","","","","","","VDACtest","red","2nd","horizontal","true","low","",""
"","html-keyboard-response","92","354806","0.0-3.0-0.0-2.14","s1ylc86720","green","null","<p style=""font-size:300%;""> + 2 points.</p><p style=""font-size:300%"">Total: 58 points.</p>","null","","","","","","","","","","","","58",""
"","html-keyboard-response","93","356351","0.0-3.0-0.0-0.15","s1ylc86720","green","null","<svg viewBox=""0 0 100 100"" > <path d=""M 50 52 L 50 48"" stroke=""black"" stroke-width="".5""/> <path d=""M 52 50 L 48 50"" stroke=""black"" stroke-width="".5""/>","null","","","","","","","","","","","","",""
"","html-keyboard-response","94","357200","0.0-3.0-0.0-1.15","s1ylc86720","green","839.5249999593943","<svg viewBox=""0 0 100 100"" ><circle cx=""50"" cy=""50"" r=""10"" fill=""none"" transform=""translate( 26  15)"" stroke=""blueviolet"" /><circle cx=""50"" cy=""50"" r=""10"" fill=""none"" transform=""translate(  0  30)"" stroke=""magenta"" /><circle cx=""50"" cy=""50"" r=""10"" fill=""none"" transform=""translate(-26  15)"" stroke=""green"" /><circle cx=""50"" cy=""50"" r=""10"" fill=""none"" transform=""translate(-26 -15)"" stroke=""gold"" /><circle cx=""50"" cy=""50"" r=""10"" fill=""none"" transform=""translate(  0 -30)"" stroke=""cyan"" /><circle cx=""50"" cy=""50"" r=""10"" fill=""none"" transform=""translate( 26 -15)"" stroke=""black"" /><path d=""M 50 57 L 50 43"" stroke=""black"" transform=""translate( 26  15) rotate(-45 50 50)""/><path d=""M 50 57 L 50 43"" stroke=""black"" transform=""translate(  0  30) rotate(45 50 50)""/><path d=""M 50 57 L 50 43"" stroke=""black"" transform=""translate(-26  15) rotate(90 50 50)""/><path d=""M 50 57 L 50 43"" stroke=""black"" transform=""translate(-26 -15) rotate(-45 50 50)""/><path d=""M 50 57 L 50 43"" stroke=""black"" transform=""translate(  0 -30) rotate(-45 50 50)""/><path d=""M 50 57 L 50 43"" stroke=""black"" transform=""translate( 26 -15) rotate(45 50 50)""/><path d=""M 50 52 L 50 48"" stroke=""black"" stroke-width="".5""/> <path d=""M 52 50 L 48 50"" stroke=""black"" stroke-width="".5""/></svg>","90","","","","","","VDACtest","green","3rd","horizontal","true","high","",""
"","html-keyboard-response","95","359724","0.0-3.0-0.0-2.15","s1ylc86720","green","null","<p style=""font-size:300%;""> + 2 points.</p><p style=""font-size:300%"">Total: 60 points.</p>","null","","","","","","","","","","","","60",""
"","html-keyboard-response","96","361260","0.0-3.0-0.0-0.16","s1ylc86720","green","null","<svg viewBox=""0 0 100 100"" > <path d=""M 50 52 L 50 48"" stroke=""black"" stroke-width="".5""/> <path d=""M 52 50 L 48 50"" stroke=""black"" stroke-width="".5""/>","null","","","","","","","","","","","","",""
"","html-keyboard-response","97","362006","0.0-3.0-0.0-1.16","s1ylc86720","green","737.6599998679012","<svg viewBox=""0 0 100 100"" ><circle cx=""50"" cy=""50"" r=""10"" fill=""none"" transform=""translate( 26  15)"" stroke=""magenta"" /><circle cx=""50"" cy=""50"" r=""10"" fill=""none"" transform=""translate(  0  30)"" stroke=""gold"" /><circle cx=""50"" cy=""50"" r=""10"" fill=""none"" transform=""translate(-26  15)"" stroke=""green"" /><circle cx=""50"" cy=""50"" r=""10"" fill=""none"" transform=""translate(-26 -15)"" stroke=""cyan"" /><circle cx=""50"" cy=""50"" r=""10"" fill=""none"" transform=""translate(  0 -30)"" stroke=""blueviolet"" /><circle cx=""50"" cy=""50"" r=""10"" fill=""none"" transform=""translate( 26 -15)"" stroke=""black"" /><path d=""M 50 57 L 50 43"" stroke=""black"" transform=""translate( 26  15) rotate(45 50 50)""/><path d=""M 50 57 L 50 43"" stroke=""black"" transform=""translate(  0  30) rotate(45 50 50)""/><path d=""M 50 57 L 50 43"" stroke=""black"" transform=""translate(-26  15) rotate(90 50 50)""/><path d=""M 50 57 L 50 43"" stroke=""black"" transform=""translate(-26 -15) rotate(-45 50 50)""/><path d=""M 50 57 L 50 43"" stroke=""black"" transform=""translate(  0 -30) rotate(45 50 50)""/><path d=""M 50 57 L 50 43"" stroke=""black"" transform=""translate( 26 -15) rotate(-45 50 50)""/><path d=""M 50 52 L 50 48"" stroke=""black"" stroke-width="".5""/> <path d=""M 52 50 L 48 50"" stroke=""black"" stroke-width="".5""/></svg>","90","","","","","","VDACtest","green","3rd","horizontal","true","high","",""
"","html-keyboard-response","98","364529","0.0-3.0-0.0-2.16","s1ylc86720","green","null","<p style=""font-size:300%;""> + 10 points.</p><p style=""font-size:300%"">Total: 70 points.</p>","null","","","","","","","","","","","","70",""
"","html-keyboard-response","99","366077","0.0-3.0-0.0-0.17","s1ylc86720","green","null","<svg viewBox=""0 0 100 100"" > <path d=""M 50 52 L 50 48"" stroke=""black"" stroke-width="".5""/> <path d=""M 52 50 L 48 50"" stroke=""black"" stroke-width="".5""/>","null","","","","","","","","","","","","",""
"","html-keyboard-response","100","366662","0.0-3.0-0.0-1.17","s1ylc86720","green","574.9800000339746","<svg viewBox=""0 0 100 100"" ><circle cx=""50"" cy=""50"" r=""10"" fill=""none"" transform=""translate( 26  15)"" stroke=""magenta"" /><circle cx=""50"" cy=""50"" r=""10"" fill=""none"" transform=""translate(  0  30)"" stroke=""cyan"" /><circle cx=""50"" cy=""50"" r=""10"" fill=""none"" transform=""translate(-26  15)"" stroke=""red"" /><circle cx=""50"" cy=""50"" r=""10"" fill=""none"" transform=""translate(-26 -15)"" stroke=""blueviolet"" /><circle cx=""50"" cy=""50"" r=""10"" fill=""none"" transform=""translate(  0 -30)"" stroke=""black"" /><circle cx=""50"" cy=""50"" r=""10"" fill=""none"" transform=""translate( 26 -15)"" stroke=""gold"" /><path d=""M 50 57 L 50 43"" stroke=""black"" transform=""translate( 26  15) rotate(45 50 50)""/><path d=""M 50 57 L 50 43"" stroke=""black"" transform=""translate(  0  30) rotate(-45 50 50)""/><path d=""M 50 57 L 50 43"" stroke=""black"" transform=""translate(-26  15) rotate(90 50 50)""/><path d=""M 50 57 L 50 43"" stroke=""black"" transform=""translate(-26 -15) rotate(45 50 50)""/><path d=""M 50 57 L 50 43"" stroke=""black"" transform=""translate(  0 -30) rotate(-45 50 50)""/><path d=""M 50 57 L 50 43"" stroke=""black"" transform=""translate( 26 -15) rotate(-45 50 50)""/><path d=""M 50 52 L 50 48"" stroke=""black"" stroke-width="".5""/> <path d=""M 52 50 L 48 50"" stroke=""black"" stroke-width="".5""/></svg>","90","","","","","","VDACtest","red","3rd","horizontal","true","low","",""
"","html-keyboard-response","101","369171","0.0-3.0-0.0-2.17","s1ylc86720","green","null","<p style=""font-size:300%;""> + 2 points.</p><p style=""font-size:300%"">Total: 72 points.</p>","null","","","","","","","","","","","","72",""
"","html-keyboard-response","102","370704","0.0-3.0-0.0-0.18","s1ylc86720","green","null","<svg viewBox=""0 0 100 100"" > <path d=""M 50 52 L 50 48"" stroke=""black"" stroke-width="".5""/> <path d=""M 52 50 L 48 50"" stroke=""black"" stroke-width="".5""/>","null","","","","","","","","","","","","",""
"","html-keyboard-response","103","371432","0.0-3.0-0.0-1.18","s1ylc86720","green","718.7349998857826","<svg viewBox=""0 0 100 100"" ><circle cx=""50"" cy=""50"" r=""10"" fill=""none"" transform=""translate( 26  15)"" stroke=""red"" /><circle cx=""50"" cy=""50"" r=""10"" fill=""none"" transform=""translate(  0  30)"" stroke=""black"" /><circle cx=""50"" cy=""50"" r=""10"" fill=""none"" transform=""translate(-26  15)"" stroke=""cyan"" /><circle cx=""50"" cy=""50"" r=""10"" fill=""none"" transform=""translate(-26 -15)"" stroke=""blueviolet"" /><circle cx=""50"" cy=""50"" r=""10"" fill=""none"" transform=""translate(  0 -30)"" stroke=""magenta"" /><circle cx=""50"" cy=""50"" r=""10"" fill=""none"" transform=""translate( 26 -15)"" stroke=""gold"" /><path d=""M 50 57 L 50 43"" stroke=""black"" transform=""translate( 26  15) rotate(90 50 50)""/><path d=""M 50 57 L 50 43"" stroke=""black"" transform=""translate(  0  30) rotate(45 50 50)""/><path d=""M 50 57 L 50 43"" stroke=""black"" transform=""translate(-26  15) rotate(-45 50 50)""/><path d=""M 50 57 L 50 43"" stroke=""black"" transform=""translate(-26 -15) rotate(-45 50 50)""/><path d=""M 50 57 L 50 43"" stroke=""black"" transform=""translate(  0 -30) rotate(45 50 50)""/><path d=""M 50 57 L 50 43"" stroke=""black"" transform=""translate( 26 -15) rotate(-45 50 50)""/><path d=""M 50 52 L 50 48"" stroke=""black"" stroke-width="".5""/> <path d=""M 52 50 L 48 50"" stroke=""black"" stroke-width="".5""/></svg>","90","","","","","","VDACtest","red","1st","horizontal","true","low","",""
"","html-keyboard-response","104","373958","0.0-3.0-0.0-2.18","s1ylc86720","green","null","<p style=""font-size:300%;""> + 10 points.</p><p style=""font-size:300%"">Total: 82 points.</p>","null","","","","","","","","","","","","82",""
"","html-keyboard-response","105","375493","0.0-3.0-0.0-0.19","s1ylc86720","green","null","<svg viewBox=""0 0 100 100"" > <path d=""M 50 52 L 50 48"" stroke=""black"" stroke-width="".5""/> <path d=""M 52 50 L 48 50"" stroke=""black"" stroke-width="".5""/>","null","","","","","","","","","","","","",""
"","html-keyboard-response","106","376105","0.0-3.0-0.0-1.19","s1ylc86720","green","603.1349999830127","<svg viewBox=""0 0 100 100"" ><circle cx=""50"" cy=""50"" r=""10"" fill=""none"" transform=""translate( 26  15)"" stroke=""gold"" /><circle cx=""50"" cy=""50"" r=""10"" fill=""none"" transform=""translate(  0  30)"" stroke=""black"" /><circle cx=""50"" cy=""50"" r=""10"" fill=""none"" transform=""translate(-26  15)"" stroke=""cyan"" /><circle cx=""50"" cy=""50"" r=""10"" fill=""none"" transform=""translate(-26 -15)"" stroke=""red"" /><circle cx=""50"" cy=""50"" r=""10"" fill=""none"" transform=""translate(  0 -30)"" stroke=""magenta"" /><circle cx=""50"" cy=""50"" r=""10"" fill=""none"" transform=""translate( 26 -15)"" stroke=""blueviolet"" /><path d=""M 50 57 L 50 43"" stroke=""black"" transform=""translate( 26  15) rotate(-45 50 50)""/><path d=""M 50 57 L 50 43"" stroke=""black"" transform=""translate(  0  30) rotate(-45 50 50)""/><path d=""M 50 57 L 50 43"" stroke=""black"" transform=""translate(-26  15) rotate(45 50 50)""/><path d=""M 50 57 L 50 43"" stroke=""black"" transform=""translate(-26 -15) rotate(0 50 50)""/><path d=""M 50 57 L 50 43"" stroke=""black"" transform=""translate(  0 -30) rotate(45 50 50)""/><path d=""M 50 57 L 50 43"" stroke=""black"" transform=""translate( 26 -15) rotate(45 50 50)""/><path d=""M 50 52 L 50 48"" stroke=""black"" stroke-width="".5""/> <path d=""M 52 50 L 48 50"" stroke=""black"" stroke-width="".5""/></svg>","77","","","","","","VDACtest","red","4th","vertical","true","low","",""
"","html-keyboard-response","107","378622","0.0-3.0-0.0-2.19","s1ylc86720","green","null","<p style=""font-size:300%;""> + 2 points.</p><p style=""font-size:300%"">Total: 84 points.</p>","null","","","","","","","","","","","","84",""
"","html-keyboard-response","108","380154","0.0-3.0-0.0-0.20","s1ylc86720","green","null","<svg viewBox=""0 0 100 100"" > <path d=""M 50 52 L 50 48"" stroke=""black"" stroke-width="".5""/> <path d=""M 52 50 L 48 50"" stroke=""black"" stroke-width="".5""/>","null","","","","","","","","","","","","",""
"","html-keyboard-response","109","381158","0.0-3.0-0.0-1.20","s1ylc86720","green","990.2649999130517","<svg viewBox=""0 0 100 100"" ><circle cx=""50"" cy=""50"" r=""10"" fill=""none"" transform=""translate( 26  15)"" stroke=""black"" /><circle cx=""50"" cy=""50"" r=""10"" fill=""none"" transform=""translate(  0  30)"" stroke=""gold"" /><circle cx=""50"" cy=""50"" r=""10"" fill=""none"" transform=""translate(-26  15)"" stroke=""cyan"" /><circle cx=""50"" cy=""50"" r=""10"" fill=""none"" transform=""translate(-26 -15)"" stroke=""magenta"" /><circle cx=""50"" cy=""50"" r=""10"" fill=""none"" transform=""translate(  0 -30)"" stroke=""green"" /><circle cx=""50"" cy=""50"" r=""10"" fill=""none"" transform=""translate( 26 -15)"" stroke=""blueviolet"" /><path d=""M 50 57 L 50 43"" stroke=""black"" transform=""translate( 26  15) rotate(-45 50 50)""/><path d=""M 50 57 L 50 43"" stroke=""black"" transform=""translate(  0  30) rotate(45 50 50)""/><path d=""M 50 57 L 50 43"" stroke=""black"" transform=""translate(-26  15) rotate(-45 50 50)""/><path d=""M 50 57 L 50 43"" stroke=""black"" transform=""translate(-26 -15) rotate(45 50 50)""/><path d=""M 50 57 L 50 43"" stroke=""black"" transform=""translate(  0 -30) rotate(0 50 50)""/><path d=""M 50 57 L 50 43"" stroke=""black"" transform=""translate( 26 -15) rotate(45 50 50)""/><path d=""M 50 52 L 50 48"" stroke=""black"" stroke-width="".5""/> <path d=""M 52 50 L 48 50"" stroke=""black"" stroke-width="".5""/></svg>","77","","","","","","VDACtest","green","5th","vertical","true","high","",""
"","html-keyboard-response","110","383677","0.0-3.0-0.0-2.20","s1ylc86720","green","null","<p style=""font-size:300%;""> + 10 points.</p><p style=""font-size:300%"">Total: 94 points.</p>","null","","","","","","","","","","","","94",""
"","html-keyboard-response","111","385213","0.0-3.0-0.0-0.21","s1ylc86720","green","null","<svg viewBox=""0 0 100 100"" > <path d=""M 50 52 L 50 48"" stroke=""black"" stroke-width="".5""/> <path d=""M 52 50 L 48 50"" stroke=""black"" stroke-width="".5""/>","null","","","","","","","","","","","","",""
"","html-keyboard-response","112","385742","0.0-3.0-0.0-1.21","s1ylc86720","green","524.6449999976903","<svg viewBox=""0 0 100 100"" ><circle cx=""50"" cy=""50"" r=""10"" fill=""none"" transform=""translate( 26  15)"" stroke=""gold"" /><circle cx=""50"" cy=""50"" r=""10"" fill=""none"" transform=""translate(  0  30)"" stroke=""blueviolet"" /><circle cx=""50"" cy=""50"" r=""10"" fill=""none"" transform=""translate(-26  15)"" stroke=""black"" /><circle cx=""50"" cy=""50"" r=""10"" fill=""none"" transform=""translate(-26 -15)"" stroke=""green"" /><circle cx=""50"" cy=""50"" r=""10"" fill=""none"" transform=""translate(  0 -30)"" stroke=""cyan"" /><circle cx=""50"" cy=""50"" r=""10"" fill=""none"" transform=""translate( 26 -15)"" stroke=""magenta"" /><path d=""M 50 57 L 50 43"" stroke=""black"" transform=""translate( 26  15) rotate(-45 50 50)""/><path d=""M 50 57 L 50 43"" stroke=""black"" transform=""translate(  0  30) rotate(-45 50 50)""/><path d=""M 50 57 L 50 43"" stroke=""black"" transform=""translate(-26  15) rotate(45 50 50)""/><path d=""M 50 57 L 50 43"" stroke=""black"" transform=""translate(-26 -15) rotate(90 50 50)""/><path d=""M 50 57 L 50 43"" stroke=""black"" transform=""translate(  0 -30) rotate(45 50 50)""/><path d=""M 50 57 L 50 43"" stroke=""black"" transform=""translate( 26 -15) rotate(-45 50 50)""/><path d=""M 50 52 L 50 48"" stroke=""black"" stroke-width="".5""/> <path d=""M 52 50 L 48 50"" stroke=""black"" stroke-width="".5""/></svg>","90","","","","","","VDACtest","green","4th","horizontal","true","high","",""
"","html-keyboard-response","113","388251","0.0-3.0-0.0-2.21","s1ylc86720","green","null","<p style=""font-size:300%;""> + 2 points.</p><p style=""font-size:300%"">Total: 96 points.</p>","null","","","","","","","","","","","","96",""
"","html-keyboard-response","114","389805","0.0-3.0-0.0-0.22","s1ylc86720","green","null","<svg viewBox=""0 0 100 100"" > <path d=""M 50 52 L 50 48"" stroke=""black"" stroke-width="".5""/> <path d=""M 52 50 L 48 50"" stroke=""black"" stroke-width="".5""/>","null","","","","","","","","","","","","",""
"","html-keyboard-response","115","390672","0.0-3.0-0.0-1.22","s1ylc86720","green","856.5450001042336","<svg viewBox=""0 0 100 100"" ><circle cx=""50"" cy=""50"" r=""10"" fill=""none"" transform=""translate( 26  15)"" stroke=""gold"" /><circle cx=""50"" cy=""50"" r=""10"" fill=""none"" transform=""translate(  0  30)"" stroke=""magenta"" /><circle cx=""50"" cy=""50"" r=""10"" fill=""none"" transform=""translate(-26  15)"" stroke=""blueviolet"" /><circle cx=""50"" cy=""50"" r=""10"" fill=""none"" transform=""translate(-26 -15)"" stroke=""black"" /><circle cx=""50"" cy=""50"" r=""10"" fill=""none"" transform=""translate(  0 -30)"" stroke=""cyan"" /><circle cx=""50"" cy=""50"" r=""10"" fill=""none"" transform=""translate( 26 -15)"" stroke=""red"" /><path d=""M 50 57 L 50 43"" stroke=""black"" transform=""translate( 26  15) rotate(45 50 50)""/><path d=""M 50 57 L 50 43"" stroke=""black"" transform=""translate(  0  30) rotate(-45 50 50)""/><path d=""M 50 57 L 50 43"" stroke=""black"" transform=""translate(-26  15) rotate(-45 50 50)""/><path d=""M 50 57 L 50 43"" stroke=""black"" transform=""translate(-26 -15) rotate(45 50 50)""/><path d=""M 50 57 L 50 43"" stroke=""black"" transform=""translate(  0 -30) rotate(-45 50 50)""/><path d=""M 50 57 L 50 43"" stroke=""black"" transform=""translate( 26 -15) rotate(90 50 50)""/><path d=""M 50 52 L 50 48"" stroke=""black"" stroke-width="".5""/> <path d=""M 52 50 L 48 50"" stroke=""black"" stroke-width="".5""/></svg>","90","","","","","","VDACtest","red","6th","horizontal","true","low","",""
"","html-keyboard-response","116","393201","0.0-3.0-0.0-2.22","s1ylc86720","green","null","<p style=""font-size:300%;""> + 2 points.</p><p style=""font-size:300%"">Total: 98 points.</p>","null","","","","","","","","","","","","98",""
"","html-keyboard-response","117","394735","0.0-3.0-0.0-0.23","s1ylc86720","green","null","<svg viewBox=""0 0 100 100"" > <path d=""M 50 52 L 50 48"" stroke=""black"" stroke-width="".5""/> <path d=""M 52 50 L 48 50"" stroke=""black"" stroke-width="".5""/>","null","","","","","","","","","","","","",""
"","html-keyboard-response","118","395641","0.0-3.0-0.0-1.23","s1ylc86720","green","897.7600000798702","<svg viewBox=""0 0 100 100"" ><circle cx=""50"" cy=""50"" r=""10"" fill=""none"" transform=""translate( 26  15)"" stroke=""blueviolet"" /><circle cx=""50"" cy=""50"" r=""10"" fill=""none"" transform=""translate(  0  30)"" stroke=""magenta"" /><circle cx=""50"" cy=""50"" r=""10"" fill=""none"" transform=""translate(-26  15)"" stroke=""green"" /><circle cx=""50"" cy=""50"" r=""10"" fill=""none"" transform=""translate(-26 -15)"" stroke=""black"" /><circle cx=""50"" cy=""50"" r=""10"" fill=""none"" transform=""translate(  0 -30)"" stroke=""gold"" /><circle cx=""50"" cy=""50"" r=""10"" fill=""none"" transform=""translate( 26 -15)"" stroke=""cyan"" /><path d=""M 50 57 L 50 43"" stroke=""black"" transform=""translate( 26  15) rotate(-45 50 50)""/><path d=""M 50 57 L 50 43"" stroke=""black"" transform=""translate(  0  30) rotate(45 50 50)""/><path d=""M 50 57 L 50 43"" stroke=""black"" transform=""translate(-26  15) rotate(90 50 50)""/><path d=""M 50 57 L 50 43"" stroke=""black"" transform=""translate(-26 -15) rotate(45 50 50)""/><path d=""M 50 57 L 50 43"" stroke=""black"" transform=""translate(  0 -30) rotate(-45 50 50)""/><path d=""M 50 57 L 50 43"" stroke=""black"" transform=""translate( 26 -15) rotate(-45 50 50)""/><path d=""M 50 52 L 50 48"" stroke=""black"" stroke-width="".5""/> <path d=""M 52 50 L 48 50"" stroke=""black"" stroke-width="".5""/></svg>","90","","","","","","VDACtest","green","3rd","horizontal","true","high","",""
"","html-keyboard-response","119","398171","0.0-3.0-0.0-2.23","s1ylc86720","green","null","<p style=""font-size:300%;""> + 10 points.</p><p style=""font-size:300%"">Total: 108 points.</p>","null","","","","","","","","","","","","108",""
"","html-keyboard-response","120","399726","0.0-3.0-0.0-0.24","s1ylc86720","green","null","<svg viewBox=""0 0 100 100"" > <path d=""M 50 52 L 50 48"" stroke=""black"" stroke-width="".5""/> <path d=""M 52 50 L 48 50"" stroke=""black"" stroke-width="".5""/>","null","","","","","","","","","","","","",""
"","html-keyboard-response","121","400420","0.0-3.0-0.0-1.24","s1ylc86720","green","683.919999981299","<svg viewBox=""0 0 100 100"" ><circle cx=""50"" cy=""50"" r=""10"" fill=""none"" transform=""translate( 26  15)"" stroke=""magenta"" /><circle cx=""50"" cy=""50"" r=""10"" fill=""none"" transform=""translate(  0  30)"" stroke=""cyan"" /><circle cx=""50"" cy=""50"" r=""10"" fill=""none"" transform=""translate(-26  15)"" stroke=""red"" /><circle cx=""50"" cy=""50"" r=""10"" fill=""none"" transform=""translate(-26 -15)"" stroke=""blueviolet"" /><circle cx=""50"" cy=""50"" r=""10"" fill=""none"" transform=""translate(  0 -30)"" stroke=""black"" /><circle cx=""50"" cy=""50"" r=""10"" fill=""none"" transform=""translate( 26 -15)"" stroke=""gold"" /><path d=""M 50 57 L 50 43"" stroke=""black"" transform=""translate( 26  15) rotate(-45 50 50)""/><path d=""M 50 57 L 50 43"" stroke=""black"" transform=""translate(  0  30) rotate(-45 50 50)""/><path d=""M 50 57 L 50 43"" stroke=""black"" transform=""translate(-26  15) rotate(90 50 50)""/><path d=""M 50 57 L 50 43"" stroke=""black"" transform=""translate(-26 -15) rotate(45 50 50)""/><path d=""M 50 57 L 50 43"" stroke=""black"" transform=""translate(  0 -30) rotate(-45 50 50)""/><path d=""M 50 57 L 50 43"" stroke=""black"" transform=""translate( 26 -15) rotate(-45 50 50)""/><path d=""M 50 52 L 50 48"" stroke=""black"" stroke-width="".5""/> <path d=""M 52 50 L 48 50"" stroke=""black"" stroke-width="".5""/></svg>","90","","","","","","VDACtest","red","3rd","horizontal","true","low","",""
"","html-keyboard-response","122","402941","0.0-3.0-0.0-2.24","s1ylc86720","green","null","<p style=""font-size:300%;""> + 2 points.</p><p style=""font-size:300%"">Total: 110 points.</p>","null","","","","","","","","","","","","110",""
"","html-keyboard-response","123","404476","0.0-3.0-0.0-0.25","s1ylc86720","green","null","<svg viewBox=""0 0 100 100"" > <path d=""M 50 52 L 50 48"" stroke=""black"" stroke-width="".5""/> <path d=""M 52 50 L 48 50"" stroke=""black"" stroke-width="".5""/>","null","","","","","","","","","","","","",""
"","html-keyboard-response","124","405195","0.0-3.0-0.0-1.25","s1ylc86720","green","709.1849998105317","<svg viewBox=""0 0 100 100"" ><circle cx=""50"" cy=""50"" r=""10"" fill=""none"" transform=""translate( 26  15)"" stroke=""magenta"" /><circle cx=""50"" cy=""50"" r=""10"" fill=""none"" transform=""translate(  0  30)"" stroke=""green"" /><circle cx=""50"" cy=""50"" r=""10"" fill=""none"" transform=""translate(-26  15)"" stroke=""gold"" /><circle cx=""50"" cy=""50"" r=""10"" fill=""none"" transform=""translate(-26 -15)"" stroke=""blueviolet"" /><circle cx=""50"" cy=""50"" r=""10"" fill=""none"" transform=""translate(  0 -30)"" stroke=""black"" /><circle cx=""50"" cy=""50"" r=""10"" fill=""none"" transform=""translate( 26 -15)"" stroke=""cyan"" /><path d=""M 50 57 L 50 43"" stroke=""black"" transform=""translate( 26  15) rotate(45 50 50)""/><path d=""M 50 57 L 50 43"" stroke=""black"" transform=""translate(  0  30) rotate(90 50 50)""/><path d=""M 50 57 L 50 43"" stroke=""black"" transform=""translate(-26  15) rotate(-45 50 50)""/><path d=""M 50 57 L 50 43"" stroke=""black"" transform=""translate(-26 -15) rotate(-45 50 50)""/><path d=""M 50 57 L 50 43"" stroke=""black"" transform=""translate(  0 -30) rotate(45 50 50)""/><path d=""M 50 57 L 50 43"" stroke=""black"" transform=""translate( 26 -15) rotate(45 50 50)""/><path d=""M 50 52 L 50 48"" stroke=""black"" stroke-width="".5""/> <path d=""M 52 50 L 48 50"" stroke=""black"" stroke-width="".5""/></svg>","90","","","","","","VDACtest","green","2nd","horizontal","true","high","",""
"","html-keyboard-response","125","407710","0.0-3.0-0.0-2.25","s1ylc86720","green","null","<p style=""font-size:300%;""> + 2 points.</p><p style=""font-size:300%"">Total: 112 points.</p>","null","","","","","","","","","","","","112",""
"","html-keyboard-response","126","409255","0.0-3.0-0.0-0.26","s1ylc86720","green","null","<svg viewBox=""0 0 100 100"" > <path d=""M 50 52 L 50 48"" stroke=""black"" stroke-width="".5""/> <path d=""M 52 50 L 48 50"" stroke=""black"" stroke-width="".5""/>","null","","","","","","","","","","","","",""
"","html-keyboard-response","127","409892","0.0-3.0-0.0-1.26","s1ylc86720","green","629.3049999512732","<svg viewBox=""0 0 100 100"" ><circle cx=""50"" cy=""50"" r=""10"" fill=""none"" transform=""translate( 26  15)"" stroke=""blueviolet"" /><circle cx=""50"" cy=""50"" r=""10"" fill=""none"" transform=""translate(  0  30)"" stroke=""black"" /><circle cx=""50"" cy=""50"" r=""10"" fill=""none"" transform=""translate(-26  15)"" stroke=""gold"" /><circle cx=""50"" cy=""50"" r=""10"" fill=""none"" transform=""translate(-26 -15)"" stroke=""magenta"" /><circle cx=""50"" cy=""50"" r=""10"" fill=""none"" transform=""translate(  0 -30)"" stroke=""cyan"" /><circle cx=""50"" cy=""50"" r=""10"" fill=""none"" transform=""translate( 26 -15)"" stroke=""red"" /><path d=""M 50 57 L 50 43"" stroke=""black"" transform=""translate( 26  15) rotate(-45 50 50)""/><path d=""M 50 57 L 50 43"" stroke=""black"" transform=""translate(  0  30) rotate(45 50 50)""/><path d=""M 50 57 L 50 43"" stroke=""black"" transform=""translate(-26  15) rotate(-45 50 50)""/><path d=""M 50 57 L 50 43"" stroke=""black"" transform=""translate(-26 -15) rotate(-45 50 50)""/><path d=""M 50 57 L 50 43"" stroke=""black"" transform=""translate(  0 -30) rotate(45 50 50)""/><path d=""M 50 57 L 50 43"" stroke=""black"" transform=""translate( 26 -15) rotate(90 50 50)""/><path d=""M 50 52 L 50 48"" stroke=""black"" stroke-width="".5""/> <path d=""M 52 50 L 48 50"" stroke=""black"" stroke-width="".5""/></svg>","90","","","","","","VDACtest","red","6th","horizontal","true","low","",""
"","html-keyboard-response","128","412422","0.0-3.0-0.0-2.26","s1ylc86720","green","null","<p style=""font-size:300%;""> + 2 points.</p><p style=""font-size:300%"">Total: 114 points.</p>","null","","","","","","","","","","","","114",""
"","html-keyboard-response","129","413958","0.0-3.0-0.0-0.27","s1ylc86720","green","null","<svg viewBox=""0 0 100 100"" > <path d=""M 50 52 L 50 48"" stroke=""black"" stroke-width="".5""/> <path d=""M 52 50 L 48 50"" stroke=""black"" stroke-width="".5""/>","null","","","","","","","","","","","","",""
"","html-keyboard-response","130","414524","0.0-3.0-0.0-1.27","s1ylc86720","green","554.4449998997152","<svg viewBox=""0 0 100 100"" ><circle cx=""50"" cy=""50"" r=""10"" fill=""none"" transform=""translate( 26  15)"" stroke=""magenta"" /><circle cx=""50"" cy=""50"" r=""10"" fill=""none"" transform=""translate(  0  30)"" stroke=""red"" /><circle cx=""50"" cy=""50"" r=""10"" fill=""none"" transform=""translate(-26  15)"" stroke=""cyan"" /><circle cx=""50"" cy=""50"" r=""10"" fill=""none"" transform=""translate(-26 -15)"" stroke=""gold"" /><circle cx=""50"" cy=""50"" r=""10"" fill=""none"" transform=""translate(  0 -30)"" stroke=""black"" /><circle cx=""50"" cy=""50"" r=""10"" fill=""none"" transform=""translate( 26 -15)"" stroke=""blueviolet"" /><path d=""M 50 57 L 50 43"" stroke=""black"" transform=""translate( 26  15) rotate(-45 50 50)""/><path d=""M 50 57 L 50 43"" stroke=""black"" transform=""translate(  0  30) rotate(90 50 50)""/><path d=""M 50 57 L 50 43"" stroke=""black"" transform=""translate(-26  15) rotate(45 50 50)""/><path d=""M 50 57 L 50 43"" stroke=""black"" transform=""translate(-26 -15) rotate(-45 50 50)""/><path d=""M 50 57 L 50 43"" stroke=""black"" transform=""translate(  0 -30) rotate(-45 50 50)""/><path d=""M 50 57 L 50 43"" stroke=""black"" transform=""translate( 26 -15) rotate(45 50 50)""/><path d=""M 50 52 L 50 48"" stroke=""black"" stroke-width="".5""/> <path d=""M 52 50 L 48 50"" stroke=""black"" stroke-width="".5""/></svg>","90","","","","","","VDACtest","red","2nd","horizontal","true","low","",""
"","html-keyboard-response","131","417038","0.0-3.0-0.0-2.27","s1ylc86720","green","null","<p style=""font-size:300%;""> + 2 points.</p><p style=""font-size:300%"">Total: 116 points.</p>","null","","","","","","","","","","","","116",""
"","html-keyboard-response","132","418579","0.0-3.0-0.0-0.28","s1ylc86720","green","null","<svg viewBox=""0 0 100 100"" > <path d=""M 50 52 L 50 48"" stroke=""black"" stroke-width="".5""/> <path d=""M 52 50 L 48 50"" stroke=""black"" stroke-width="".5""/>","null","","","","","","","","","","","","",""
"","html-keyboard-response","133","419172","0.0-3.0-0.0-1.28","s1ylc86720","green","579.6149999368936","<svg viewBox=""0 0 100 100"" ><circle cx=""50"" cy=""50"" r=""10"" fill=""none"" transform=""translate( 26  15)"" stroke=""gold"" /><circle cx=""50"" cy=""50"" r=""10"" fill=""none"" transform=""translate(  0  30)"" stroke=""magenta"" /><circle cx=""50"" cy=""50"" r=""10"" fill=""none"" transform=""translate(-26  15)"" stroke=""red"" /><circle cx=""50"" cy=""50"" r=""10"" fill=""none"" transform=""translate(-26 -15)"" stroke=""black"" /><circle cx=""50"" cy=""50"" r=""10"" fill=""none"" transform=""translate(  0 -30)"" stroke=""blueviolet"" /><circle cx=""50"" cy=""50"" r=""10"" fill=""none"" transform=""translate( 26 -15)"" stroke=""cyan"" /><path d=""M 50 57 L 50 43"" stroke=""black"" transform=""translate( 26  15) rotate(45 50 50)""/><path d=""M 50 57 L 50 43"" stroke=""black"" transform=""translate(  0  30) rotate(-45 50 50)""/><path d=""M 50 57 L 50 43"" stroke=""black"" transform=""translate(-26  15) rotate(0 50 50)""/><path d=""M 50 57 L 50 43"" stroke=""black"" transform=""translate(-26 -15) rotate(45 50 50)""/><path d=""M 50 57 L 50 43"" stroke=""black"" transform=""translate(  0 -30) rotate(45 50 50)""/><path d=""M 50 57 L 50 43"" stroke=""black"" transform=""translate( 26 -15) rotate(-45 50 50)""/><path d=""M 50 52 L 50 48"" stroke=""black"" stroke-width="".5""/> <path d=""M 52 50 L 48 50"" stroke=""black"" stroke-width="".5""/></svg>","77","","","","","","VDACtest","red","3rd","vertical","true","low","",""
"","html-keyboard-response","134","421691","0.0-3.0-0.0-2.28","s1ylc86720","green","null","<p style=""font-size:300%;""> + 2 points.</p><p style=""font-size:300%"">Total: 118 points.</p>","null","","","","","","","","","","","","118",""
"","html-keyboard-response","135","423234","0.0-3.0-0.0-0.29","s1ylc86720","green","null","<svg viewBox=""0 0 100 100"" > <path d=""M 50 52 L 50 48"" stroke=""black"" stroke-width="".5""/> <path d=""M 52 50 L 48 50"" stroke=""black"" stroke-width="".5""/>","null","","","","","","","","","","","","",""
"","html-keyboard-response","136","423989","0.0-3.0-0.0-1.29","s1ylc86720","green","746.7000000178814","<svg viewBox=""0 0 100 100"" ><circle cx=""50"" cy=""50"" r=""10"" fill=""none"" transform=""translate( 26  15)"" stroke=""blueviolet"" /><circle cx=""50"" cy=""50"" r=""10"" fill=""none"" transform=""translate(  0  30)"" stroke=""black"" /><circle cx=""50"" cy=""50"" r=""10"" fill=""none"" transform=""translate(-26  15)"" stroke=""green"" /><circle cx=""50"" cy=""50"" r=""10"" fill=""none"" transform=""translate(-26 -15)"" stroke=""cyan"" /><circle cx=""50"" cy=""50"" r=""10"" fill=""none"" transform=""translate(  0 -30)"" stroke=""magenta"" /><circle cx=""50"" cy=""50"" r=""10"" fill=""none"" transform=""translate( 26 -15)"" stroke=""gold"" /><path d=""M 50 57 L 50 43"" stroke=""black"" transform=""translate( 26  15) rotate(-45 50 50)""/><path d=""M 50 57 L 50 43"" stroke=""black"" transform=""translate(  0  30) rotate(-45 50 50)""/><path d=""M 50 57 L 50 43"" stroke=""black"" transform=""translate(-26  15) rotate(0 50 50)""/><path d=""M 50 57 L 50 43"" stroke=""black"" transform=""translate(-26 -15) rotate(-45 50 50)""/><path d=""M 50 57 L 50 43"" stroke=""black"" transform=""translate(  0 -30) rotate(45 50 50)""/><path d=""M 50 57 L 50 43"" stroke=""black"" transform=""translate( 26 -15) rotate(-45 50 50)""/><path d=""M 50 52 L 50 48"" stroke=""black"" stroke-width="".5""/> <path d=""M 52 50 L 48 50"" stroke=""black"" stroke-width="".5""/></svg>","77","","","","","","VDACtest","green","3rd","vertical","true","high","",""
"","html-keyboard-response","137","426505","0.0-3.0-0.0-2.29","s1ylc86720","green","null","<p style=""font-size:300%;""> + 10 points.</p><p style=""font-size:300%"">Total: 128 points.</p>","null","","","","","","","","","","","","128",""
"","html-keyboard-response","138","428038","0.0-3.0-0.0-0.30","s1ylc86720","green","null","<svg viewBox=""0 0 100 100"" > <path d=""M 50 52 L 50 48"" stroke=""black"" stroke-width="".5""/> <path d=""M 52 50 L 48 50"" stroke=""black"" stroke-width="".5""/>","null","","","","","","","","","","","","",""
"","html-keyboard-response","139","428624","0.0-3.0-0.0-1.30","s1ylc86720","green","575.2149999607354","<svg viewBox=""0 0 100 100"" ><circle cx=""50"" cy=""50"" r=""10"" fill=""none"" transform=""translate( 26  15)"" stroke=""gold"" /><circle cx=""50"" cy=""50"" r=""10"" fill=""none"" transform=""translate(  0  30)"" stroke=""cyan"" /><circle cx=""50"" cy=""50"" r=""10"" fill=""none"" transform=""translate(-26  15)"" stroke=""green"" /><circle cx=""50"" cy=""50"" r=""10"" fill=""none"" transform=""translate(-26 -15)"" stroke=""black"" /><circle cx=""50"" cy=""50"" r=""10"" fill=""none"" transform=""translate(  0 -30)"" stroke=""magenta"" /><circle cx=""50"" cy=""50"" r=""10"" fill=""none"" transform=""translate( 26 -15)"" stroke=""blueviolet"" /><path d=""M 50 57 L 50 43"" stroke=""black"" transform=""translate( 26  15) rotate(-45 50 50)""/><path d=""M 50 57 L 50 43"" stroke=""black"" transform=""translate(  0  30) rotate(45 50 50)""/><path d=""M 50 57 L 50 43"" stroke=""black"" transform=""translate(-26  15) rotate(90 50 50)""/><path d=""M 50 57 L 50 43"" stroke=""black"" transform=""translate(-26 -15) rotate(45 50 50)""/><path d=""M 50 57 L 50 43"" stroke=""black"" transform=""translate(  0 -30) rotate(45 50 50)""/><path d=""M 50 57 L 50 43"" stroke=""black"" transform=""translate( 26 -15) rotate(45 50 50)""/><path d=""M 50 52 L 50 48"" stroke=""black"" stroke-width="".5""/> <path d=""M 52 50 L 48 50"" stroke=""black"" stroke-width="".5""/></svg>","90","","","","","","VDACtest","green","3rd","horizontal","true","high","",""
"","html-keyboard-response","140","431157","0.0-3.0-0.0-2.30","s1ylc86720","green","null","<p style=""font-size:300%;""> + 10 points.</p><p style=""font-size:300%"">Total: 138 points.</p>","null","","","","","","","","","","","","138",""
"","html-keyboard-response","141","432695","0.0-3.0-0.0-0.31","s1ylc86720","green","null","<svg viewBox=""0 0 100 100"" > <path d=""M 50 52 L 50 48"" stroke=""black"" stroke-width="".5""/> <path d=""M 52 50 L 48 50"" stroke=""black"" stroke-width="".5""/>","null","","","","","","","","","","","","",""
"","html-keyboard-response","142","433344","0.0-3.0-0.0-1.31","s1ylc86720","green","639.6000001113862","<svg viewBox=""0 0 100 100"" ><circle cx=""50"" cy=""50"" r=""10"" fill=""none"" transform=""translate( 26  15)"" stroke=""black"" /><circle cx=""50"" cy=""50"" r=""10"" fill=""none"" transform=""translate(  0  30)"" stroke=""magenta"" /><circle cx=""50"" cy=""50"" r=""10"" fill=""none"" transform=""translate(-26  15)"" stroke=""red"" /><circle cx=""50"" cy=""50"" r=""10"" fill=""none"" transform=""translate(-26 -15)"" stroke=""gold"" /><circle cx=""50"" cy=""50"" r=""10"" fill=""none"" transform=""translate(  0 -30)"" stroke=""cyan"" /><circle cx=""50"" cy=""50"" r=""10"" fill=""none"" transform=""translate( 26 -15)"" stroke=""blueviolet"" /><path d=""M 50 57 L 50 43"" stroke=""black"" transform=""translate( 26  15) rotate(45 50 50)""/><path d=""M 50 57 L 50 43"" stroke=""black"" transform=""translate(  0  30) rotate(-45 50 50)""/><path d=""M 50 57 L 50 43"" stroke=""black"" transform=""translate(-26  15) rotate(90 50 50)""/><path d=""M 50 57 L 50 43"" stroke=""black"" transform=""translate(-26 -15) rotate(45 50 50)""/><path d=""M 50 57 L 50 43"" stroke=""black"" transform=""translate(  0 -30) rotate(45 50 50)""/><path d=""M 50 57 L 50 43"" stroke=""black"" transform=""translate( 26 -15) rotate(45 50 50)""/><path d=""M 50 52 L 50 48"" stroke=""black"" stroke-width="".5""/> <path d=""M 52 50 L 48 50"" stroke=""black"" stroke-width="".5""/></svg>","90","","","","","","VDACtest","red","3rd","horizontal","true","low","",""
"","html-keyboard-response","143","435870","0.0-3.0-0.0-2.31","s1ylc86720","green","null","<p style=""font-size:300%;""> + 2 points.</p><p style=""font-size:300%"">Total: 140 points.</p>","null","","","","","","","","","","","","140",""
"","html-keyboard-response","144","437409","0.0-3.0-0.0-0.32","s1ylc86720","green","null","<svg viewBox=""0 0 100 100"" > <path d=""M 50 52 L 50 48"" stroke=""black"" stroke-width="".5""/> <path d=""M 52 50 L 48 50"" stroke=""black"" stroke-width="".5""/>","null","","","","","","","","","","","","",""
"","html-keyboard-response","145","437977","0.0-3.0-0.0-1.32","s1ylc86720","green","559.4200000632554","<svg viewBox=""0 0 100 100"" ><circle cx=""50"" cy=""50"" r=""10"" fill=""none"" transform=""translate( 26  15)"" stroke=""gold"" /><circle cx=""50"" cy=""50"" r=""10"" fill=""none"" transform=""translate(  0  30)"" stroke=""cyan"" /><circle cx=""50"" cy=""50"" r=""10"" fill=""none"" transform=""translate(-26  15)"" stroke=""green"" /><circle cx=""50"" cy=""50"" r=""10"" fill=""none"" transform=""translate(-26 -15)"" stroke=""black"" /><circle cx=""50"" cy=""50"" r=""10"" fill=""none"" transform=""translate(  0 -30)"" stroke=""blueviolet"" /><circle cx=""50"" cy=""50"" r=""10"" fill=""none"" transform=""translate( 26 -15)"" stroke=""magenta"" /><path d=""M 50 57 L 50 43"" stroke=""black"" transform=""translate( 26  15) rotate(-45 50 50)""/><path d=""M 50 57 L 50 43"" stroke=""black"" transform=""translate(  0  30) rotate(-45 50 50)""/><path d=""M 50 57 L 50 43"" stroke=""black"" transform=""translate(-26  15) rotate(0 50 50)""/><path d=""M 50 57 L 50 43"" stroke=""black"" transform=""translate(-26 -15) rotate(-45 50 50)""/><path d=""M 50 57 L 50 43"" stroke=""black"" transform=""translate(  0 -30) rotate(45 50 50)""/><path d=""M 50 57 L 50 43"" stroke=""black"" transform=""translate( 26 -15) rotate(-45 50 50)""/><path d=""M 50 52 L 50 48"" stroke=""black"" stroke-width="".5""/> <path d=""M 52 50 L 48 50"" stroke=""black"" stroke-width="".5""/></svg>","90","","","","","","VDACtest","green","3rd","vertical","false","high","",""
"","html-keyboard-response","146","440499","0.0-3.0-0.0-2.32","s1ylc86720","green","null","<p style=""font-size:300%;"">Miss.</p><p style=""font-size:300%"">Total: 140 points.</p>","null","","","","","","","","","","","","140",""
"","html-keyboard-response","147","442040","0.0-3.0-0.0-0.33","s1ylc86720","green","null","<svg viewBox=""0 0 100 100"" > <path d=""M 50 52 L 50 48"" stroke=""black"" stroke-width="".5""/> <path d=""M 52 50 L 48 50"" stroke=""black"" stroke-width="".5""/>","null","","","","","","","","","","","","",""
"","html-keyboard-response","148","442944","0.0-3.0-0.0-1.33","s1ylc86720","green","892.7300001960248","<svg viewBox=""0 0 100 100"" ><circle cx=""50"" cy=""50"" r=""10"" fill=""none"" transform=""translate( 26  15)"" stroke=""cyan"" /><circle cx=""50"" cy=""50"" r=""10"" fill=""none"" transform=""translate(  0  30)"" stroke=""black"" /><circle cx=""50"" cy=""50"" r=""10"" fill=""none"" transform=""translate(-26  15)"" stroke=""blueviolet"" /><circle cx=""50"" cy=""50"" r=""10"" fill=""none"" transform=""translate(-26 -15)"" stroke=""red"" /><circle cx=""50"" cy=""50"" r=""10"" fill=""none"" transform=""translate(  0 -30)"" stroke=""magenta"" /><circle cx=""50"" cy=""50"" r=""10"" fill=""none"" transform=""translate( 26 -15)"" stroke=""gold"" /><path d=""M 50 57 L 50 43"" stroke=""black"" transform=""translate( 26  15) rotate(-45 50 50)""/><path d=""M 50 57 L 50 43"" stroke=""black"" transform=""translate(  0  30) rotate(-45 50 50)""/><path d=""M 50 57 L 50 43"" stroke=""black"" transform=""translate(-26  15) rotate(45 50 50)""/><path d=""M 50 57 L 50 43"" stroke=""black"" transform=""translate(-26 -15) rotate(0 50 50)""/><path d=""M 50 57 L 50 43"" stroke=""black"" transform=""translate(  0 -30) rotate(45 50 50)""/><path d=""M 50 57 L 50 43"" stroke=""black"" transform=""translate( 26 -15) rotate(-45 50 50)""/><path d=""M 50 52 L 50 48"" stroke=""black"" stroke-width="".5""/> <path d=""M 52 50 L 48 50"" stroke=""black"" stroke-width="".5""/></svg>","77","","","","","","VDACtest","red","4th","vertical","true","low","",""
"","html-keyboard-response","149","445464","0.0-3.0-0.0-2.33","s1ylc86720","green","null","<p style=""font-size:300%;""> + 2 points.</p><p style=""font-size:300%"">Total: 142 points.</p>","null","","","","","","","","","","","","142",""
"","html-keyboard-response","150","447005","0.0-3.0-0.0-0.34","s1ylc86720","green","null","<svg viewBox=""0 0 100 100"" > <path d=""M 50 52 L 50 48"" stroke=""black"" stroke-width="".5""/> <path d=""M 52 50 L 48 50"" stroke=""black"" stroke-width="".5""/>","null","","","","","","","","","","","","",""
"","html-keyboard-response","151","447651","0.0-3.0-0.0-1.34","s1ylc86720","green","638.0050000734627","<svg viewBox=""0 0 100 100"" ><circle cx=""50"" cy=""50"" r=""10"" fill=""none"" transform=""translate( 26  15)"" stroke=""magenta"" /><circle cx=""50"" cy=""50"" r=""10"" fill=""none"" transform=""translate(  0  30)"" stroke=""red"" /><circle cx=""50"" cy=""50"" r=""10"" fill=""none"" transform=""translate(-26  15)"" stroke=""blueviolet"" /><circle cx=""50"" cy=""50"" r=""10"" fill=""none"" transform=""translate(-26 -15)"" stroke=""gold"" /><circle cx=""50"" cy=""50"" r=""10"" fill=""none"" transform=""translate(  0 -30)"" stroke=""black"" /><circle cx=""50"" cy=""50"" r=""10"" fill=""none"" transform=""translate( 26 -15)"" stroke=""cyan"" /><path d=""M 50 57 L 50 43"" stroke=""black"" transform=""translate( 26  15) rotate(-45 50 50)""/><path d=""M 50 57 L 50 43"" stroke=""black"" transform=""translate(  0  30) rotate(0 50 50)""/><path d=""M 50 57 L 50 43"" stroke=""black"" transform=""translate(-26  15) rotate(-45 50 50)""/><path d=""M 50 57 L 50 43"" stroke=""black"" transform=""translate(-26 -15) rotate(45 50 50)""/><path d=""M 50 57 L 50 43"" stroke=""black"" transform=""translate(  0 -30) rotate(45 50 50)""/><path d=""M 50 57 L 50 43"" stroke=""black"" transform=""translate( 26 -15) rotate(-45 50 50)""/><path d=""M 50 52 L 50 48"" stroke=""black"" stroke-width="".5""/> <path d=""M 52 50 L 48 50"" stroke=""black"" stroke-width="".5""/></svg>","77","","","","","","VDACtest","red","2nd","vertical","true","low","",""
"","html-keyboard-response","152","450168","0.0-3.0-0.0-2.34","s1ylc86720","green","null","<p style=""font-size:300%;""> + 2 points.</p><p style=""font-size:300%"">Total: 144 points.</p>","null","","","","","","","","","","","","144",""
"","html-keyboard-response","153","451707","0.0-3.0-0.0-0.35","s1ylc86720","green","null","<svg viewBox=""0 0 100 100"" > <path d=""M 50 52 L 50 48"" stroke=""black"" stroke-width="".5""/> <path d=""M 52 50 L 48 50"" stroke=""black"" stroke-width="".5""/>","null","","","","","","","","","","","","",""
