"success","trial_type","trial_index","time_elapsed","internal_node_id","subject","condition","rt","stimulus","key_press","url","responses","question_order","value","view_history","trialType","color","tgtPosition","orientation","correct","rewardType","reward","colorPosition"
"true","fullscreen","0","5765","0.0-0.0-0.0","ox9w1sz19a","red","","","","","","","","","","","","","","","",""
"","html-keyboard-response","1","7670","0.0-0.0-1.0","ox9w1sz19a","red","1903","<div style= ""font-size:20px;"" <p> <strong> Welcome to the experiment! </strong><br> <p style=""color:red; font-size:25px;""> Please do NOT exit full screen until you are done with the experiment. </p><p style=""color:red;""> The experiment will be canceled and your data will be lost if you try to go back or refresh the page at any time during the experiment.</p><p style=""color:red;""> Please rely on your memory and do NOT write anything down throughout the experiment. </p><br><p style=""color:black;"">Press any key to continue.</p> </span>","32","","","","","","","","","","","","",""
"","external-html","2","10580","0.0-0.0-2.0","ox9w1sz19a","red","2862","","","http://labs.psychology.illinois.edu/~jy57/memory_capture/supportFiles/Consent.html","","","","","","","","","","","",""
"","survey-text","3","21045","0.0-0.0-3.0","ox9w1sz19a","red","10453","","","","{""Q0"":""22"",""Q1"":""3.5""}","","","","","","","","","","",""
"","survey-multi-select","4","28679","0.0-0.0-4.0","ox9w1sz19a","red","7632.000000000004","","","","{""Q0"":[""White""]}","[0]","","","","","","","","","",""
"","survey-multi-choice","5","41174","0.0-0.0-5.0","ox9w1sz19a","red","12491.999999999996","","","","{""Q0"":""Female"",""Q1"":""Yes"",""Q2"":""Somewhat better than average""}","[0,1,2]","","","","","","","","","",""
"","call-function","6","41176","0.0-0.0-6.0","ox9w1sz19a","red","","","","","","","","","","","","","","","",""
"","instructions","7","204743","0.0-1.0-0.0","ox9w1sz19a","red","163561","","","","","","","[{""page_index"":0,""viewing_time"":48251.000000000015},{""page_index"":1,""viewing_time"":21669.999999999985},{""page_index"":2,""viewing_time"":2515},{""page_index"":3,""viewing_time"":20869},{""page_index"":4,""viewing_time"":5401},{""page_index"":5,""viewing_time"":8035},{""page_index"":6,""viewing_time"":3181},{""page_index"":5,""viewing_time"":2403},{""page_index"":4,""viewing_time"":31834},{""page_index"":5,""viewing_time"":7102},{""page_index"":6,""viewing_time"":681},{""page_index"":7,""viewing_time"":11618}]","","","","","","","",""
"","html-keyboard-response","8","206745","0.0-1.0-1.0-0.0","ox9w1sz19a","red","null","<p>Place your fingers on the <b>Z</b> and <b>M</b> keys. The experiment will begin shortly.</p><p>&nbsp</p>","null","","","","","","","","","","","","",""
"","html-keyboard-response","9","207748","0.0-1.0-1.0-1.0","ox9w1sz19a","red","null","<p>Place your fingers on the <b>Z</b> and <b>M</b> keys. The experiment will begin shortly.</p><p>3</p>","null","","","","","","","","","","","","",""
"","html-keyboard-response","10","208750","0.0-1.0-1.0-2.0","ox9w1sz19a","red","null","<p>Place your fingers on the <b>Z</b> and <b>M</b> keys. The experiment will begin shortly.</p><p>2</p>","null","","","","","","","","","","","","",""
"","html-keyboard-response","11","209751","0.0-1.0-1.0-3.0","ox9w1sz19a","red","null","<p>Place your fingers on the <b>Z</b> and <b>M</b> keys. The experiment will begin shortly.</p><p>1</p>","null","","","","","","","","","","","","",""
"","html-keyboard-response","12","210723","0.0-1.0-2.0-0.0","ox9w1sz19a","red","null","<svg viewBox=""0 0 100 100"" > <path d=""M 50 52 L 50 48"" stroke=""black"" stroke-width="".5""/> <path d=""M 52 50 L 48 50"" stroke=""black"" stroke-width="".5""/>","null","","","","","","","","","","","","",""
"","html-keyboard-response","13","211725","0.0-1.0-2.0-1.0","ox9w1sz19a","red","null","<svg viewBox=""0 0 100 100"" ><text font-size=""10%"" text-anchor=""middle""  x=""50"" y=""98"">Press Z for horizontal or M for vertical</text><circle cx=""50"" cy=""50"" r=""10"" fill=""none"" transform=""translate( 26  15)"" stroke=""cyan"" /><circle cx=""50"" cy=""50"" r=""10"" fill=""none"" transform=""translate(  0  30)"" stroke=""blueviolet"" /><circle cx=""50"" cy=""50"" r=""10"" fill=""none"" transform=""translate(-26  15)"" stroke=""magenta"" /><circle cx=""50"" cy=""50"" r=""10"" fill=""none"" transform=""translate(-26 -15)"" stroke=""black"" /><circle cx=""50"" cy=""50"" r=""10"" fill=""none"" transform=""translate(  0 -30)"" stroke=""gold"" /><circle cx=""50"" cy=""50"" r=""10"" fill=""none"" transform=""translate( 26 -15)"" stroke=""red"" /><path d=""M 50 57 L 50 43"" stroke=""black"" transform=""translate( 26  15) rotate(45 50 50)""/><path d=""M 50 57 L 50 43"" stroke=""black"" transform=""translate(  0  30) rotate(-45 50 50)""/><path d=""M 50 57 L 50 43"" stroke=""black"" transform=""translate(-26  15) rotate(45 50 50)""/><path d=""M 50 57 L 50 43"" stroke=""black"" transform=""translate(-26 -15) rotate(45 50 50)""/><path d=""M 50 57 L 50 43"" stroke=""black"" transform=""translate(  0 -30) rotate(45 50 50)""/><path d=""M 50 57 L 50 43"" stroke=""black"" transform=""translate( 26 -15) rotate(0 50 50)""/><path d=""M 50 52 L 50 48"" stroke=""black"" stroke-width="".5""/> <path d=""M 52 50 L 48 50"" stroke=""black"" stroke-width="".5""/></svg>","null","","","","","","VDACtraining","red","5","vertical","null","","",""
"","html-keyboard-response","14","214230","0.0-1.0-2.0-2.0","ox9w1sz19a","red","null","<p style=""font-size:300%;"">Miss.</p> <p style=""font-size:300%;"">Too slow.</p>","null","","","","","","","","","","","","",""
"","html-keyboard-response","15","216203","0.0-1.0-2.0-0.1","ox9w1sz19a","red","null","<svg viewBox=""0 0 100 100"" > <path d=""M 50 52 L 50 48"" stroke=""black"" stroke-width="".5""/> <path d=""M 52 50 L 48 50"" stroke=""black"" stroke-width="".5""/>","null","","","","","","","","","","","","",""
"","html-keyboard-response","16","217206","0.0-1.0-2.0-1.1","ox9w1sz19a","red","null","<svg viewBox=""0 0 100 100"" ><text font-size=""10%"" text-anchor=""middle""  x=""50"" y=""98"">Press Z for horizontal or M for vertical</text><circle cx=""50"" cy=""50"" r=""10"" fill=""none"" transform=""translate( 26  15)"" stroke=""black"" /><circle cx=""50"" cy=""50"" r=""10"" fill=""none"" transform=""translate(  0  30)"" stroke=""green"" /><circle cx=""50"" cy=""50"" r=""10"" fill=""none"" transform=""translate(-26  15)"" stroke=""cyan"" /><circle cx=""50"" cy=""50"" r=""10"" fill=""none"" transform=""translate(-26 -15)"" stroke=""magenta"" /><circle cx=""50"" cy=""50"" r=""10"" fill=""none"" transform=""translate(  0 -30)"" stroke=""blueviolet"" /><circle cx=""50"" cy=""50"" r=""10"" fill=""none"" transform=""translate( 26 -15)"" stroke=""gold"" /><path d=""M 50 57 L 50 43"" stroke=""black"" transform=""translate( 26  15) rotate(45 50 50)""/><path d=""M 50 57 L 50 43"" stroke=""black"" transform=""translate(  0  30) rotate(90 50 50)""/><path d=""M 50 57 L 50 43"" stroke=""black"" transform=""translate(-26  15) rotate(-45 50 50)""/><path d=""M 50 57 L 50 43"" stroke=""black"" transform=""translate(-26 -15) rotate(45 50 50)""/><path d=""M 50 57 L 50 43"" stroke=""black"" transform=""translate(  0 -30) rotate(-45 50 50)""/><path d=""M 50 57 L 50 43"" stroke=""black"" transform=""translate( 26 -15) rotate(45 50 50)""/><path d=""M 50 52 L 50 48"" stroke=""black"" stroke-width="".5""/> <path d=""M 52 50 L 48 50"" stroke=""black"" stroke-width="".5""/></svg>","null","","","","","","VDACtraining","green","1","horizontal","null","","",""
"","html-keyboard-response","17","219709","0.0-1.0-2.0-2.1","ox9w1sz19a","red","null","<p style=""font-size:300%;"">Miss.</p> <p style=""font-size:300%;"">Too slow.</p>","null","","","","","","","","","","","","",""
"","html-keyboard-response","18","221683","0.0-1.0-2.0-0.2","ox9w1sz19a","red","null","<svg viewBox=""0 0 100 100"" > <path d=""M 50 52 L 50 48"" stroke=""black"" stroke-width="".5""/> <path d=""M 52 50 L 48 50"" stroke=""black"" stroke-width="".5""/>","null","","","","","","","","","","","","",""
"","html-keyboard-response","19","222389","0.0-1.0-2.0-1.2","ox9w1sz19a","red","704","<svg viewBox=""0 0 100 100"" ><text font-size=""10%"" text-anchor=""middle""  x=""50"" y=""98"">Press Z for horizontal or M for vertical</text><circle cx=""50"" cy=""50"" r=""10"" fill=""none"" transform=""translate( 26  15)"" stroke=""cyan"" /><circle cx=""50"" cy=""50"" r=""10"" fill=""none"" transform=""translate(  0  30)"" stroke=""magenta"" /><circle cx=""50"" cy=""50"" r=""10"" fill=""none"" transform=""translate(-26  15)"" stroke=""black"" /><circle cx=""50"" cy=""50"" r=""10"" fill=""none"" transform=""translate(-26 -15)"" stroke=""red"" /><circle cx=""50"" cy=""50"" r=""10"" fill=""none"" transform=""translate(  0 -30)"" stroke=""blueviolet"" /><circle cx=""50"" cy=""50"" r=""10"" fill=""none"" transform=""translate( 26 -15)"" stroke=""gold"" /><path d=""M 50 57 L 50 43"" stroke=""black"" transform=""translate( 26  15) rotate(45 50 50)""/><path d=""M 50 57 L 50 43"" stroke=""black"" transform=""translate(  0  30) rotate(45 50 50)""/><path d=""M 50 57 L 50 43"" stroke=""black"" transform=""translate(-26  15) rotate(-45 50 50)""/><path d=""M 50 57 L 50 43"" stroke=""black"" transform=""translate(-26 -15) rotate(0 50 50)""/><path d=""M 50 57 L 50 43"" stroke=""black"" transform=""translate(  0 -30) rotate(-45 50 50)""/><path d=""M 50 57 L 50 43"" stroke=""black"" transform=""translate( 26 -15) rotate(45 50 50)""/><path d=""M 50 52 L 50 48"" stroke=""black"" stroke-width="".5""/> <path d=""M 52 50 L 48 50"" stroke=""black"" stroke-width="".5""/></svg>","77","","","","","","VDACtraining","red","3","vertical","true","","",""
"","html-keyboard-response","20","224892","0.0-1.0-2.0-2.2","ox9w1sz19a","red","null","<p style=""font-size:300%;"">Correct!</p>","null","","","","","","","","","","","","",""
"","html-keyboard-response","21","226865","0.0-1.0-2.0-0.3","ox9w1sz19a","red","null","<svg viewBox=""0 0 100 100"" > <path d=""M 50 52 L 50 48"" stroke=""black"" stroke-width="".5""/> <path d=""M 52 50 L 48 50"" stroke=""black"" stroke-width="".5""/>","null","","","","","","","","","","","","",""
"","html-keyboard-response","22","227869","0.0-1.0-2.0-1.3","ox9w1sz19a","red","null","<svg viewBox=""0 0 100 100"" ><text font-size=""10%"" text-anchor=""middle""  x=""50"" y=""98"">Press Z for horizontal or M for vertical</text><circle cx=""50"" cy=""50"" r=""10"" fill=""none"" transform=""translate( 26  15)"" stroke=""magenta"" /><circle cx=""50"" cy=""50"" r=""10"" fill=""none"" transform=""translate(  0  30)"" stroke=""blueviolet"" /><circle cx=""50"" cy=""50"" r=""10"" fill=""none"" transform=""translate(-26  15)"" stroke=""cyan"" /><circle cx=""50"" cy=""50"" r=""10"" fill=""none"" transform=""translate(-26 -15)"" stroke=""green"" /><circle cx=""50"" cy=""50"" r=""10"" fill=""none"" transform=""translate(  0 -30)"" stroke=""black"" /><circle cx=""50"" cy=""50"" r=""10"" fill=""none"" transform=""translate( 26 -15)"" stroke=""gold"" /><path d=""M 50 57 L 50 43"" stroke=""black"" transform=""translate( 26  15) rotate(-45 50 50)""/><path d=""M 50 57 L 50 43"" stroke=""black"" transform=""translate(  0  30) rotate(45 50 50)""/><path d=""M 50 57 L 50 43"" stroke=""black"" transform=""translate(-26  15) rotate(45 50 50)""/><path d=""M 50 57 L 50 43"" stroke=""black"" transform=""translate(-26 -15) rotate(90 50 50)""/><path d=""M 50 57 L 50 43"" stroke=""black"" transform=""translate(  0 -30) rotate(-45 50 50)""/><path d=""M 50 57 L 50 43"" stroke=""black"" transform=""translate( 26 -15) rotate(45 50 50)""/><path d=""M 50 52 L 50 48"" stroke=""black"" stroke-width="".5""/> <path d=""M 52 50 L 48 50"" stroke=""black"" stroke-width="".5""/></svg>","null","","","","","","VDACtraining","green","3","horizontal","null","","",""
"","html-keyboard-response","23","230371","0.0-1.0-2.0-2.3","ox9w1sz19a","red","null","<p style=""font-size:300%;"">Miss.</p> <p style=""font-size:300%;"">Too slow.</p>","null","","","","","","","","","","","","",""
"","html-keyboard-response","24","232344","0.0-1.0-2.0-0.4","ox9w1sz19a","red","null","<svg viewBox=""0 0 100 100"" > <path d=""M 50 52 L 50 48"" stroke=""black"" stroke-width="".5""/> <path d=""M 52 50 L 48 50"" stroke=""black"" stroke-width="".5""/>","null","","","","","","","","","","","","",""
"","html-keyboard-response","25","233139","0.0-1.0-2.0-1.4","ox9w1sz19a","red","793","<svg viewBox=""0 0 100 100"" ><text font-size=""10%"" text-anchor=""middle""  x=""50"" y=""98"">Press Z for horizontal or M for vertical</text><circle cx=""50"" cy=""50"" r=""10"" fill=""none"" transform=""translate( 26  15)"" stroke=""magenta"" /><circle cx=""50"" cy=""50"" r=""10"" fill=""none"" transform=""translate(  0  30)"" stroke=""black"" /><circle cx=""50"" cy=""50"" r=""10"" fill=""none"" transform=""translate(-26  15)"" stroke=""red"" /><circle cx=""50"" cy=""50"" r=""10"" fill=""none"" transform=""translate(-26 -15)"" stroke=""gold"" /><circle cx=""50"" cy=""50"" r=""10"" fill=""none"" transform=""translate(  0 -30)"" stroke=""blueviolet"" /><circle cx=""50"" cy=""50"" r=""10"" fill=""none"" transform=""translate( 26 -15)"" stroke=""cyan"" /><path d=""M 50 57 L 50 43"" stroke=""black"" transform=""translate( 26  15) rotate(45 50 50)""/><path d=""M 50 57 L 50 43"" stroke=""black"" transform=""translate(  0  30) rotate(-45 50 50)""/><path d=""M 50 57 L 50 43"" stroke=""black"" transform=""translate(-26  15) rotate(90 50 50)""/><path d=""M 50 57 L 50 43"" stroke=""black"" transform=""translate(-26 -15) rotate(-45 50 50)""/><path d=""M 50 57 L 50 43"" stroke=""black"" transform=""translate(  0 -30) rotate(45 50 50)""/><path d=""M 50 57 L 50 43"" stroke=""black"" transform=""translate( 26 -15) rotate(45 50 50)""/><path d=""M 50 52 L 50 48"" stroke=""black"" stroke-width="".5""/> <path d=""M 52 50 L 48 50"" stroke=""black"" stroke-width="".5""/></svg>","77","","","","","","VDACtraining","red","2","horizontal","false","","",""
"","html-keyboard-response","26","235643","0.0-1.0-2.0-2.4","ox9w1sz19a","red","null","<p style=""font-size:300%;"">Miss.</p> <p style=""font-size:300%;"">Wrong response.</p>","null","","","","","","","","","","","","",""
"","html-keyboard-response","27","237616","0.0-1.0-2.0-0.5","ox9w1sz19a","red","null","<svg viewBox=""0 0 100 100"" > <path d=""M 50 52 L 50 48"" stroke=""black"" stroke-width="".5""/> <path d=""M 52 50 L 48 50"" stroke=""black"" stroke-width="".5""/>","null","","","","","","","","","","","","",""
"","html-keyboard-response","28","238619","0.0-1.0-2.0-1.5","ox9w1sz19a","red","null","<svg viewBox=""0 0 100 100"" ><text font-size=""10%"" text-anchor=""middle""  x=""50"" y=""98"">Press Z for horizontal or M for vertical</text><circle cx=""50"" cy=""50"" r=""10"" fill=""none"" transform=""translate( 26  15)"" stroke=""magenta"" /><circle cx=""50"" cy=""50"" r=""10"" fill=""none"" transform=""translate(  0  30)"" stroke=""red"" /><circle cx=""50"" cy=""50"" r=""10"" fill=""none"" transform=""translate(-26  15)"" stroke=""gold"" /><circle cx=""50"" cy=""50"" r=""10"" fill=""none"" transform=""translate(-26 -15)"" stroke=""black"" /><circle cx=""50"" cy=""50"" r=""10"" fill=""none"" transform=""translate(  0 -30)"" stroke=""cyan"" /><circle cx=""50"" cy=""50"" r=""10"" fill=""none"" transform=""translate( 26 -15)"" stroke=""blueviolet"" /><path d=""M 50 57 L 50 43"" stroke=""black"" transform=""translate( 26  15) rotate(45 50 50)""/><path d=""M 50 57 L 50 43"" stroke=""black"" transform=""translate(  0  30) rotate(0 50 50)""/><path d=""M 50 57 L 50 43"" stroke=""black"" transform=""translate(-26  15) rotate(45 50 50)""/><path d=""M 50 57 L 50 43"" stroke=""black"" transform=""translate(-26 -15) rotate(45 50 50)""/><path d=""M 50 57 L 50 43"" stroke=""black"" transform=""translate(  0 -30) rotate(-45 50 50)""/><path d=""M 50 57 L 50 43"" stroke=""black"" transform=""translate( 26 -15) rotate(45 50 50)""/><path d=""M 50 52 L 50 48"" stroke=""black"" stroke-width="".5""/> <path d=""M 52 50 L 48 50"" stroke=""black"" stroke-width="".5""/></svg>","null","","","","","","VDACtraining","red","1","vertical","null","","",""
"","html-keyboard-response","29","241122","0.0-1.0-2.0-2.5","ox9w1sz19a","red","null","<p style=""font-size:300%;"">Miss.</p> <p style=""font-size:300%;"">Too slow.</p>","null","","","","","","","","","","","","",""
"","html-keyboard-response","30","243094","0.0-1.0-2.0-0.6","ox9w1sz19a","red","null","<svg viewBox=""0 0 100 100"" > <path d=""M 50 52 L 50 48"" stroke=""black"" stroke-width="".5""/> <path d=""M 52 50 L 48 50"" stroke=""black"" stroke-width="".5""/>","null","","","","","","","","","","","","",""
"","html-keyboard-response","31","243899","0.0-1.0-2.0-1.6","ox9w1sz19a","red","804","<svg viewBox=""0 0 100 100"" ><text font-size=""10%"" text-anchor=""middle""  x=""50"" y=""98"">Press Z for horizontal or M for vertical</text><circle cx=""50"" cy=""50"" r=""10"" fill=""none"" transform=""translate( 26  15)"" stroke=""magenta"" /><circle cx=""50"" cy=""50"" r=""10"" fill=""none"" transform=""translate(  0  30)"" stroke=""black"" /><circle cx=""50"" cy=""50"" r=""10"" fill=""none"" transform=""translate(-26  15)"" stroke=""green"" /><circle cx=""50"" cy=""50"" r=""10"" fill=""none"" transform=""translate(-26 -15)"" stroke=""gold"" /><circle cx=""50"" cy=""50"" r=""10"" fill=""none"" transform=""translate(  0 -30)"" stroke=""blueviolet"" /><circle cx=""50"" cy=""50"" r=""10"" fill=""none"" transform=""translate( 26 -15)"" stroke=""cyan"" /><path d=""M 50 57 L 50 43"" stroke=""black"" transform=""translate( 26  15) rotate(45 50 50)""/><path d=""M 50 57 L 50 43"" stroke=""black"" transform=""translate(  0  30) rotate(-45 50 50)""/><path d=""M 50 57 L 50 43"" stroke=""black"" transform=""translate(-26  15) rotate(0 50 50)""/><path d=""M 50 57 L 50 43"" stroke=""black"" transform=""translate(-26 -15) rotate(45 50 50)""/><path d=""M 50 57 L 50 43"" stroke=""black"" transform=""translate(  0 -30) rotate(-45 50 50)""/><path d=""M 50 57 L 50 43"" stroke=""black"" transform=""translate( 26 -15) rotate(-45 50 50)""/><path d=""M 50 52 L 50 48"" stroke=""black"" stroke-width="".5""/> <path d=""M 52 50 L 48 50"" stroke=""black"" stroke-width="".5""/></svg>","90","","","","","","VDACtraining","green","2","vertical","false","","",""
"","html-keyboard-response","32","246402","0.0-1.0-2.0-2.6","ox9w1sz19a","red","null","<p style=""font-size:300%;"">Miss.</p> <p style=""font-size:300%;"">Wrong response.</p>","null","","","","","","","","","","","","",""
"","html-keyboard-response","33","248375","0.0-1.0-2.0-0.7","ox9w1sz19a","red","null","<svg viewBox=""0 0 100 100"" > <path d=""M 50 52 L 50 48"" stroke=""black"" stroke-width="".5""/> <path d=""M 52 50 L 48 50"" stroke=""black"" stroke-width="".5""/>","null","","","","","","","","","","","","",""
"","html-keyboard-response","34","249377","0.0-1.0-2.0-1.7","ox9w1sz19a","red","null","<svg viewBox=""0 0 100 100"" ><text font-size=""10%"" text-anchor=""middle""  x=""50"" y=""98"">Press Z for horizontal or M for vertical</text><circle cx=""50"" cy=""50"" r=""10"" fill=""none"" transform=""translate( 26  15)"" stroke=""gold"" /><circle cx=""50"" cy=""50"" r=""10"" fill=""none"" transform=""translate(  0  30)"" stroke=""blueviolet"" /><circle cx=""50"" cy=""50"" r=""10"" fill=""none"" transform=""translate(-26  15)"" stroke=""cyan"" /><circle cx=""50"" cy=""50"" r=""10"" fill=""none"" transform=""translate(-26 -15)"" stroke=""magenta"" /><circle cx=""50"" cy=""50"" r=""10"" fill=""none"" transform=""translate(  0 -30)"" stroke=""red"" /><circle cx=""50"" cy=""50"" r=""10"" fill=""none"" transform=""translate( 26 -15)"" stroke=""black"" /><path d=""M 50 57 L 50 43"" stroke=""black"" transform=""translate( 26  15) rotate(-45 50 50)""/><path d=""M 50 57 L 50 43"" stroke=""black"" transform=""translate(  0  30) rotate(-45 50 50)""/><path d=""M 50 57 L 50 43"" stroke=""black"" transform=""translate(-26  15) rotate(-45 50 50)""/><path d=""M 50 57 L 50 43"" stroke=""black"" transform=""translate(-26 -15) rotate(-45 50 50)""/><path d=""M 50 57 L 50 43"" stroke=""black"" transform=""translate(  0 -30) rotate(90 50 50)""/><path d=""M 50 57 L 50 43"" stroke=""black"" transform=""translate( 26 -15) rotate(45 50 50)""/><path d=""M 50 52 L 50 48"" stroke=""black"" stroke-width="".5""/> <path d=""M 52 50 L 48 50"" stroke=""black"" stroke-width="".5""/></svg>","null","","","","","","VDACtraining","red","4","horizontal","null","","",""
"","html-keyboard-response","35","251880","0.0-1.0-2.0-2.7","ox9w1sz19a","red","null","<p style=""font-size:300%;"">Miss.</p> <p style=""font-size:300%;"">Too slow.</p>","null","","","","","","","","","","","","",""
"","html-keyboard-response","36","253853","0.0-1.0-2.0-0.8","ox9w1sz19a","red","null","<svg viewBox=""0 0 100 100"" > <path d=""M 50 52 L 50 48"" stroke=""black"" stroke-width="".5""/> <path d=""M 52 50 L 48 50"" stroke=""black"" stroke-width="".5""/>","null","","","","","","","","","","","","",""
"","html-keyboard-response","37","254746","0.0-1.0-2.0-1.8","ox9w1sz19a","red","891","<svg viewBox=""0 0 100 100"" ><text font-size=""10%"" text-anchor=""middle""  x=""50"" y=""98"">Press Z for horizontal or M for vertical</text><circle cx=""50"" cy=""50"" r=""10"" fill=""none"" transform=""translate( 26  15)"" stroke=""green"" /><circle cx=""50"" cy=""50"" r=""10"" fill=""none"" transform=""translate(  0  30)"" stroke=""black"" /><circle cx=""50"" cy=""50"" r=""10"" fill=""none"" transform=""translate(-26  15)"" stroke=""cyan"" /><circle cx=""50"" cy=""50"" r=""10"" fill=""none"" transform=""translate(-26 -15)"" stroke=""magenta"" /><circle cx=""50"" cy=""50"" r=""10"" fill=""none"" transform=""translate(  0 -30)"" stroke=""blueviolet"" /><circle cx=""50"" cy=""50"" r=""10"" fill=""none"" transform=""translate( 26 -15)"" stroke=""gold"" /><path d=""M 50 57 L 50 43"" stroke=""black"" transform=""translate( 26  15) rotate(0 50 50)""/><path d=""M 50 57 L 50 43"" stroke=""black"" transform=""translate(  0  30) rotate(45 50 50)""/><path d=""M 50 57 L 50 43"" stroke=""black"" transform=""translate(-26  15) rotate(45 50 50)""/><path d=""M 50 57 L 50 43"" stroke=""black"" transform=""translate(-26 -15) rotate(45 50 50)""/><path d=""M 50 57 L 50 43"" stroke=""black"" transform=""translate(  0 -30) rotate(45 50 50)""/><path d=""M 50 57 L 50 43"" stroke=""black"" transform=""translate( 26 -15) rotate(-45 50 50)""/><path d=""M 50 52 L 50 48"" stroke=""black"" stroke-width="".5""/> <path d=""M 52 50 L 48 50"" stroke=""black"" stroke-width="".5""/></svg>","77","","","","","","VDACtraining","green","0","vertical","true","","",""
"","html-keyboard-response","38","257248","0.0-1.0-2.0-2.8","ox9w1sz19a","red","null","<p style=""font-size:300%;"">Correct!</p>","null","","","","","","","","","","","","",""
"","html-keyboard-response","39","259221","0.0-1.0-2.0-0.9","ox9w1sz19a","red","null","<svg viewBox=""0 0 100 100"" > <path d=""M 50 52 L 50 48"" stroke=""black"" stroke-width="".5""/> <path d=""M 52 50 L 48 50"" stroke=""black"" stroke-width="".5""/>","null","","","","","","","","","","","","",""
"","html-keyboard-response","40","260200","0.0-1.0-2.0-1.9","ox9w1sz19a","red","978","<svg viewBox=""0 0 100 100"" ><text font-size=""10%"" text-anchor=""middle""  x=""50"" y=""98"">Press Z for horizontal or M for vertical</text><circle cx=""50"" cy=""50"" r=""10"" fill=""none"" transform=""translate( 26  15)"" stroke=""magenta"" /><circle cx=""50"" cy=""50"" r=""10"" fill=""none"" transform=""translate(  0  30)"" stroke=""cyan"" /><circle cx=""50"" cy=""50"" r=""10"" fill=""none"" transform=""translate(-26  15)"" stroke=""black"" /><circle cx=""50"" cy=""50"" r=""10"" fill=""none"" transform=""translate(-26 -15)"" stroke=""blueviolet"" /><circle cx=""50"" cy=""50"" r=""10"" fill=""none"" transform=""translate(  0 -30)"" stroke=""gold"" /><circle cx=""50"" cy=""50"" r=""10"" fill=""none"" transform=""translate( 26 -15)"" stroke=""green"" /><path d=""M 50 57 L 50 43"" stroke=""black"" transform=""translate( 26  15) rotate(-45 50 50)""/><path d=""M 50 57 L 50 43"" stroke=""black"" transform=""translate(  0  30) rotate(-45 50 50)""/><path d=""M 50 57 L 50 43"" stroke=""black"" transform=""translate(-26  15) rotate(45 50 50)""/><path d=""M 50 57 L 50 43"" stroke=""black"" transform=""translate(-26 -15) rotate(45 50 50)""/><path d=""M 50 57 L 50 43"" stroke=""black"" transform=""translate(  0 -30) rotate(45 50 50)""/><path d=""M 50 57 L 50 43"" stroke=""black"" transform=""translate( 26 -15) rotate(90 50 50)""/><path d=""M 50 52 L 50 48"" stroke=""black"" stroke-width="".5""/> <path d=""M 52 50 L 48 50"" stroke=""black"" stroke-width="".5""/></svg>","90","","","","","","VDACtraining","green","5","horizontal","true","","",""
"","html-keyboard-response","41","262703","0.0-1.0-2.0-2.9","ox9w1sz19a","red","null","<p style=""font-size:300%;"">Correct!</p>","null","","","","","","","","","","","","",""
"","call-function","42","263705","0.0-1.0-3.0","ox9w1sz19a","red","","","","","","","","","","","","","","","",""
"","html-keyboard-response","43","272259","0.0-1.0-4.0","ox9w1sz19a","red","8552.000000000058","<p>You have now finished the training exercise. If you would like to repeat the instructions and training exercise, press R. If you are ready to continue to the task, press C. </p>","67","","","","","","","","","","","","",""
"","html-keyboard-response","44","274261","0.0-2.0-0.0","ox9w1sz19a","red","null","<p>Place your fingers on the <b>Z</b> and <b>M</b> keys. The experiment will begin shortly.</p><p>&nbsp</p>","null","","","","","","","","","","","","",""
"","html-keyboard-response","45","275263","0.0-2.0-1.0","ox9w1sz19a","red","null","<p>Place your fingers on the <b>Z</b> and <b>M</b> keys. The experiment will begin shortly.</p><p>3</p>","null","","","","","","","","","","","","",""
"","html-keyboard-response","46","276265","0.0-2.0-2.0","ox9w1sz19a","red","null","<p>Place your fingers on the <b>Z</b> and <b>M</b> keys. The experiment will begin shortly.</p><p>2</p>","null","","","","","","","","","","","","",""
"","html-keyboard-response","47","277267","0.0-2.0-3.0","ox9w1sz19a","red","null","<p>Place your fingers on the <b>Z</b> and <b>M</b> keys. The experiment will begin shortly.</p><p>1</p>","null","","","","","","","","","","","","",""
"","html-keyboard-response","48","278240","0.0-3.0-1.0-0.0","ox9w1sz19a","red","null","<svg viewBox=""0 0 100 100"" > <path d=""M 50 52 L 50 48"" stroke=""black"" stroke-width="".5""/> <path d=""M 52 50 L 48 50"" stroke=""black"" stroke-width="".5""/>","null","","","","","","","","","","","","",""
"","html-keyboard-response","49","279187","0.0-3.0-1.0-1.0","ox9w1sz19a","red","945.9999999999418","<svg viewBox=""0 0 100 100"" ><circle cx=""50"" cy=""50"" r=""10"" fill=""none"" transform=""translate( 26  15)"" stroke=""magenta"" /><circle cx=""50"" cy=""50"" r=""10"" fill=""none"" transform=""translate(  0  30)"" stroke=""cyan"" /><circle cx=""50"" cy=""50"" r=""10"" fill=""none"" transform=""translate(-26  15)"" stroke=""red"" /><circle cx=""50"" cy=""50"" r=""10"" fill=""none"" transform=""translate(-26 -15)"" stroke=""gold"" /><circle cx=""50"" cy=""50"" r=""10"" fill=""none"" transform=""translate(  0 -30)"" stroke=""black"" /><circle cx=""50"" cy=""50"" r=""10"" fill=""none"" transform=""translate( 26 -15)"" stroke=""blueviolet"" /><path d=""M 50 57 L 50 43"" stroke=""black"" transform=""translate( 26  15) rotate(-45 50 50)""/><path d=""M 50 57 L 50 43"" stroke=""black"" transform=""translate(  0  30) rotate(-45 50 50)""/><path d=""M 50 57 L 50 43"" stroke=""black"" transform=""translate(-26  15) rotate(90 50 50)""/><path d=""M 50 57 L 50 43"" stroke=""black"" transform=""translate(-26 -15) rotate(45 50 50)""/><path d=""M 50 57 L 50 43"" stroke=""black"" transform=""translate(  0 -30) rotate(-45 50 50)""/><path d=""M 50 57 L 50 43"" stroke=""black"" transform=""translate( 26 -15) rotate(45 50 50)""/><path d=""M 50 52 L 50 48"" stroke=""black"" stroke-width="".5""/> <path d=""M 52 50 L 48 50"" stroke=""black"" stroke-width="".5""/></svg>","90","","","","","","VDACtest","red","3rd","horizontal","true","high","",""
"","html-keyboard-response","50","281691","0.0-3.0-1.0-2.0","ox9w1sz19a","red","null","<p style=""font-size:300%;""> + 10 points.</p><p style=""font-size:300%"">Total: 10 points.</p>","null","","","","","","","","","","","","10",""
"","html-keyboard-response","51","283665","0.0-3.0-1.0-0.1","ox9w1sz19a","red","null","<svg viewBox=""0 0 100 100"" > <path d=""M 50 52 L 50 48"" stroke=""black"" stroke-width="".5""/> <path d=""M 52 50 L 48 50"" stroke=""black"" stroke-width="".5""/>","null","","","","","","","","","","","","",""
"","html-keyboard-response","52","284553","0.0-3.0-1.0-1.1","ox9w1sz19a","red","888","<svg viewBox=""0 0 100 100"" ><circle cx=""50"" cy=""50"" r=""10"" fill=""none"" transform=""translate( 26  15)"" stroke=""black"" /><circle cx=""50"" cy=""50"" r=""10"" fill=""none"" transform=""translate(  0  30)"" stroke=""magenta"" /><circle cx=""50"" cy=""50"" r=""10"" fill=""none"" transform=""translate(-26  15)"" stroke=""gold"" /><circle cx=""50"" cy=""50"" r=""10"" fill=""none"" transform=""translate(-26 -15)"" stroke=""green"" /><circle cx=""50"" cy=""50"" r=""10"" fill=""none"" transform=""translate(  0 -30)"" stroke=""cyan"" /><circle cx=""50"" cy=""50"" r=""10"" fill=""none"" transform=""translate( 26 -15)"" stroke=""blueviolet"" /><path d=""M 50 57 L 50 43"" stroke=""black"" transform=""translate( 26  15) rotate(45 50 50)""/><path d=""M 50 57 L 50 43"" stroke=""black"" transform=""translate(  0  30) rotate(-45 50 50)""/><path d=""M 50 57 L 50 43"" stroke=""black"" transform=""translate(-26  15) rotate(-45 50 50)""/><path d=""M 50 57 L 50 43"" stroke=""black"" transform=""translate(-26 -15) rotate(90 50 50)""/><path d=""M 50 57 L 50 43"" stroke=""black"" transform=""translate(  0 -30) rotate(45 50 50)""/><path d=""M 50 57 L 50 43"" stroke=""black"" transform=""translate( 26 -15) rotate(45 50 50)""/><path d=""M 50 52 L 50 48"" stroke=""black"" stroke-width="".5""/> <path d=""M 52 50 L 48 50"" stroke=""black"" stroke-width="".5""/></svg>","90","","","","","","VDACtest","green","4th","horizontal","true","low","",""
"","html-keyboard-response","53","287056","0.0-3.0-1.0-2.1","ox9w1sz19a","red","null","<p style=""font-size:300%;""> + 2 points.</p><p style=""font-size:300%"">Total: 12 points.</p>","null","","","","","","","","","","","","12",""
"","html-keyboard-response","54","289028","0.0-3.0-1.0-0.2","ox9w1sz19a","red","null","<svg viewBox=""0 0 100 100"" > <path d=""M 50 52 L 50 48"" stroke=""black"" stroke-width="".5""/> <path d=""M 52 50 L 48 50"" stroke=""black"" stroke-width="".5""/>","null","","","","","","","","","","","","",""
"","html-keyboard-response","55","289811","0.0-3.0-1.0-1.2","ox9w1sz19a","red","782","<svg viewBox=""0 0 100 100"" ><circle cx=""50"" cy=""50"" r=""10"" fill=""none"" transform=""translate( 26  15)"" stroke=""green"" /><circle cx=""50"" cy=""50"" r=""10"" fill=""none"" transform=""translate(  0  30)"" stroke=""black"" /><circle cx=""50"" cy=""50"" r=""10"" fill=""none"" transform=""translate(-26  15)"" stroke=""gold"" /><circle cx=""50"" cy=""50"" r=""10"" fill=""none"" transform=""translate(-26 -15)"" stroke=""magenta"" /><circle cx=""50"" cy=""50"" r=""10"" fill=""none"" transform=""translate(  0 -30)"" stroke=""cyan"" /><circle cx=""50"" cy=""50"" r=""10"" fill=""none"" transform=""translate( 26 -15)"" stroke=""blueviolet"" /><path d=""M 50 57 L 50 43"" stroke=""black"" transform=""translate( 26  15) rotate(90 50 50)""/><path d=""M 50 57 L 50 43"" stroke=""black"" transform=""translate(  0  30) rotate(45 50 50)""/><path d=""M 50 57 L 50 43"" stroke=""black"" transform=""translate(-26  15) rotate(45 50 50)""/><path d=""M 50 57 L 50 43"" stroke=""black"" transform=""translate(-26 -15) rotate(45 50 50)""/><path d=""M 50 57 L 50 43"" stroke=""black"" transform=""translate(  0 -30) rotate(45 50 50)""/><path d=""M 50 57 L 50 43"" stroke=""black"" transform=""translate( 26 -15) rotate(45 50 50)""/><path d=""M 50 52 L 50 48"" stroke=""black"" stroke-width="".5""/> <path d=""M 52 50 L 48 50"" stroke=""black"" stroke-width="".5""/></svg>","90","","","","","","VDACtest","green","1st","horizontal","true","low","",""
"","html-keyboard-response","56","292314","0.0-3.0-1.0-2.2","ox9w1sz19a","red","null","<p style=""font-size:300%;""> + 10 points.</p><p style=""font-size:300%"">Total: 22 points.</p>","null","","","","","","","","","","","","22",""
"","html-keyboard-response","57","294286","0.0-3.0-1.0-0.3","ox9w1sz19a","red","null","<svg viewBox=""0 0 100 100"" > <path d=""M 50 52 L 50 48"" stroke=""black"" stroke-width="".5""/> <path d=""M 52 50 L 48 50"" stroke=""black"" stroke-width="".5""/>","null","","","","","","","","","","","","",""
"","html-keyboard-response","58","295177","0.0-3.0-1.0-1.3","ox9w1sz19a","red","890","<svg viewBox=""0 0 100 100"" ><circle cx=""50"" cy=""50"" r=""10"" fill=""none"" transform=""translate( 26  15)"" stroke=""blueviolet"" /><circle cx=""50"" cy=""50"" r=""10"" fill=""none"" transform=""translate(  0  30)"" stroke=""gold"" /><circle cx=""50"" cy=""50"" r=""10"" fill=""none"" transform=""translate(-26  15)"" stroke=""cyan"" /><circle cx=""50"" cy=""50"" r=""10"" fill=""none"" transform=""translate(-26 -15)"" stroke=""black"" /><circle cx=""50"" cy=""50"" r=""10"" fill=""none"" transform=""translate(  0 -30)"" stroke=""green"" /><circle cx=""50"" cy=""50"" r=""10"" fill=""none"" transform=""translate( 26 -15)"" stroke=""magenta"" /><path d=""M 50 57 L 50 43"" stroke=""black"" transform=""translate( 26  15) rotate(-45 50 50)""/><path d=""M 50 57 L 50 43"" stroke=""black"" transform=""translate(  0  30) rotate(-45 50 50)""/><path d=""M 50 57 L 50 43"" stroke=""black"" transform=""translate(-26  15) rotate(-45 50 50)""/><path d=""M 50 57 L 50 43"" stroke=""black"" transform=""translate(-26 -15) rotate(-45 50 50)""/><path d=""M 50 57 L 50 43"" stroke=""black"" transform=""translate(  0 -30) rotate(90 50 50)""/><path d=""M 50 57 L 50 43"" stroke=""black"" transform=""translate( 26 -15) rotate(-45 50 50)""/><path d=""M 50 52 L 50 48"" stroke=""black"" stroke-width="".5""/> <path d=""M 52 50 L 48 50"" stroke=""black"" stroke-width="".5""/></svg>","90","","","","","","VDACtest","green","5th","horizontal","true","low","",""
"","html-keyboard-response","59","297680","0.0-3.0-1.0-2.3","ox9w1sz19a","red","null","<p style=""font-size:300%;""> + 2 points.</p><p style=""font-size:300%"">Total: 24 points.</p>","null","","","","","","","","","","","","24",""
"","html-keyboard-response","60","299652","0.0-3.0-1.0-0.4","ox9w1sz19a","red","null","<svg viewBox=""0 0 100 100"" > <path d=""M 50 52 L 50 48"" stroke=""black"" stroke-width="".5""/> <path d=""M 52 50 L 48 50"" stroke=""black"" stroke-width="".5""/>","null","","","","","","","","","","","","",""
"","html-keyboard-response","61","300137","0.0-3.0-1.0-1.4","ox9w1sz19a","red","484","<svg viewBox=""0 0 100 100"" ><circle cx=""50"" cy=""50"" r=""10"" fill=""none"" transform=""translate( 26  15)"" stroke=""blueviolet"" /><circle cx=""50"" cy=""50"" r=""10"" fill=""none"" transform=""translate(  0  30)"" stroke=""gold"" /><circle cx=""50"" cy=""50"" r=""10"" fill=""none"" transform=""translate(-26  15)"" stroke=""magenta"" /><circle cx=""50"" cy=""50"" r=""10"" fill=""none"" transform=""translate(-26 -15)"" stroke=""black"" /><circle cx=""50"" cy=""50"" r=""10"" fill=""none"" transform=""translate(  0 -30)"" stroke=""red"" /><circle cx=""50"" cy=""50"" r=""10"" fill=""none"" transform=""translate( 26 -15)"" stroke=""cyan"" /><path d=""M 50 57 L 50 43"" stroke=""black"" transform=""translate( 26  15) rotate(45 50 50)""/><path d=""M 50 57 L 50 43"" stroke=""black"" transform=""translate(  0  30) rotate(-45 50 50)""/><path d=""M 50 57 L 50 43"" stroke=""black"" transform=""translate(-26  15) rotate(-45 50 50)""/><path d=""M 50 57 L 50 43"" stroke=""black"" transform=""translate(-26 -15) rotate(45 50 50)""/><path d=""M 50 57 L 50 43"" stroke=""black"" transform=""translate(  0 -30) rotate(0 50 50)""/><path d=""M 50 57 L 50 43"" stroke=""black"" transform=""translate( 26 -15) rotate(45 50 50)""/><path d=""M 50 52 L 50 48"" stroke=""black"" stroke-width="".5""/> <path d=""M 52 50 L 48 50"" stroke=""black"" stroke-width="".5""/></svg>","77","","","","","","VDACtest","red","5th","vertical","true","high","",""
"","html-keyboard-response","62","302640","0.0-3.0-1.0-2.4","ox9w1sz19a","red","null","<p style=""font-size:300%;""> + 10 points.</p><p style=""font-size:300%"">Total: 34 points.</p>","null","","","","","","","","","","","","34",""
"","html-keyboard-response","63","304613","0.0-3.0-1.0-0.5","ox9w1sz19a","red","null","<svg viewBox=""0 0 100 100"" > <path d=""M 50 52 L 50 48"" stroke=""black"" stroke-width="".5""/> <path d=""M 52 50 L 48 50"" stroke=""black"" stroke-width="".5""/>","null","","","","","","","","","","","","",""
"","html-keyboard-response","64","305551","0.0-3.0-1.0-1.5","ox9w1sz19a","red","936","<svg viewBox=""0 0 100 100"" ><circle cx=""50"" cy=""50"" r=""10"" fill=""none"" transform=""translate( 26  15)"" stroke=""magenta"" /><circle cx=""50"" cy=""50"" r=""10"" fill=""none"" transform=""translate(  0  30)"" stroke=""green"" /><circle cx=""50"" cy=""50"" r=""10"" fill=""none"" transform=""translate(-26  15)"" stroke=""cyan"" /><circle cx=""50"" cy=""50"" r=""10"" fill=""none"" transform=""translate(-26 -15)"" stroke=""blueviolet"" /><circle cx=""50"" cy=""50"" r=""10"" fill=""none"" transform=""translate(  0 -30)"" stroke=""gold"" /><circle cx=""50"" cy=""50"" r=""10"" fill=""none"" transform=""translate( 26 -15)"" stroke=""black"" /><path d=""M 50 57 L 50 43"" stroke=""black"" transform=""translate( 26  15) rotate(-45 50 50)""/><path d=""M 50 57 L 50 43"" stroke=""black"" transform=""translate(  0  30) rotate(90 50 50)""/><path d=""M 50 57 L 50 43"" stroke=""black"" transform=""translate(-26  15) rotate(45 50 50)""/><path d=""M 50 57 L 50 43"" stroke=""black"" transform=""translate(-26 -15) rotate(-45 50 50)""/><path d=""M 50 57 L 50 43"" stroke=""black"" transform=""translate(  0 -30) rotate(-45 50 50)""/><path d=""M 50 57 L 50 43"" stroke=""black"" transform=""translate( 26 -15) rotate(45 50 50)""/><path d=""M 50 52 L 50 48"" stroke=""black"" stroke-width="".5""/> <path d=""M 52 50 L 48 50"" stroke=""black"" stroke-width="".5""/></svg>","90","","","","","","VDACtest","green","2nd","horizontal","true","low","",""
"","html-keyboard-response","65","308054","0.0-3.0-1.0-2.5","ox9w1sz19a","red","null","<p style=""font-size:300%;""> + 10 points.</p><p style=""font-size:300%"">Total: 44 points.</p>","null","","","","","","","","","","","","44",""
"","html-keyboard-response","66","310028","0.0-3.0-1.0-0.6","ox9w1sz19a","red","null","<svg viewBox=""0 0 100 100"" > <path d=""M 50 52 L 50 48"" stroke=""black"" stroke-width="".5""/> <path d=""M 52 50 L 48 50"" stroke=""black"" stroke-width="".5""/>","null","","","","","","","","","","","","",""
"","html-keyboard-response","67","310646","0.0-3.0-1.0-1.6","ox9w1sz19a","red","618.0000000000582","<svg viewBox=""0 0 100 100"" ><circle cx=""50"" cy=""50"" r=""10"" fill=""none"" transform=""translate( 26  15)"" stroke=""blueviolet"" /><circle cx=""50"" cy=""50"" r=""10"" fill=""none"" transform=""translate(  0  30)"" stroke=""gold"" /><circle cx=""50"" cy=""50"" r=""10"" fill=""none"" transform=""translate(-26  15)"" stroke=""magenta"" /><circle cx=""50"" cy=""50"" r=""10"" fill=""none"" transform=""translate(-26 -15)"" stroke=""black"" /><circle cx=""50"" cy=""50"" r=""10"" fill=""none"" transform=""translate(  0 -30)"" stroke=""cyan"" /><circle cx=""50"" cy=""50"" r=""10"" fill=""none"" transform=""translate( 26 -15)"" stroke=""red"" /><path d=""M 50 57 L 50 43"" stroke=""black"" transform=""translate( 26  15) rotate(45 50 50)""/><path d=""M 50 57 L 50 43"" stroke=""black"" transform=""translate(  0  30) rotate(-45 50 50)""/><path d=""M 50 57 L 50 43"" stroke=""black"" transform=""translate(-26  15) rotate(-45 50 50)""/><path d=""M 50 57 L 50 43"" stroke=""black"" transform=""translate(-26 -15) rotate(45 50 50)""/><path d=""M 50 57 L 50 43"" stroke=""black"" transform=""translate(  0 -30) rotate(45 50 50)""/><path d=""M 50 57 L 50 43"" stroke=""black"" transform=""translate( 26 -15) rotate(0 50 50)""/><path d=""M 50 52 L 50 48"" stroke=""black"" stroke-width="".5""/> <path d=""M 52 50 L 48 50"" stroke=""black"" stroke-width="".5""/></svg>","77","","","","","","VDACtest","red","6th","vertical","true","high","",""
"","html-keyboard-response","68","313149","0.0-3.0-1.0-2.6","ox9w1sz19a","red","null","<p style=""font-size:300%;""> + 10 points.</p><p style=""font-size:300%"">Total: 54 points.</p>","null","","","","","","","","","","","","54",""
"","html-keyboard-response","69","315122","0.0-3.0-1.0-0.7","ox9w1sz19a","red","null","<svg viewBox=""0 0 100 100"" > <path d=""M 50 52 L 50 48"" stroke=""black"" stroke-width="".5""/> <path d=""M 52 50 L 48 50"" stroke=""black"" stroke-width="".5""/>","null","","","","","","","","","","","","",""
"","html-keyboard-response","70","315809","0.0-3.0-1.0-1.7","ox9w1sz19a","red","685","<svg viewBox=""0 0 100 100"" ><circle cx=""50"" cy=""50"" r=""10"" fill=""none"" transform=""translate( 26  15)"" stroke=""cyan"" /><circle cx=""50"" cy=""50"" r=""10"" fill=""none"" transform=""translate(  0  30)"" stroke=""blueviolet"" /><circle cx=""50"" cy=""50"" r=""10"" fill=""none"" transform=""translate(-26  15)"" stroke=""black"" /><circle cx=""50"" cy=""50"" r=""10"" fill=""none"" transform=""translate(-26 -15)"" stroke=""gold"" /><circle cx=""50"" cy=""50"" r=""10"" fill=""none"" transform=""translate(  0 -30)"" stroke=""magenta"" /><circle cx=""50"" cy=""50"" r=""10"" fill=""none"" transform=""translate( 26 -15)"" stroke=""green"" /><path d=""M 50 57 L 50 43"" stroke=""black"" transform=""translate( 26  15) rotate(45 50 50)""/><path d=""M 50 57 L 50 43"" stroke=""black"" transform=""translate(  0  30) rotate(-45 50 50)""/><path d=""M 50 57 L 50 43"" stroke=""black"" transform=""translate(-26  15) rotate(45 50 50)""/><path d=""M 50 57 L 50 43"" stroke=""black"" transform=""translate(-26 -15) rotate(45 50 50)""/><path d=""M 50 57 L 50 43"" stroke=""black"" transform=""translate(  0 -30) rotate(-45 50 50)""/><path d=""M 50 57 L 50 43"" stroke=""black"" transform=""translate( 26 -15) rotate(90 50 50)""/><path d=""M 50 52 L 50 48"" stroke=""black"" stroke-width="".5""/> <path d=""M 52 50 L 48 50"" stroke=""black"" stroke-width="".5""/></svg>","90","","","","","","VDACtest","green","6th","horizontal","true","low","",""
"","html-keyboard-response","71","318312","0.0-3.0-1.0-2.7","ox9w1sz19a","red","null","<p style=""font-size:300%;""> + 2 points.</p><p style=""font-size:300%"">Total: 56 points.</p>","null","","","","","","","","","","","","56",""
"","html-keyboard-response","72","320285","0.0-3.0-1.0-0.8","ox9w1sz19a","red","null","<svg viewBox=""0 0 100 100"" > <path d=""M 50 52 L 50 48"" stroke=""black"" stroke-width="".5""/> <path d=""M 52 50 L 48 50"" stroke=""black"" stroke-width="".5""/>","null","","","","","","","","","","","","",""
"","html-keyboard-response","73","321254","0.0-3.0-1.0-1.8","ox9w1sz19a","red","968","<svg viewBox=""0 0 100 100"" ><circle cx=""50"" cy=""50"" r=""10"" fill=""none"" transform=""translate( 26  15)"" stroke=""cyan"" /><circle cx=""50"" cy=""50"" r=""10"" fill=""none"" transform=""translate(  0  30)"" stroke=""gold"" /><circle cx=""50"" cy=""50"" r=""10"" fill=""none"" transform=""translate(-26  15)"" stroke=""magenta"" /><circle cx=""50"" cy=""50"" r=""10"" fill=""none"" transform=""translate(-26 -15)"" stroke=""black"" /><circle cx=""50"" cy=""50"" r=""10"" fill=""none"" transform=""translate(  0 -30)"" stroke=""red"" /><circle cx=""50"" cy=""50"" r=""10"" fill=""none"" transform=""translate( 26 -15)"" stroke=""blueviolet"" /><path d=""M 50 57 L 50 43"" stroke=""black"" transform=""translate( 26  15) rotate(-45 50 50)""/><path d=""M 50 57 L 50 43"" stroke=""black"" transform=""translate(  0  30) rotate(45 50 50)""/><path d=""M 50 57 L 50 43"" stroke=""black"" transform=""translate(-26  15) rotate(-45 50 50)""/><path d=""M 50 57 L 50 43"" stroke=""black"" transform=""translate(-26 -15) rotate(45 50 50)""/><path d=""M 50 57 L 50 43"" stroke=""black"" transform=""translate(  0 -30) rotate(90 50 50)""/><path d=""M 50 57 L 50 43"" stroke=""black"" transform=""translate( 26 -15) rotate(45 50 50)""/><path d=""M 50 52 L 50 48"" stroke=""black"" stroke-width="".5""/> <path d=""M 52 50 L 48 50"" stroke=""black"" stroke-width="".5""/></svg>","90","","","","","","VDACtest","red","5th","horizontal","true","high","",""
"","html-keyboard-response","74","323758","0.0-3.0-1.0-2.8","ox9w1sz19a","red","null","<p style=""font-size:300%;""> + 10 points.</p><p style=""font-size:300%"">Total: 66 points.</p>","null","","","","","","","","","","","","66",""
"","html-keyboard-response","75","325731","0.0-3.0-1.0-0.9","ox9w1sz19a","red","null","<svg viewBox=""0 0 100 100"" > <path d=""M 50 52 L 50 48"" stroke=""black"" stroke-width="".5""/> <path d=""M 52 50 L 48 50"" stroke=""black"" stroke-width="".5""/>","null","","","","","","","","","","","","",""
"","html-keyboard-response","76","326734","0.0-3.0-1.0-1.9","ox9w1sz19a","red","null","<svg viewBox=""0 0 100 100"" ><circle cx=""50"" cy=""50"" r=""10"" fill=""none"" transform=""translate( 26  15)"" stroke=""blueviolet"" /><circle cx=""50"" cy=""50"" r=""10"" fill=""none"" transform=""translate(  0  30)"" stroke=""gold"" /><circle cx=""50"" cy=""50"" r=""10"" fill=""none"" transform=""translate(-26  15)"" stroke=""green"" /><circle cx=""50"" cy=""50"" r=""10"" fill=""none"" transform=""translate(-26 -15)"" stroke=""black"" /><circle cx=""50"" cy=""50"" r=""10"" fill=""none"" transform=""translate(  0 -30)"" stroke=""cyan"" /><circle cx=""50"" cy=""50"" r=""10"" fill=""none"" transform=""translate( 26 -15)"" stroke=""magenta"" /><path d=""M 50 57 L 50 43"" stroke=""black"" transform=""translate( 26  15) rotate(45 50 50)""/><path d=""M 50 57 L 50 43"" stroke=""black"" transform=""translate(  0  30) rotate(45 50 50)""/><path d=""M 50 57 L 50 43"" stroke=""black"" transform=""translate(-26  15) rotate(0 50 50)""/><path d=""M 50 57 L 50 43"" stroke=""black"" transform=""translate(-26 -15) rotate(-45 50 50)""/><path d=""M 50 57 L 50 43"" stroke=""black"" transform=""translate(  0 -30) rotate(45 50 50)""/><path d=""M 50 57 L 50 43"" stroke=""black"" transform=""translate( 26 -15) rotate(-45 50 50)""/><path d=""M 50 52 L 50 48"" stroke=""black"" stroke-width="".5""/> <path d=""M 52 50 L 48 50"" stroke=""black"" stroke-width="".5""/></svg>","null","","","","","","VDACtest","green","3rd","vertical","null","low","",""
"","html-keyboard-response","77","329237","0.0-3.0-1.0-2.9","ox9w1sz19a","red","null","<p style=""font-size:300%;"">Miss.</p><p style=""font-size:300%"">Total: 66 points.</p>","null","","","","","","","","","","","","66",""
"","html-keyboard-response","78","331210","0.0-3.0-1.0-0.10","ox9w1sz19a","red","null","<svg viewBox=""0 0 100 100"" > <path d=""M 50 52 L 50 48"" stroke=""black"" stroke-width="".5""/> <path d=""M 52 50 L 48 50"" stroke=""black"" stroke-width="".5""/>","null","","","","","","","","","","","","",""
"","html-keyboard-response","79","332197","0.0-3.0-1.0-1.10","ox9w1sz19a","red","986","<svg viewBox=""0 0 100 100"" ><circle cx=""50"" cy=""50"" r=""10"" fill=""none"" transform=""translate( 26  15)"" stroke=""magenta"" /><circle cx=""50"" cy=""50"" r=""10"" fill=""none"" transform=""translate(  0  30)"" stroke=""gold"" /><circle cx=""50"" cy=""50"" r=""10"" fill=""none"" transform=""translate(-26  15)"" stroke=""black"" /><circle cx=""50"" cy=""50"" r=""10"" fill=""none"" transform=""translate(-26 -15)"" stroke=""green"" /><circle cx=""50"" cy=""50"" r=""10"" fill=""none"" transform=""translate(  0 -30)"" stroke=""cyan"" /><circle cx=""50"" cy=""50"" r=""10"" fill=""none"" transform=""translate( 26 -15)"" stroke=""blueviolet"" /><path d=""M 50 57 L 50 43"" stroke=""black"" transform=""translate( 26  15) rotate(-45 50 50)""/><path d=""M 50 57 L 50 43"" stroke=""black"" transform=""translate(  0  30) rotate(-45 50 50)""/><path d=""M 50 57 L 50 43"" stroke=""black"" transform=""translate(-26  15) rotate(45 50 50)""/><path d=""M 50 57 L 50 43"" stroke=""black"" transform=""translate(-26 -15) rotate(0 50 50)""/><path d=""M 50 57 L 50 43"" stroke=""black"" transform=""translate(  0 -30) rotate(45 50 50)""/><path d=""M 50 57 L 50 43"" stroke=""black"" transform=""translate( 26 -15) rotate(-45 50 50)""/><path d=""M 50 52 L 50 48"" stroke=""black"" stroke-width="".5""/> <path d=""M 52 50 L 48 50"" stroke=""black"" stroke-width="".5""/></svg>","77","","","","","","VDACtest","green","4th","vertical","true","low","",""
"","html-keyboard-response","80","334701","0.0-3.0-1.0-2.10","ox9w1sz19a","red","null","<p style=""font-size:300%;""> + 2 points.</p><p style=""font-size:300%"">Total: 68 points.</p>","null","","","","","","","","","","","","68",""
"","html-keyboard-response","81","336674","0.0-3.0-1.0-0.11","ox9w1sz19a","red","null","<svg viewBox=""0 0 100 100"" > <path d=""M 50 52 L 50 48"" stroke=""black"" stroke-width="".5""/> <path d=""M 52 50 L 48 50"" stroke=""black"" stroke-width="".5""/>","null","","","","","","","","","","","","",""
"","html-keyboard-response","82","337536","0.0-3.0-1.0-1.11","ox9w1sz19a","red","861","<svg viewBox=""0 0 100 100"" ><circle cx=""50"" cy=""50"" r=""10"" fill=""none"" transform=""translate( 26  15)"" stroke=""black"" /><circle cx=""50"" cy=""50"" r=""10"" fill=""none"" transform=""translate(  0  30)"" stroke=""gold"" /><circle cx=""50"" cy=""50"" r=""10"" fill=""none"" transform=""translate(-26  15)"" stroke=""magenta"" /><circle cx=""50"" cy=""50"" r=""10"" fill=""none"" transform=""translate(-26 -15)"" stroke=""blueviolet"" /><circle cx=""50"" cy=""50"" r=""10"" fill=""none"" transform=""translate(  0 -30)"" stroke=""green"" /><circle cx=""50"" cy=""50"" r=""10"" fill=""none"" transform=""translate( 26 -15)"" stroke=""cyan"" /><path d=""M 50 57 L 50 43"" stroke=""black"" transform=""translate( 26  15) rotate(-45 50 50)""/><path d=""M 50 57 L 50 43"" stroke=""black"" transform=""translate(  0  30) rotate(-45 50 50)""/><path d=""M 50 57 L 50 43"" stroke=""black"" transform=""translate(-26  15) rotate(45 50 50)""/><path d=""M 50 57 L 50 43"" stroke=""black"" transform=""translate(-26 -15) rotate(45 50 50)""/><path d=""M 50 57 L 50 43"" stroke=""black"" transform=""translate(  0 -30) rotate(0 50 50)""/><path d=""M 50 57 L 50 43"" stroke=""black"" transform=""translate( 26 -15) rotate(-45 50 50)""/><path d=""M 50 52 L 50 48"" stroke=""black"" stroke-width="".5""/> <path d=""M 52 50 L 48 50"" stroke=""black"" stroke-width="".5""/></svg>","77","","","","","","VDACtest","green","5th","vertical","true","low","",""
"","html-keyboard-response","83","340040","0.0-3.0-1.0-2.11","ox9w1sz19a","red","null","<p style=""font-size:300%;""> + 2 points.</p><p style=""font-size:300%"">Total: 70 points.</p>","null","","","","","","","","","","","","70",""
"","html-keyboard-response","84","342013","0.0-3.0-1.0-0.12","ox9w1sz19a","red","null","<svg viewBox=""0 0 100 100"" > <path d=""M 50 52 L 50 48"" stroke=""black"" stroke-width="".5""/> <path d=""M 52 50 L 48 50"" stroke=""black"" stroke-width="".5""/>","null","","","","","","","","","","","","",""
"","html-keyboard-response","85","343015","0.0-3.0-1.0-1.12","ox9w1sz19a","red","null","<svg viewBox=""0 0 100 100"" ><circle cx=""50"" cy=""50"" r=""10"" fill=""none"" transform=""translate( 26  15)"" stroke=""black"" /><circle cx=""50"" cy=""50"" r=""10"" fill=""none"" transform=""translate(  0  30)"" stroke=""blueviolet"" /><circle cx=""50"" cy=""50"" r=""10"" fill=""none"" transform=""translate(-26  15)"" stroke=""magenta"" /><circle cx=""50"" cy=""50"" r=""10"" fill=""none"" transform=""translate(-26 -15)"" stroke=""red"" /><circle cx=""50"" cy=""50"" r=""10"" fill=""none"" transform=""translate(  0 -30)"" stroke=""cyan"" /><circle cx=""50"" cy=""50"" r=""10"" fill=""none"" transform=""translate( 26 -15)"" stroke=""gold"" /><path d=""M 50 57 L 50 43"" stroke=""black"" transform=""translate( 26  15) rotate(45 50 50)""/><path d=""M 50 57 L 50 43"" stroke=""black"" transform=""translate(  0  30) rotate(-45 50 50)""/><path d=""M 50 57 L 50 43"" stroke=""black"" transform=""translate(-26  15) rotate(-45 50 50)""/><path d=""M 50 57 L 50 43"" stroke=""black"" transform=""translate(-26 -15) rotate(90 50 50)""/><path d=""M 50 57 L 50 43"" stroke=""black"" transform=""translate(  0 -30) rotate(45 50 50)""/><path d=""M 50 57 L 50 43"" stroke=""black"" transform=""translate( 26 -15) rotate(-45 50 50)""/><path d=""M 50 52 L 50 48"" stroke=""black"" stroke-width="".5""/> <path d=""M 52 50 L 48 50"" stroke=""black"" stroke-width="".5""/></svg>","null","","","","","","VDACtest","red","4th","horizontal","null","high","",""
"","html-keyboard-response","86","345519","0.0-3.0-1.0-2.12","ox9w1sz19a","red","null","<p style=""font-size:300%;"">Miss.</p><p style=""font-size:300%"">Total: 70 points.</p>","null","","","","","","","","","","","","70",""
"","html-keyboard-response","87","347491","0.0-3.0-1.0-0.13","ox9w1sz19a","red","null","<svg viewBox=""0 0 100 100"" > <path d=""M 50 52 L 50 48"" stroke=""black"" stroke-width="".5""/> <path d=""M 52 50 L 48 50"" stroke=""black"" stroke-width="".5""/>","null","","","","","","","","","","","","",""
"","html-keyboard-response","88","348311","0.0-3.0-1.0-1.13","ox9w1sz19a","red","816.9999999999418","<svg viewBox=""0 0 100 100"" ><circle cx=""50"" cy=""50"" r=""10"" fill=""none"" transform=""translate( 26  15)"" stroke=""cyan"" /><circle cx=""50"" cy=""50"" r=""10"" fill=""none"" transform=""translate(  0  30)"" stroke=""magenta"" /><circle cx=""50"" cy=""50"" r=""10"" fill=""none"" transform=""translate(-26  15)"" stroke=""black"" /><circle cx=""50"" cy=""50"" r=""10"" fill=""none"" transform=""translate(-26 -15)"" stroke=""red"" /><circle cx=""50"" cy=""50"" r=""10"" fill=""none"" transform=""translate(  0 -30)"" stroke=""blueviolet"" /><circle cx=""50"" cy=""50"" r=""10"" fill=""none"" transform=""translate( 26 -15)"" stroke=""gold"" /><path d=""M 50 57 L 50 43"" stroke=""black"" transform=""translate( 26  15) rotate(45 50 50)""/><path d=""M 50 57 L 50 43"" stroke=""black"" transform=""translate(  0  30) rotate(-45 50 50)""/><path d=""M 50 57 L 50 43"" stroke=""black"" transform=""translate(-26  15) rotate(45 50 50)""/><path d=""M 50 57 L 50 43"" stroke=""black"" transform=""translate(-26 -15) rotate(0 50 50)""/><path d=""M 50 57 L 50 43"" stroke=""black"" transform=""translate(  0 -30) rotate(-45 50 50)""/><path d=""M 50 57 L 50 43"" stroke=""black"" transform=""translate( 26 -15) rotate(-45 50 50)""/><path d=""M 50 52 L 50 48"" stroke=""black"" stroke-width="".5""/> <path d=""M 52 50 L 48 50"" stroke=""black"" stroke-width="".5""/></svg>","77","","","","","","VDACtest","red","4th","vertical","true","high","",""
"","html-keyboard-response","89","350815","0.0-3.0-1.0-2.13","ox9w1sz19a","red","null","<p style=""font-size:300%;""> + 2 points.</p><p style=""font-size:300%"">Total: 72 points.</p>","null","","","","","","","","","","","","72",""
"","html-keyboard-response","90","352786","0.0-3.0-1.0-0.14","ox9w1sz19a","red","null","<svg viewBox=""0 0 100 100"" > <path d=""M 50 52 L 50 48"" stroke=""black"" stroke-width="".5""/> <path d=""M 52 50 L 48 50"" stroke=""black"" stroke-width="".5""/>","null","","","","","","","","","","","","",""
"","html-keyboard-response","91","353553","0.0-3.0-1.0-1.14","ox9w1sz19a","red","766","<svg viewBox=""0 0 100 100"" ><circle cx=""50"" cy=""50"" r=""10"" fill=""none"" transform=""translate( 26  15)"" stroke=""gold"" /><circle cx=""50"" cy=""50"" r=""10"" fill=""none"" transform=""translate(  0  30)"" stroke=""cyan"" /><circle cx=""50"" cy=""50"" r=""10"" fill=""none"" transform=""translate(-26  15)"" stroke=""black"" /><circle cx=""50"" cy=""50"" r=""10"" fill=""none"" transform=""translate(-26 -15)"" stroke=""blueviolet"" /><circle cx=""50"" cy=""50"" r=""10"" fill=""none"" transform=""translate(  0 -30)"" stroke=""green"" /><circle cx=""50"" cy=""50"" r=""10"" fill=""none"" transform=""translate( 26 -15)"" stroke=""magenta"" /><path d=""M 50 57 L 50 43"" stroke=""black"" transform=""translate( 26  15) rotate(45 50 50)""/><path d=""M 50 57 L 50 43"" stroke=""black"" transform=""translate(  0  30) rotate(-45 50 50)""/><path d=""M 50 57 L 50 43"" stroke=""black"" transform=""translate(-26  15) rotate(-45 50 50)""/><path d=""M 50 57 L 50 43"" stroke=""black"" transform=""translate(-26 -15) rotate(45 50 50)""/><path d=""M 50 57 L 50 43"" stroke=""black"" transform=""translate(  0 -30) rotate(0 50 50)""/><path d=""M 50 57 L 50 43"" stroke=""black"" transform=""translate( 26 -15) rotate(-45 50 50)""/><path d=""M 50 52 L 50 48"" stroke=""black"" stroke-width="".5""/> <path d=""M 52 50 L 48 50"" stroke=""black"" stroke-width="".5""/></svg>","90","","","","","","VDACtest","green","5th","vertical","false","low","",""
"","html-keyboard-response","92","356055","0.0-3.0-1.0-2.14","ox9w1sz19a","red","null","<p style=""font-size:300%;"">Miss.</p><p style=""font-size:300%"">Total: 72 points.</p>","null","","","","","","","","","","","","72",""
"","html-keyboard-response","93","358029","0.0-3.0-1.0-0.15","ox9w1sz19a","red","null","<svg viewBox=""0 0 100 100"" > <path d=""M 50 52 L 50 48"" stroke=""black"" stroke-width="".5""/> <path d=""M 52 50 L 48 50"" stroke=""black"" stroke-width="".5""/>","null","","","","","","","","","","","","",""
"","html-keyboard-response","94","359030","0.0-3.0-1.0-1.15","ox9w1sz19a","red","null","<svg viewBox=""0 0 100 100"" ><circle cx=""50"" cy=""50"" r=""10"" fill=""none"" transform=""translate( 26  15)"" stroke=""cyan"" /><circle cx=""50"" cy=""50"" r=""10"" fill=""none"" transform=""translate(  0  30)"" stroke=""blueviolet"" /><circle cx=""50"" cy=""50"" r=""10"" fill=""none"" transform=""translate(-26  15)"" stroke=""gold"" /><circle cx=""50"" cy=""50"" r=""10"" fill=""none"" transform=""translate(-26 -15)"" stroke=""magenta"" /><circle cx=""50"" cy=""50"" r=""10"" fill=""none"" transform=""translate(  0 -30)"" stroke=""black"" /><circle cx=""50"" cy=""50"" r=""10"" fill=""none"" transform=""translate( 26 -15)"" stroke=""green"" /><path d=""M 50 57 L 50 43"" stroke=""black"" transform=""translate( 26  15) rotate(-45 50 50)""/><path d=""M 50 57 L 50 43"" stroke=""black"" transform=""translate(  0  30) rotate(-45 50 50)""/><path d=""M 50 57 L 50 43"" stroke=""black"" transform=""translate(-26  15) rotate(-45 50 50)""/><path d=""M 50 57 L 50 43"" stroke=""black"" transform=""translate(-26 -15) rotate(45 50 50)""/><path d=""M 50 57 L 50 43"" stroke=""black"" transform=""translate(  0 -30) rotate(-45 50 50)""/><path d=""M 50 57 L 50 43"" stroke=""black"" transform=""translate( 26 -15) rotate(0 50 50)""/><path d=""M 50 52 L 50 48"" stroke=""black"" stroke-width="".5""/> <path d=""M 52 50 L 48 50"" stroke=""black"" stroke-width="".5""/></svg>","null","","","","","","VDACtest","green","6th","vertical","null","low","",""
"","html-keyboard-response","95","361533","0.0-3.0-1.0-2.15","ox9w1sz19a","red","null","<p style=""font-size:300%;"">Miss.</p><p style=""font-size:300%"">Total: 72 points.</p>","null","","","","","","","","","","","","72",""
"","html-keyboard-response","96","363505","0.0-3.0-1.0-0.16","ox9w1sz19a","red","null","<svg viewBox=""0 0 100 100"" > <path d=""M 50 52 L 50 48"" stroke=""black"" stroke-width="".5""/> <path d=""M 52 50 L 48 50"" stroke=""black"" stroke-width="".5""/>","null","","","","","","","","","","","","",""
"","html-keyboard-response","97","364182","0.0-3.0-1.0-1.16","ox9w1sz19a","red","675","<svg viewBox=""0 0 100 100"" ><circle cx=""50"" cy=""50"" r=""10"" fill=""none"" transform=""translate( 26  15)"" stroke=""gold"" /><circle cx=""50"" cy=""50"" r=""10"" fill=""none"" transform=""translate(  0  30)"" stroke=""blueviolet"" /><circle cx=""50"" cy=""50"" r=""10"" fill=""none"" transform=""translate(-26  15)"" stroke=""black"" /><circle cx=""50"" cy=""50"" r=""10"" fill=""none"" transform=""translate(-26 -15)"" stroke=""green"" /><circle cx=""50"" cy=""50"" r=""10"" fill=""none"" transform=""translate(  0 -30)"" stroke=""cyan"" /><circle cx=""50"" cy=""50"" r=""10"" fill=""none"" transform=""translate( 26 -15)"" stroke=""magenta"" /><path d=""M 50 57 L 50 43"" stroke=""black"" transform=""translate( 26  15) rotate(-45 50 50)""/><path d=""M 50 57 L 50 43"" stroke=""black"" transform=""translate(  0  30) rotate(-45 50 50)""/><path d=""M 50 57 L 50 43"" stroke=""black"" transform=""translate(-26  15) rotate(-45 50 50)""/><path d=""M 50 57 L 50 43"" stroke=""black"" transform=""translate(-26 -15) rotate(0 50 50)""/><path d=""M 50 57 L 50 43"" stroke=""black"" transform=""translate(  0 -30) rotate(-45 50 50)""/><path d=""M 50 57 L 50 43"" stroke=""black"" transform=""translate( 26 -15) rotate(45 50 50)""/><path d=""M 50 52 L 50 48"" stroke=""black"" stroke-width="".5""/> <path d=""M 52 50 L 48 50"" stroke=""black"" stroke-width="".5""/></svg>","77","","","","","","VDACtest","green","4th","vertical","true","low","",""
"","html-keyboard-response","98","366685","0.0-3.0-1.0-2.16","ox9w1sz19a","red","null","<p style=""font-size:300%;""> + 10 points.</p><p style=""font-size:300%"">Total: 82 points.</p>","null","","","","","","","","","","","","82",""
"","html-keyboard-response","99","368659","0.0-3.0-1.0-0.17","ox9w1sz19a","red","null","<svg viewBox=""0 0 100 100"" > <path d=""M 50 52 L 50 48"" stroke=""black"" stroke-width="".5""/> <path d=""M 52 50 L 48 50"" stroke=""black"" stroke-width="".5""/>","null","","","","","","","","","","","","",""
"","html-keyboard-response","100","369617","0.0-3.0-1.0-1.17","ox9w1sz19a","red","955.9999999999418","<svg viewBox=""0 0 100 100"" ><circle cx=""50"" cy=""50"" r=""10"" fill=""none"" transform=""translate( 26  15)"" stroke=""gold"" /><circle cx=""50"" cy=""50"" r=""10"" fill=""none"" transform=""translate(  0  30)"" stroke=""black"" /><circle cx=""50"" cy=""50"" r=""10"" fill=""none"" transform=""translate(-26  15)"" stroke=""magenta"" /><circle cx=""50"" cy=""50"" r=""10"" fill=""none"" transform=""translate(-26 -15)"" stroke=""red"" /><circle cx=""50"" cy=""50"" r=""10"" fill=""none"" transform=""translate(  0 -30)"" stroke=""blueviolet"" /><circle cx=""50"" cy=""50"" r=""10"" fill=""none"" transform=""translate( 26 -15)"" stroke=""cyan"" /><path d=""M 50 57 L 50 43"" stroke=""black"" transform=""translate( 26  15) rotate(-45 50 50)""/><path d=""M 50 57 L 50 43"" stroke=""black"" transform=""translate(  0  30) rotate(-45 50 50)""/><path d=""M 50 57 L 50 43"" stroke=""black"" transform=""translate(-26  15) rotate(45 50 50)""/><path d=""M 50 57 L 50 43"" stroke=""black"" transform=""translate(-26 -15) rotate(0 50 50)""/><path d=""M 50 57 L 50 43"" stroke=""black"" transform=""translate(  0 -30) rotate(45 50 50)""/><path d=""M 50 57 L 50 43"" stroke=""black"" transform=""translate( 26 -15) rotate(-45 50 50)""/><path d=""M 50 52 L 50 48"" stroke=""black"" stroke-width="".5""/> <path d=""M 52 50 L 48 50"" stroke=""black"" stroke-width="".5""/></svg>","77","","","","","","VDACtest","red","4th","vertical","true","high","",""
"","html-keyboard-response","101","372119","0.0-3.0-1.0-2.17","ox9w1sz19a","red","null","<p style=""font-size:300%;""> + 10 points.</p><p style=""font-size:300%"">Total: 92 points.</p>","null","","","","","","","","","","","","92",""
"","html-keyboard-response","102","374093","0.0-3.0-1.0-0.18","ox9w1sz19a","red","null","<svg viewBox=""0 0 100 100"" > <path d=""M 50 52 L 50 48"" stroke=""black"" stroke-width="".5""/> <path d=""M 52 50 L 48 50"" stroke=""black"" stroke-width="".5""/>","null","","","","","","","","","","","","",""
"","html-keyboard-response","103","375096","0.0-3.0-1.0-1.18","ox9w1sz19a","red","null","<svg viewBox=""0 0 100 100"" ><circle cx=""50"" cy=""50"" r=""10"" fill=""none"" transform=""translate( 26  15)"" stroke=""red"" /><circle cx=""50"" cy=""50"" r=""10"" fill=""none"" transform=""translate(  0  30)"" stroke=""black"" /><circle cx=""50"" cy=""50"" r=""10"" fill=""none"" transform=""translate(-26  15)"" stroke=""blueviolet"" /><circle cx=""50"" cy=""50"" r=""10"" fill=""none"" transform=""translate(-26 -15)"" stroke=""cyan"" /><circle cx=""50"" cy=""50"" r=""10"" fill=""none"" transform=""translate(  0 -30)"" stroke=""gold"" /><circle cx=""50"" cy=""50"" r=""10"" fill=""none"" transform=""translate( 26 -15)"" stroke=""magenta"" /><path d=""M 50 57 L 50 43"" stroke=""black"" transform=""translate( 26  15) rotate(90 50 50)""/><path d=""M 50 57 L 50 43"" stroke=""black"" transform=""translate(  0  30) rotate(45 50 50)""/><path d=""M 50 57 L 50 43"" stroke=""black"" transform=""translate(-26  15) rotate(45 50 50)""/><path d=""M 50 57 L 50 43"" stroke=""black"" transform=""translate(-26 -15) rotate(45 50 50)""/><path d=""M 50 57 L 50 43"" stroke=""black"" transform=""translate(  0 -30) rotate(-45 50 50)""/><path d=""M 50 57 L 50 43"" stroke=""black"" transform=""translate( 26 -15) rotate(-45 50 50)""/><path d=""M 50 52 L 50 48"" stroke=""black"" stroke-width="".5""/> <path d=""M 52 50 L 48 50"" stroke=""black"" stroke-width="".5""/></svg>","null","","","","","","VDACtest","red","1st","horizontal","null","high","",""
"","html-keyboard-response","104","377599","0.0-3.0-1.0-2.18","ox9w1sz19a","red","null","<p style=""font-size:300%;"">Miss.</p><p style=""font-size:300%"">Total: 92 points.</p>","null","","","","","","","","","","","","92",""
"","html-keyboard-response","105","379572","0.0-3.0-1.0-0.19","ox9w1sz19a","red","null","<svg viewBox=""0 0 100 100"" > <path d=""M 50 52 L 50 48"" stroke=""black"" stroke-width="".5""/> <path d=""M 52 50 L 48 50"" stroke=""black"" stroke-width="".5""/>","null","","","","","","","","","","","","",""
"","html-keyboard-response","106","380403","0.0-3.0-1.0-1.19","ox9w1sz19a","red","831","<svg viewBox=""0 0 100 100"" ><circle cx=""50"" cy=""50"" r=""10"" fill=""none"" transform=""translate( 26  15)"" stroke=""blueviolet"" /><circle cx=""50"" cy=""50"" r=""10"" fill=""none"" transform=""translate(  0  30)"" stroke=""green"" /><circle cx=""50"" cy=""50"" r=""10"" fill=""none"" transform=""translate(-26  15)"" stroke=""cyan"" /><circle cx=""50"" cy=""50"" r=""10"" fill=""none"" transform=""translate(-26 -15)"" stroke=""gold"" /><circle cx=""50"" cy=""50"" r=""10"" fill=""none"" transform=""translate(  0 -30)"" stroke=""magenta"" /><circle cx=""50"" cy=""50"" r=""10"" fill=""none"" transform=""translate( 26 -15)"" stroke=""black"" /><path d=""M 50 57 L 50 43"" stroke=""black"" transform=""translate( 26  15) rotate(45 50 50)""/><path d=""M 50 57 L 50 43"" stroke=""black"" transform=""translate(  0  30) rotate(0 50 50)""/><path d=""M 50 57 L 50 43"" stroke=""black"" transform=""translate(-26  15) rotate(-45 50 50)""/><path d=""M 50 57 L 50 43"" stroke=""black"" transform=""translate(-26 -15) rotate(-45 50 50)""/><path d=""M 50 57 L 50 43"" stroke=""black"" transform=""translate(  0 -30) rotate(-45 50 50)""/><path d=""M 50 57 L 50 43"" stroke=""black"" transform=""translate( 26 -15) rotate(-45 50 50)""/><path d=""M 50 52 L 50 48"" stroke=""black"" stroke-width="".5""/> <path d=""M 52 50 L 48 50"" stroke=""black"" stroke-width="".5""/></svg>","77","","","","","","VDACtest","green","2nd","vertical","true","low","",""
"","html-keyboard-response","107","382907","0.0-3.0-1.0-2.19","ox9w1sz19a","red","null","<p style=""font-size:300%;""> + 2 points.</p><p style=""font-size:300%"">Total: 94 points.</p>","null","","","","","","","","","","","","94",""
"","html-keyboard-response","108","384879","0.0-3.0-1.0-0.20","ox9w1sz19a","red","null","<svg viewBox=""0 0 100 100"" > <path d=""M 50 52 L 50 48"" stroke=""black"" stroke-width="".5""/> <path d=""M 52 50 L 48 50"" stroke=""black"" stroke-width="".5""/>","null","","","","","","","","","","","","",""
"","html-keyboard-response","109","385698","0.0-3.0-1.0-1.20","ox9w1sz19a","red","817","<svg viewBox=""0 0 100 100"" ><circle cx=""50"" cy=""50"" r=""10"" fill=""none"" transform=""translate( 26  15)"" stroke=""gold"" /><circle cx=""50"" cy=""50"" r=""10"" fill=""none"" transform=""translate(  0  30)"" stroke=""black"" /><circle cx=""50"" cy=""50"" r=""10"" fill=""none"" transform=""translate(-26  15)"" stroke=""magenta"" /><circle cx=""50"" cy=""50"" r=""10"" fill=""none"" transform=""translate(-26 -15)"" stroke=""cyan"" /><circle cx=""50"" cy=""50"" r=""10"" fill=""none"" transform=""translate(  0 -30)"" stroke=""red"" /><circle cx=""50"" cy=""50"" r=""10"" fill=""none"" transform=""translate( 26 -15)"" stroke=""blueviolet"" /><path d=""M 50 57 L 50 43"" stroke=""black"" transform=""translate( 26  15) rotate(45 50 50)""/><path d=""M 50 57 L 50 43"" stroke=""black"" transform=""translate(  0  30) rotate(-45 50 50)""/><path d=""M 50 57 L 50 43"" stroke=""black"" transform=""translate(-26  15) rotate(-45 50 50)""/><path d=""M 50 57 L 50 43"" stroke=""black"" transform=""translate(-26 -15) rotate(-45 50 50)""/><path d=""M 50 57 L 50 43"" stroke=""black"" transform=""translate(  0 -30) rotate(0 50 50)""/><path d=""M 50 57 L 50 43"" stroke=""black"" transform=""translate( 26 -15) rotate(-45 50 50)""/><path d=""M 50 52 L 50 48"" stroke=""black"" stroke-width="".5""/> <path d=""M 52 50 L 48 50"" stroke=""black"" stroke-width="".5""/></svg>","77","","","","","","VDACtest","red","5th","vertical","true","high","",""
"","html-keyboard-response","110","388201","0.0-3.0-1.0-2.20","ox9w1sz19a","red","null","<p style=""font-size:300%;""> + 10 points.</p><p style=""font-size:300%"">Total: 104 points.</p>","null","","","","","","","","","","","","104",""
"","html-keyboard-response","111","390174","0.0-3.0-1.0-0.21","ox9w1sz19a","red","null","<svg viewBox=""0 0 100 100"" > <path d=""M 50 52 L 50 48"" stroke=""black"" stroke-width="".5""/> <path d=""M 52 50 L 48 50"" stroke=""black"" stroke-width="".5""/>","null","","","","","","","","","","","","",""
"","html-keyboard-response","112","391157","0.0-3.0-1.0-1.21","ox9w1sz19a","red","981","<svg viewBox=""0 0 100 100"" ><circle cx=""50"" cy=""50"" r=""10"" fill=""none"" transform=""translate( 26  15)"" stroke=""magenta"" /><circle cx=""50"" cy=""50"" r=""10"" fill=""none"" transform=""translate(  0  30)"" stroke=""gold"" /><circle cx=""50"" cy=""50"" r=""10"" fill=""none"" transform=""translate(-26  15)"" stroke=""green"" /><circle cx=""50"" cy=""50"" r=""10"" fill=""none"" transform=""translate(-26 -15)"" stroke=""blueviolet"" /><circle cx=""50"" cy=""50"" r=""10"" fill=""none"" transform=""translate(  0 -30)"" stroke=""black"" /><circle cx=""50"" cy=""50"" r=""10"" fill=""none"" transform=""translate( 26 -15)"" stroke=""cyan"" /><path d=""M 50 57 L 50 43"" stroke=""black"" transform=""translate( 26  15) rotate(45 50 50)""/><path d=""M 50 57 L 50 43"" stroke=""black"" transform=""translate(  0  30) rotate(-45 50 50)""/><path d=""M 50 57 L 50 43"" stroke=""black"" transform=""translate(-26  15) rotate(90 50 50)""/><path d=""M 50 57 L 50 43"" stroke=""black"" transform=""translate(-26 -15) rotate(-45 50 50)""/><path d=""M 50 57 L 50 43"" stroke=""black"" transform=""translate(  0 -30) rotate(-45 50 50)""/><path d=""M 50 57 L 50 43"" stroke=""black"" transform=""translate( 26 -15) rotate(45 50 50)""/><path d=""M 50 52 L 50 48"" stroke=""black"" stroke-width="".5""/> <path d=""M 52 50 L 48 50"" stroke=""black"" stroke-width="".5""/></svg>","90","","","","","","VDACtest","green","3rd","horizontal","true","low","",""
"","html-keyboard-response","113","393660","0.0-3.0-1.0-2.21","ox9w1sz19a","red","null","<p style=""font-size:300%;""> + 10 points.</p><p style=""font-size:300%"">Total: 114 points.</p>","null","","","","","","","","","","","","114",""
"","html-keyboard-response","114","395633","0.0-3.0-1.0-0.22","ox9w1sz19a","red","null","<svg viewBox=""0 0 100 100"" > <path d=""M 50 52 L 50 48"" stroke=""black"" stroke-width="".5""/> <path d=""M 52 50 L 48 50"" stroke=""black"" stroke-width="".5""/>","null","","","","","","","","","","","","",""
"","html-keyboard-response","115","396616","0.0-3.0-1.0-1.22","ox9w1sz19a","red","982","<svg viewBox=""0 0 100 100"" ><circle cx=""50"" cy=""50"" r=""10"" fill=""none"" transform=""translate( 26  15)"" stroke=""blueviolet"" /><circle cx=""50"" cy=""50"" r=""10"" fill=""none"" transform=""translate(  0  30)"" stroke=""black"" /><circle cx=""50"" cy=""50"" r=""10"" fill=""none"" transform=""translate(-26  15)"" stroke=""cyan"" /><circle cx=""50"" cy=""50"" r=""10"" fill=""none"" transform=""translate(-26 -15)"" stroke=""red"" /><circle cx=""50"" cy=""50"" r=""10"" fill=""none"" transform=""translate(  0 -30)"" stroke=""magenta"" /><circle cx=""50"" cy=""50"" r=""10"" fill=""none"" transform=""translate( 26 -15)"" stroke=""gold"" /><path d=""M 50 57 L 50 43"" stroke=""black"" transform=""translate( 26  15) rotate(45 50 50)""/><path d=""M 50 57 L 50 43"" stroke=""black"" transform=""translate(  0  30) rotate(45 50 50)""/><path d=""M 50 57 L 50 43"" stroke=""black"" transform=""translate(-26  15) rotate(-45 50 50)""/><path d=""M 50 57 L 50 43"" stroke=""black"" transform=""translate(-26 -15) rotate(90 50 50)""/><path d=""M 50 57 L 50 43"" stroke=""black"" transform=""translate(  0 -30) rotate(45 50 50)""/><path d=""M 50 57 L 50 43"" stroke=""black"" transform=""translate( 26 -15) rotate(-45 50 50)""/><path d=""M 50 52 L 50 48"" stroke=""black"" stroke-width="".5""/> <path d=""M 52 50 L 48 50"" stroke=""black"" stroke-width="".5""/></svg>","90","","","","","","VDACtest","red","4th","horizontal","true","high","",""
"","html-keyboard-response","116","399119","0.0-3.0-1.0-2.22","ox9w1sz19a","red","null","<p style=""font-size:300%;""> + 10 points.</p><p style=""font-size:300%"">Total: 124 points.</p>","null","","","","","","","","","","","","124",""
"","html-keyboard-response","117","401093","0.0-3.0-1.0-0.23","ox9w1sz19a","red","null","<svg viewBox=""0 0 100 100"" > <path d=""M 50 52 L 50 48"" stroke=""black"" stroke-width="".5""/> <path d=""M 52 50 L 48 50"" stroke=""black"" stroke-width="".5""/>","null","","","","","","","","","","","","",""
"","html-keyboard-response","118","401817","0.0-3.0-1.0-1.23","ox9w1sz19a","red","722","<svg viewBox=""0 0 100 100"" ><circle cx=""50"" cy=""50"" r=""10"" fill=""none"" transform=""translate( 26  15)"" stroke=""black"" /><circle cx=""50"" cy=""50"" r=""10"" fill=""none"" transform=""translate(  0  30)"" stroke=""magenta"" /><circle cx=""50"" cy=""50"" r=""10"" fill=""none"" transform=""translate(-26  15)"" stroke=""cyan"" /><circle cx=""50"" cy=""50"" r=""10"" fill=""none"" transform=""translate(-26 -15)"" stroke=""blueviolet"" /><circle cx=""50"" cy=""50"" r=""10"" fill=""none"" transform=""translate(  0 -30)"" stroke=""gold"" /><circle cx=""50"" cy=""50"" r=""10"" fill=""none"" transform=""translate( 26 -15)"" stroke=""red"" /><path d=""M 50 57 L 50 43"" stroke=""black"" transform=""translate( 26  15) rotate(45 50 50)""/><path d=""M 50 57 L 50 43"" stroke=""black"" transform=""translate(  0  30) rotate(-45 50 50)""/><path d=""M 50 57 L 50 43"" stroke=""black"" transform=""translate(-26  15) rotate(-45 50 50)""/><path d=""M 50 57 L 50 43"" stroke=""black"" transform=""translate(-26 -15) rotate(-45 50 50)""/><path d=""M 50 57 L 50 43"" stroke=""black"" transform=""translate(  0 -30) rotate(45 50 50)""/><path d=""M 50 57 L 50 43"" stroke=""black"" transform=""translate( 26 -15) rotate(0 50 50)""/><path d=""M 50 52 L 50 48"" stroke=""black"" stroke-width="".5""/> <path d=""M 52 50 L 48 50"" stroke=""black"" stroke-width="".5""/></svg>","77","","","","","","VDACtest","red","6th","vertical","true","high","",""
"","html-keyboard-response","119","404320","0.0-3.0-1.0-2.23","ox9w1sz19a","red","null","<p style=""font-size:300%;""> + 2 points.</p><p style=""font-size:300%"">Total: 126 points.</p>","null","","","","","","","","","","","","126",""
"","html-keyboard-response","120","406294","0.0-3.0-1.0-0.24","ox9w1sz19a","red","null","<svg viewBox=""0 0 100 100"" > <path d=""M 50 52 L 50 48"" stroke=""black"" stroke-width="".5""/> <path d=""M 52 50 L 48 50"" stroke=""black"" stroke-width="".5""/>","null","","","","","","","","","","","","",""
"","html-keyboard-response","121","407199","0.0-3.0-1.0-1.24","ox9w1sz19a","red","904","<svg viewBox=""0 0 100 100"" ><circle cx=""50"" cy=""50"" r=""10"" fill=""none"" transform=""translate( 26  15)"" stroke=""gold"" /><circle cx=""50"" cy=""50"" r=""10"" fill=""none"" transform=""translate(  0  30)"" stroke=""magenta"" /><circle cx=""50"" cy=""50"" r=""10"" fill=""none"" transform=""translate(-26  15)"" stroke=""red"" /><circle cx=""50"" cy=""50"" r=""10"" fill=""none"" transform=""translate(-26 -15)"" stroke=""blueviolet"" /><circle cx=""50"" cy=""50"" r=""10"" fill=""none"" transform=""translate(  0 -30)"" stroke=""black"" /><circle cx=""50"" cy=""50"" r=""10"" fill=""none"" transform=""translate( 26 -15)"" stroke=""cyan"" /><path d=""M 50 57 L 50 43"" stroke=""black"" transform=""translate( 26  15) rotate(45 50 50)""/><path d=""M 50 57 L 50 43"" stroke=""black"" transform=""translate(  0  30) rotate(45 50 50)""/><path d=""M 50 57 L 50 43"" stroke=""black"" transform=""translate(-26  15) rotate(0 50 50)""/><path d=""M 50 57 L 50 43"" stroke=""black"" transform=""translate(-26 -15) rotate(45 50 50)""/><path d=""M 50 57 L 50 43"" stroke=""black"" transform=""translate(  0 -30) rotate(-45 50 50)""/><path d=""M 50 57 L 50 43"" stroke=""black"" transform=""translate( 26 -15) rotate(45 50 50)""/><path d=""M 50 52 L 50 48"" stroke=""black"" stroke-width="".5""/> <path d=""M 52 50 L 48 50"" stroke=""black"" stroke-width="".5""/></svg>","77","","","","","","VDACtest","red","3rd","vertical","true","high","",""
"","html-keyboard-response","122","409702","0.0-3.0-1.0-2.24","ox9w1sz19a","red","null","<p style=""font-size:300%;""> + 10 points.</p><p style=""font-size:300%"">Total: 136 points.</p>","null","","","","","","","","","","","","136",""
"","html-keyboard-response","123","411675","0.0-3.0-1.0-0.25","ox9w1sz19a","red","null","<svg viewBox=""0 0 100 100"" > <path d=""M 50 52 L 50 48"" stroke=""black"" stroke-width="".5""/> <path d=""M 52 50 L 48 50"" stroke=""black"" stroke-width="".5""/>","null","","","","","","","","","","","","",""
"","html-keyboard-response","124","412357","0.0-3.0-1.0-1.25","ox9w1sz19a","red","681","<svg viewBox=""0 0 100 100"" ><circle cx=""50"" cy=""50"" r=""10"" fill=""none"" transform=""translate( 26  15)"" stroke=""black"" /><circle cx=""50"" cy=""50"" r=""10"" fill=""none"" transform=""translate(  0  30)"" stroke=""gold"" /><circle cx=""50"" cy=""50"" r=""10"" fill=""none"" transform=""translate(-26  15)"" stroke=""blueviolet"" /><circle cx=""50"" cy=""50"" r=""10"" fill=""none"" transform=""translate(-26 -15)"" stroke=""cyan"" /><circle cx=""50"" cy=""50"" r=""10"" fill=""none"" transform=""translate(  0 -30)"" stroke=""red"" /><circle cx=""50"" cy=""50"" r=""10"" fill=""none"" transform=""translate( 26 -15)"" stroke=""magenta"" /><path d=""M 50 57 L 50 43"" stroke=""black"" transform=""translate( 26  15) rotate(45 50 50)""/><path d=""M 50 57 L 50 43"" stroke=""black"" transform=""translate(  0  30) rotate(-45 50 50)""/><path d=""M 50 57 L 50 43"" stroke=""black"" transform=""translate(-26  15) rotate(45 50 50)""/><path d=""M 50 57 L 50 43"" stroke=""black"" transform=""translate(-26 -15) rotate(-45 50 50)""/><path d=""M 50 57 L 50 43"" stroke=""black"" transform=""translate(  0 -30) rotate(90 50 50)""/><path d=""M 50 57 L 50 43"" stroke=""black"" transform=""translate( 26 -15) rotate(45 50 50)""/><path d=""M 50 52 L 50 48"" stroke=""black"" stroke-width="".5""/> <path d=""M 52 50 L 48 50"" stroke=""black"" stroke-width="".5""/></svg>","90","","","","","","VDACtest","red","5th","horizontal","true","high","",""
"","html-keyboard-response","125","414861","0.0-3.0-1.0-2.25","ox9w1sz19a","red","null","<p style=""font-size:300%;""> + 10 points.</p><p style=""font-size:300%"">Total: 146 points.</p>","null","","","","","","","","","","","","146",""
"","html-keyboard-response","126","416834","0.0-3.0-1.0-0.26","ox9w1sz19a","red","null","<svg viewBox=""0 0 100 100"" > <path d=""M 50 52 L 50 48"" stroke=""black"" stroke-width="".5""/> <path d=""M 52 50 L 48 50"" stroke=""black"" stroke-width="".5""/>","null","","","","","","","","","","","","",""
"","html-keyboard-response","127","417837","0.0-3.0-1.0-1.26","ox9w1sz19a","red","null","<svg viewBox=""0 0 100 100"" ><circle cx=""50"" cy=""50"" r=""10"" fill=""none"" transform=""translate( 26  15)"" stroke=""gold"" /><circle cx=""50"" cy=""50"" r=""10"" fill=""none"" transform=""translate(  0  30)"" stroke=""red"" /><circle cx=""50"" cy=""50"" r=""10"" fill=""none"" transform=""translate(-26  15)"" stroke=""blueviolet"" /><circle cx=""50"" cy=""50"" r=""10"" fill=""none"" transform=""translate(-26 -15)"" stroke=""black"" /><circle cx=""50"" cy=""50"" r=""10"" fill=""none"" transform=""translate(  0 -30)"" stroke=""cyan"" /><circle cx=""50"" cy=""50"" r=""10"" fill=""none"" transform=""translate( 26 -15)"" stroke=""magenta"" /><path d=""M 50 57 L 50 43"" stroke=""black"" transform=""translate( 26  15) rotate(45 50 50)""/><path d=""M 50 57 L 50 43"" stroke=""black"" transform=""translate(  0  30) rotate(0 50 50)""/><path d=""M 50 57 L 50 43"" stroke=""black"" transform=""translate(-26  15) rotate(45 50 50)""/><path d=""M 50 57 L 50 43"" stroke=""black"" transform=""translate(-26 -15) rotate(45 50 50)""/><path d=""M 50 57 L 50 43"" stroke=""black"" transform=""translate(  0 -30) rotate(45 50 50)""/><path d=""M 50 57 L 50 43"" stroke=""black"" transform=""translate( 26 -15) rotate(45 50 50)""/><path d=""M 50 52 L 50 48"" stroke=""black"" stroke-width="".5""/> <path d=""M 52 50 L 48 50"" stroke=""black"" stroke-width="".5""/></svg>","null","","","","","","VDACtest","red","2nd","vertical","null","high","",""
"","html-keyboard-response","128","420339","0.0-3.0-1.0-2.26","ox9w1sz19a","red","null","<p style=""font-size:300%;"">Miss.</p><p style=""font-size:300%"">Total: 146 points.</p>","null","","","","","","","","","","","","146",""
"","html-keyboard-response","129","422311","0.0-3.0-1.0-0.27","ox9w1sz19a","red","null","<svg viewBox=""0 0 100 100"" > <path d=""M 50 52 L 50 48"" stroke=""black"" stroke-width="".5""/> <path d=""M 52 50 L 48 50"" stroke=""black"" stroke-width="".5""/>","null","","","","","","","","","","","","",""
"","html-keyboard-response","130","423313","0.0-3.0-1.0-1.27","ox9w1sz19a","red","null","<svg viewBox=""0 0 100 100"" ><circle cx=""50"" cy=""50"" r=""10"" fill=""none"" transform=""translate( 26  15)"" stroke=""green"" /><circle cx=""50"" cy=""50"" r=""10"" fill=""none"" transform=""translate(  0  30)"" stroke=""blueviolet"" /><circle cx=""50"" cy=""50"" r=""10"" fill=""none"" transform=""translate(-26  15)"" stroke=""magenta"" /><circle cx=""50"" cy=""50"" r=""10"" fill=""none"" transform=""translate(-26 -15)"" stroke=""gold"" /><circle cx=""50"" cy=""50"" r=""10"" fill=""none"" transform=""translate(  0 -30)"" stroke=""black"" /><circle cx=""50"" cy=""50"" r=""10"" fill=""none"" transform=""translate( 26 -15)"" stroke=""cyan"" /><path d=""M 50 57 L 50 43"" stroke=""black"" transform=""translate( 26  15) rotate(0 50 50)""/><path d=""M 50 57 L 50 43"" stroke=""black"" transform=""translate(  0  30) rotate(45 50 50)""/><path d=""M 50 57 L 50 43"" stroke=""black"" transform=""translate(-26  15) rotate(-45 50 50)""/><path d=""M 50 57 L 50 43"" stroke=""black"" transform=""translate(-26 -15) rotate(-45 50 50)""/><path d=""M 50 57 L 50 43"" stroke=""black"" transform=""translate(  0 -30) rotate(45 50 50)""/><path d=""M 50 57 L 50 43"" stroke=""black"" transform=""translate( 26 -15) rotate(45 50 50)""/><path d=""M 50 52 L 50 48"" stroke=""black"" stroke-width="".5""/> <path d=""M 52 50 L 48 50"" stroke=""black"" stroke-width="".5""/></svg>","null","","","","","","VDACtest","green","1st","vertical","null","low","",""
"","html-keyboard-response","131","425815","0.0-3.0-1.0-2.27","ox9w1sz19a","red","null","<p style=""font-size:300%;"">Miss.</p><p style=""font-size:300%"">Total: 146 points.</p>","null","","","","","","","","","","","","146",""
"","html-keyboard-response","132","427787","0.0-3.0-1.0-0.28","ox9w1sz19a","red","null","<svg viewBox=""0 0 100 100"" > <path d=""M 50 52 L 50 48"" stroke=""black"" stroke-width="".5""/> <path d=""M 52 50 L 48 50"" stroke=""black"" stroke-width="".5""/>","null","","","","","","","","","","","","",""
"","html-keyboard-response","133","428474","0.0-3.0-1.0-1.28","ox9w1sz19a","red","686","<svg viewBox=""0 0 100 100"" ><circle cx=""50"" cy=""50"" r=""10"" fill=""none"" transform=""translate( 26  15)"" stroke=""gold"" /><circle cx=""50"" cy=""50"" r=""10"" fill=""none"" transform=""translate(  0  30)"" stroke=""red"" /><circle cx=""50"" cy=""50"" r=""10"" fill=""none"" transform=""translate(-26  15)"" stroke=""black"" /><circle cx=""50"" cy=""50"" r=""10"" fill=""none"" transform=""translate(-26 -15)"" stroke=""blueviolet"" /><circle cx=""50"" cy=""50"" r=""10"" fill=""none"" transform=""translate(  0 -30)"" stroke=""cyan"" /><circle cx=""50"" cy=""50"" r=""10"" fill=""none"" transform=""translate( 26 -15)"" stroke=""magenta"" /><path d=""M 50 57 L 50 43"" stroke=""black"" transform=""translate( 26  15) rotate(45 50 50)""/><path d=""M 50 57 L 50 43"" stroke=""black"" transform=""translate(  0  30) rotate(90 50 50)""/><path d=""M 50 57 L 50 43"" stroke=""black"" transform=""translate(-26  15) rotate(45 50 50)""/><path d=""M 50 57 L 50 43"" stroke=""black"" transform=""translate(-26 -15) rotate(-45 50 50)""/><path d=""M 50 57 L 50 43"" stroke=""black"" transform=""translate(  0 -30) rotate(45 50 50)""/><path d=""M 50 57 L 50 43"" stroke=""black"" transform=""translate( 26 -15) rotate(45 50 50)""/><path d=""M 50 52 L 50 48"" stroke=""black"" stroke-width="".5""/> <path d=""M 52 50 L 48 50"" stroke=""black"" stroke-width="".5""/></svg>","90","","","","","","VDACtest","red","2nd","horizontal","true","high","",""
"","html-keyboard-response","134","430975","0.0-3.0-1.0-2.28","ox9w1sz19a","red","null","<p style=""font-size:300%;""> + 10 points.</p><p style=""font-size:300%"">Total: 156 points.</p>","null","","","","","","","","","","","","156",""
"","html-keyboard-response","135","432948","0.0-3.0-1.0-0.29","ox9w1sz19a","red","null","<svg viewBox=""0 0 100 100"" > <path d=""M 50 52 L 50 48"" stroke=""black"" stroke-width="".5""/> <path d=""M 52 50 L 48 50"" stroke=""black"" stroke-width="".5""/>","null","","","","","","","","","","","","",""
"","html-keyboard-response","136","433504","0.0-3.0-1.0-1.29","ox9w1sz19a","red","554","<svg viewBox=""0 0 100 100"" ><circle cx=""50"" cy=""50"" r=""10"" fill=""none"" transform=""translate( 26  15)"" stroke=""black"" /><circle cx=""50"" cy=""50"" r=""10"" fill=""none"" transform=""translate(  0  30)"" stroke=""blueviolet"" /><circle cx=""50"" cy=""50"" r=""10"" fill=""none"" transform=""translate(-26  15)"" stroke=""cyan"" /><circle cx=""50"" cy=""50"" r=""10"" fill=""none"" transform=""translate(-26 -15)"" stroke=""green"" /><circle cx=""50"" cy=""50"" r=""10"" fill=""none"" transform=""translate(  0 -30)"" stroke=""gold"" /><circle cx=""50"" cy=""50"" r=""10"" fill=""none"" transform=""translate( 26 -15)"" stroke=""magenta"" /><path d=""M 50 57 L 50 43"" stroke=""black"" transform=""translate( 26  15) rotate(45 50 50)""/><path d=""M 50 57 L 50 43"" stroke=""black"" transform=""translate(  0  30) rotate(45 50 50)""/><path d=""M 50 57 L 50 43"" stroke=""black"" transform=""translate(-26  15) rotate(-45 50 50)""/><path d=""M 50 57 L 50 43"" stroke=""black"" transform=""translate(-26 -15) rotate(0 50 50)""/><path d=""M 50 57 L 50 43"" stroke=""black"" transform=""translate(  0 -30) rotate(45 50 50)""/><path d=""M 50 57 L 50 43"" stroke=""black"" transform=""translate( 26 -15) rotate(45 50 50)""/><path d=""M 50 52 L 50 48"" stroke=""black"" stroke-width="".5""/> <path d=""M 52 50 L 48 50"" stroke=""black"" stroke-width="".5""/></svg>","77","","","","","","VDACtest","green","4th","vertical","true","low","",""
"","html-keyboard-response","137","436005","0.0-3.0-1.0-2.29","ox9w1sz19a","red","null","<p style=""font-size:300%;""> + 2 points.</p><p style=""font-size:300%"">Total: 158 points.</p>","null","","","","","","","","","","","","158",""
"","html-keyboard-response","138","437978","0.0-3.0-1.0-0.30","ox9w1sz19a","red","null","<svg viewBox=""0 0 100 100"" > <path d=""M 50 52 L 50 48"" stroke=""black"" stroke-width="".5""/> <path d=""M 52 50 L 48 50"" stroke=""black"" stroke-width="".5""/>","null","","","","","","","","","","","","",""
"","html-keyboard-response","139","438616","0.0-3.0-1.0-1.30","ox9w1sz19a","red","636","<svg viewBox=""0 0 100 100"" ><circle cx=""50"" cy=""50"" r=""10"" fill=""none"" transform=""translate( 26  15)"" stroke=""cyan"" /><circle cx=""50"" cy=""50"" r=""10"" fill=""none"" transform=""translate(  0  30)"" stroke=""gold"" /><circle cx=""50"" cy=""50"" r=""10"" fill=""none"" transform=""translate(-26  15)"" stroke=""magenta"" /><circle cx=""50"" cy=""50"" r=""10"" fill=""none"" transform=""translate(-26 -15)"" stroke=""green"" /><circle cx=""50"" cy=""50"" r=""10"" fill=""none"" transform=""translate(  0 -30)"" stroke=""blueviolet"" /><circle cx=""50"" cy=""50"" r=""10"" fill=""none"" transform=""translate( 26 -15)"" stroke=""black"" /><path d=""M 50 57 L 50 43"" stroke=""black"" transform=""translate( 26  15) rotate(-45 50 50)""/><path d=""M 50 57 L 50 43"" stroke=""black"" transform=""translate(  0  30) rotate(-45 50 50)""/><path d=""M 50 57 L 50 43"" stroke=""black"" transform=""translate(-26  15) rotate(45 50 50)""/><path d=""M 50 57 L 50 43"" stroke=""black"" transform=""translate(-26 -15) rotate(90 50 50)""/><path d=""M 50 57 L 50 43"" stroke=""black"" transform=""translate(  0 -30) rotate(45 50 50)""/><path d=""M 50 57 L 50 43"" stroke=""black"" transform=""translate( 26 -15) rotate(45 50 50)""/><path d=""M 50 52 L 50 48"" stroke=""black"" stroke-width="".5""/> <path d=""M 52 50 L 48 50"" stroke=""black"" stroke-width="".5""/></svg>","77","","","","","","VDACtest","green","4th","horizontal","false","low","",""
"","html-keyboard-response","140","441119","0.0-3.0-1.0-2.30","ox9w1sz19a","red","null","<p style=""font-size:300%;"">Miss.</p><p style=""font-size:300%"">Total: 158 points.</p>","null","","","","","","","","","","","","158",""
"","html-keyboard-response","141","443090","0.0-3.0-1.0-0.31","ox9w1sz19a","red","null","<svg viewBox=""0 0 100 100"" > <path d=""M 50 52 L 50 48"" stroke=""black"" stroke-width="".5""/> <path d=""M 52 50 L 48 50"" stroke=""black"" stroke-width="".5""/>","null","","","","","","","","","","","","",""
"","html-keyboard-response","142","443713","0.0-3.0-1.0-1.31","ox9w1sz19a","red","622","<svg viewBox=""0 0 100 100"" ><circle cx=""50"" cy=""50"" r=""10"" fill=""none"" transform=""translate( 26  15)"" stroke=""cyan"" /><circle cx=""50"" cy=""50"" r=""10"" fill=""none"" transform=""translate(  0  30)"" stroke=""black"" /><circle cx=""50"" cy=""50"" r=""10"" fill=""none"" transform=""translate(-26  15)"" stroke=""blueviolet"" /><circle cx=""50"" cy=""50"" r=""10"" fill=""none"" transform=""translate(-26 -15)"" stroke=""magenta"" /><circle cx=""50"" cy=""50"" r=""10"" fill=""none"" transform=""translate(  0 -30)"" stroke=""gold"" /><circle cx=""50"" cy=""50"" r=""10"" fill=""none"" transform=""translate( 26 -15)"" stroke=""red"" /><path d=""M 50 57 L 50 43"" stroke=""black"" transform=""translate( 26  15) rotate(45 50 50)""/><path d=""M 50 57 L 50 43"" stroke=""black"" transform=""translate(  0  30) rotate(45 50 50)""/><path d=""M 50 57 L 50 43"" stroke=""black"" transform=""translate(-26  15) rotate(45 50 50)""/><path d=""M 50 57 L 50 43"" stroke=""black"" transform=""translate(-26 -15) rotate(-45 50 50)""/><path d=""M 50 57 L 50 43"" stroke=""black"" transform=""translate(  0 -30) rotate(45 50 50)""/><path d=""M 50 57 L 50 43"" stroke=""black"" transform=""translate( 26 -15) rotate(0 50 50)""/><path d=""M 50 52 L 50 48"" stroke=""black"" stroke-width="".5""/> <path d=""M 52 50 L 48 50"" stroke=""black"" stroke-width="".5""/></svg>","77","","","","","","VDACtest","red","6th","vertical","true","high","",""
"","html-keyboard-response","143","446216","0.0-3.0-1.0-2.31","ox9w1sz19a","red","null","<p style=""font-size:300%;""> + 2 points.</p><p style=""font-size:300%"">Total: 160 points.</p>","null","","","","","","","","","","","","160",""
"","html-keyboard-response","144","448190","0.0-3.0-1.0-0.32","ox9w1sz19a","red","null","<svg viewBox=""0 0 100 100"" > <path d=""M 50 52 L 50 48"" stroke=""black"" stroke-width="".5""/> <path d=""M 52 50 L 48 50"" stroke=""black"" stroke-width="".5""/>","null","","","","","","","","","","","","",""
"","html-keyboard-response","145","449052","0.0-3.0-1.0-1.32","ox9w1sz19a","red","862","<svg viewBox=""0 0 100 100"" ><circle cx=""50"" cy=""50"" r=""10"" fill=""none"" transform=""translate( 26  15)"" stroke=""magenta"" /><circle cx=""50"" cy=""50"" r=""10"" fill=""none"" transform=""translate(  0  30)"" stroke=""red"" /><circle cx=""50"" cy=""50"" r=""10"" fill=""none"" transform=""translate(-26  15)"" stroke=""blueviolet"" /><circle cx=""50"" cy=""50"" r=""10"" fill=""none"" transform=""translate(-26 -15)"" stroke=""black"" /><circle cx=""50"" cy=""50"" r=""10"" fill=""none"" transform=""translate(  0 -30)"" stroke=""cyan"" /><circle cx=""50"" cy=""50"" r=""10"" fill=""none"" transform=""translate( 26 -15)"" stroke=""gold"" /><path d=""M 50 57 L 50 43"" stroke=""black"" transform=""translate( 26  15) rotate(-45 50 50)""/><path d=""M 50 57 L 50 43"" stroke=""black"" transform=""translate(  0  30) rotate(0 50 50)""/><path d=""M 50 57 L 50 43"" stroke=""black"" transform=""translate(-26  15) rotate(-45 50 50)""/><path d=""M 50 57 L 50 43"" stroke=""black"" transform=""translate(-26 -15) rotate(-45 50 50)""/><path d=""M 50 57 L 50 43"" stroke=""black"" transform=""translate(  0 -30) rotate(45 50 50)""/><path d=""M 50 57 L 50 43"" stroke=""black"" transform=""translate( 26 -15) rotate(45 50 50)""/><path d=""M 50 52 L 50 48"" stroke=""black"" stroke-width="".5""/> <path d=""M 52 50 L 48 50"" stroke=""black"" stroke-width="".5""/></svg>","77","","","","","","VDACtest","red","2nd","vertical","true","high","",""
"","html-keyboard-response","146","451556","0.0-3.0-1.0-2.32","ox9w1sz19a","red","null","<p style=""font-size:300%;""> + 10 points.</p><p style=""font-size:300%"">Total: 170 points.</p>","null","","","","","","","","","","","","170",""
"","html-keyboard-response","147","453529","0.0-3.0-1.0-0.33","ox9w1sz19a","red","null","<svg viewBox=""0 0 100 100"" > <path d=""M 50 52 L 50 48"" stroke=""black"" stroke-width="".5""/> <path d=""M 52 50 L 48 50"" stroke=""black"" stroke-width="".5""/>","null","","","","","","","","","","","","",""
"","html-keyboard-response","148","454269","0.0-3.0-1.0-1.33","ox9w1sz19a","red","740","<svg viewBox=""0 0 100 100"" ><circle cx=""50"" cy=""50"" r=""10"" fill=""none"" transform=""translate( 26  15)"" stroke=""blueviolet"" /><circle cx=""50"" cy=""50"" r=""10"" fill=""none"" transform=""translate(  0  30)"" stroke=""magenta"" /><circle cx=""50"" cy=""50"" r=""10"" fill=""none"" transform=""translate(-26  15)"" stroke=""cyan"" /><circle cx=""50"" cy=""50"" r=""10"" fill=""none"" transform=""translate(-26 -15)"" stroke=""gold"" /><circle cx=""50"" cy=""50"" r=""10"" fill=""none"" transform=""translate(  0 -30)"" stroke=""green"" /><circle cx=""50"" cy=""50"" r=""10"" fill=""none"" transform=""translate( 26 -15)"" stroke=""black"" /><path d=""M 50 57 L 50 43"" stroke=""black"" transform=""translate( 26  15) rotate(-45 50 50)""/><path d=""M 50 57 L 50 43"" stroke=""black"" transform=""translate(  0  30) rotate(-45 50 50)""/><path d=""M 50 57 L 50 43"" stroke=""black"" transform=""translate(-26  15) rotate(-45 50 50)""/><path d=""M 50 57 L 50 43"" stroke=""black"" transform=""translate(-26 -15) rotate(-45 50 50)""/><path d=""M 50 57 L 50 43"" stroke=""black"" transform=""translate(  0 -30) rotate(90 50 50)""/><path d=""M 50 57 L 50 43"" stroke=""black"" transform=""translate( 26 -15) rotate(-45 50 50)""/><path d=""M 50 52 L 50 48"" stroke=""black"" stroke-width="".5""/> <path d=""M 52 50 L 48 50"" stroke=""black"" stroke-width="".5""/></svg>","90","","","","","","VDACtest","green","5th","horizontal","true","low","",""
"","html-keyboard-response","149","456773","0.0-3.0-1.0-2.33","ox9w1sz19a","red","null","<p style=""font-size:300%;""> + 10 points.</p><p style=""font-size:300%"">Total: 180 points.</p>","null","","","","","","","","","","","","180",""
"","html-keyboard-response","150","458746","0.0-3.0-1.0-0.34","ox9w1sz19a","red","null","<svg viewBox=""0 0 100 100"" > <path d=""M 50 52 L 50 48"" stroke=""black"" stroke-width="".5""/> <path d=""M 52 50 L 48 50"" stroke=""black"" stroke-width="".5""/>","null","","","","","","","","","","","","",""
"","html-keyboard-response","151","459498","0.0-3.0-1.0-1.34","ox9w1sz19a","red","750.9999999999418","<svg viewBox=""0 0 100 100"" ><circle cx=""50"" cy=""50"" r=""10"" fill=""none"" transform=""translate( 26  15)"" stroke=""green"" /><circle cx=""50"" cy=""50"" r=""10"" fill=""none"" transform=""translate(  0  30)"" stroke=""cyan"" /><circle cx=""50"" cy=""50"" r=""10"" fill=""none"" transform=""translate(-26  15)"" stroke=""blueviolet"" /><circle cx=""50"" cy=""50"" r=""10"" fill=""none"" transform=""translate(-26 -15)"" stroke=""black"" /><circle cx=""50"" cy=""50"" r=""10"" fill=""none"" transform=""translate(  0 -30)"" stroke=""gold"" /><circle cx=""50"" cy=""50"" r=""10"" fill=""none"" transform=""translate( 26 -15)"" stroke=""magenta"" /><path d=""M 50 57 L 50 43"" stroke=""black"" transform=""translate( 26  15) rotate(90 50 50)""/><path d=""M 50 57 L 50 43"" stroke=""black"" transform=""translate(  0  30) rotate(-45 50 50)""/><path d=""M 50 57 L 50 43"" stroke=""black"" transform=""translate(-26  15) rotate(-45 50 50)""/><path d=""M 50 57 L 50 43"" stroke=""black"" transform=""translate(-26 -15) rotate(-45 50 50)""/><path d=""M 50 57 L 50 43"" stroke=""black"" transform=""translate(  0 -30) rotate(45 50 50)""/><path d=""M 50 57 L 50 43"" stroke=""black"" transform=""translate( 26 -15) rotate(45 50 50)""/><path d=""M 50 52 L 50 48"" stroke=""black"" stroke-width="".5""/> <path d=""M 52 50 L 48 50"" stroke=""black"" stroke-width="".5""/></svg>","90","","","","","","VDACtest","green","1st","horizontal","true","low","",""
"","html-keyboard-response","152","462001","0.0-3.0-1.0-2.34","ox9w1sz19a","red","null","<p style=""font-size:300%;""> + 10 points.</p><p style=""font-size:300%"">Total: 190 points.</p>","null","","","","","","","","","","","","190",""
"","html-keyboard-response","153","463973","0.0-3.0-1.0-0.35","ox9w1sz19a","red","null","<svg viewBox=""0 0 100 100"" > <path d=""M 50 52 L 50 48"" stroke=""black"" stroke-width="".5""/> <path d=""M 52 50 L 48 50"" stroke=""black"" stroke-width="".5""/>","null","","","","","","","","","","","","",""
