"success","trial_type","trial_index","time_elapsed","internal_node_id","subject","condition","rt","stimulus","key_press","url","responses","question_order","value","view_history","trialType","color","tgtPosition","orientation","correct","rewardType","reward","colorPosition"
"true","fullscreen","0","2299","0.0-0.0-0.0","ym5qyfa22a","green","","","","","","","","","","","","","","","",""
"","html-keyboard-response","1","2604","0.0-0.0-1.0","ym5qyfa22a","green","304.9100000062026","<div style= ""font-size:20px;"" <p> <strong> Welcome to the experiment! </strong><br> <p style=""color:red; font-size:25px;""> Please do NOT exit full screen until you are done with the experiment. </p><p style=""color:red;""> The experiment will be canceled and your data will be lost if you try to go back or refresh the page at any time during the experiment.</p><p style=""color:red;""> Please rely on your memory and do NOT write anything down throughout the experiment. </p><br><p style=""color:black;"">Press any key to continue.</p> </span>","39","","","","","","","","","","","","",""
"","external-html","2","4017","0.0-0.0-2.0","ym5qyfa22a","green","1409.090000030119","","","http://labs.psychology.illinois.edu/~jy57/memory_capture/supportFiles/Consent.html","","","","","","","","","","","",""
"","survey-text","3","5302","0.0-0.0-3.0","ym5qyfa22a","green","1279.0549999917857","","","","{""Q0"":"""",""Q1"":""""}","","","","","","","","","","",""
"","survey-multi-select","4","7039","0.0-0.0-4.0","ym5qyfa22a","green","1735.2399999508634","","","","{""Q0"":[""American Indian or Alaska Native""]}","[0]","","","","","","","","","",""
"","survey-multi-choice","5","8648","0.0-0.0-5.0","ym5qyfa22a","green","1602.3799999966286","","","","{""Q0"":""Nonbinary/third gender"",""Q1"":"""",""Q2"":""""}","[0,1,2]","","","","","","","","","",""
"","call-function","6","8653","0.0-0.0-6.0","ym5qyfa22a","green","","","","","","","","","","","","","","","",""
"","instructions","7","11319","0.0-1.0-0.0","ym5qyfa22a","green","2665.5400000163354","","","","","","","[{""page_index"":0,""viewing_time"":1276.6200000187382},{""page_index"":1,""viewing_time"":197.61999999172986},{""page_index"":2,""viewing_time"":198.2599999755621},{""page_index"":3,""viewing_time"":210.85000003222376},{""page_index"":4,""viewing_time"":189.11499995738268},{""page_index"":5,""viewing_time"":179.94000000180677},{""page_index"":6,""viewing_time"":197.44499999796972},{""page_index"":7,""viewing_time"":215.54500004276633}]","","","","","","","",""
"","html-keyboard-response","8","11605","0.0-1.0-1.0-0.0","ym5qyfa22a","green","285.31499998643994","<p>Place your fingers on the <b>Z</b> and <b>M</b> keys. The experiment will begin shortly.</p><p>&nbsp</p>","39","","","","","","","","","","","","",""
"","html-keyboard-response","9","12606","0.0-1.0-1.0-1.0","ym5qyfa22a","green","null","<p>Place your fingers on the <b>Z</b> and <b>M</b> keys. The experiment will begin shortly.</p><p>3</p>","null","","","","","","","","","","","","",""
"","html-keyboard-response","10","13607","0.0-1.0-1.0-2.0","ym5qyfa22a","green","null","<p>Place your fingers on the <b>Z</b> and <b>M</b> keys. The experiment will begin shortly.</p><p>2</p>","null","","","","","","","","","","","","",""
"","html-keyboard-response","11","14611","0.0-1.0-1.0-3.0","ym5qyfa22a","green","null","<p>Place your fingers on the <b>Z</b> and <b>M</b> keys. The experiment will begin shortly.</p><p>1</p>","null","","","","","","","","","","","","",""
"","html-keyboard-response","12","15431","0.0-1.0-2.0-0.0","ym5qyfa22a","green","null","<svg viewBox=""0 0 100 100"" > <path d=""M 50 52 L 50 48"" stroke=""black"" stroke-width="".5""/> <path d=""M 52 50 L 48 50"" stroke=""black"" stroke-width="".5""/>","null","","","","","","","","","","","","",""
"","html-keyboard-response","13","16435","0.0-1.0-2.0-1.0","ym5qyfa22a","green","null","<svg viewBox=""0 0 100 100"" ><text font-size=""10%"" text-anchor=""middle""  x=""50"" y=""98"">Press Z for horizontal or M for vertical</text><circle cx=""50"" cy=""50"" r=""10"" fill=""none"" transform=""translate( 26  15)"" stroke=""gold"" /><circle cx=""50"" cy=""50"" r=""10"" fill=""none"" transform=""translate(  0  30)"" stroke=""cyan"" /><circle cx=""50"" cy=""50"" r=""10"" fill=""none"" transform=""translate(-26  15)"" stroke=""magenta"" /><circle cx=""50"" cy=""50"" r=""10"" fill=""none"" transform=""translate(-26 -15)"" stroke=""blueviolet"" /><circle cx=""50"" cy=""50"" r=""10"" fill=""none"" transform=""translate(  0 -30)"" stroke=""red"" /><circle cx=""50"" cy=""50"" r=""10"" fill=""none"" transform=""translate( 26 -15)"" stroke=""black"" /><path d=""M 50 57 L 50 43"" stroke=""black"" transform=""translate( 26  15) rotate(45 50 50)""/><path d=""M 50 57 L 50 43"" stroke=""black"" transform=""translate(  0  30) rotate(-45 50 50)""/><path d=""M 50 57 L 50 43"" stroke=""black"" transform=""translate(-26  15) rotate(45 50 50)""/><path d=""M 50 57 L 50 43"" stroke=""black"" transform=""translate(-26 -15) rotate(45 50 50)""/><path d=""M 50 57 L 50 43"" stroke=""black"" transform=""translate(  0 -30) rotate(90 50 50)""/><path d=""M 50 57 L 50 43"" stroke=""black"" transform=""translate( 26 -15) rotate(45 50 50)""/><path d=""M 50 52 L 50 48"" stroke=""black"" stroke-width="".5""/> <path d=""M 52 50 L 48 50"" stroke=""black"" stroke-width="".5""/></svg>","null","","","","","","VDACtraining","red","4","horizontal","null","","",""
"","html-keyboard-response","14","18949","0.0-1.0-2.0-2.0","ym5qyfa22a","green","null","<p style=""font-size:300%;"">Miss.</p> <p style=""font-size:300%;"">Too slow.</p>","null","","","","","","","","","","","","",""
"","html-keyboard-response","15","20785","0.0-1.0-2.0-0.1","ym5qyfa22a","green","null","<svg viewBox=""0 0 100 100"" > <path d=""M 50 52 L 50 48"" stroke=""black"" stroke-width="".5""/> <path d=""M 52 50 L 48 50"" stroke=""black"" stroke-width="".5""/>","null","","","","","","","","","","","","",""
"","html-keyboard-response","16","20980","0.0-1.0-2.0-1.1","ym5qyfa22a","green","194.25000000046566","<svg viewBox=""0 0 100 100"" ><text font-size=""10%"" text-anchor=""middle""  x=""50"" y=""98"">Press Z for horizontal or M for vertical</text><circle cx=""50"" cy=""50"" r=""10"" fill=""none"" transform=""translate( 26  15)"" stroke=""magenta"" /><circle cx=""50"" cy=""50"" r=""10"" fill=""none"" transform=""translate(  0  30)"" stroke=""blueviolet"" /><circle cx=""50"" cy=""50"" r=""10"" fill=""none"" transform=""translate(-26  15)"" stroke=""red"" /><circle cx=""50"" cy=""50"" r=""10"" fill=""none"" transform=""translate(-26 -15)"" stroke=""black"" /><circle cx=""50"" cy=""50"" r=""10"" fill=""none"" transform=""translate(  0 -30)"" stroke=""cyan"" /><circle cx=""50"" cy=""50"" r=""10"" fill=""none"" transform=""translate( 26 -15)"" stroke=""gold"" /><path d=""M 50 57 L 50 43"" stroke=""black"" transform=""translate( 26  15) rotate(45 50 50)""/><path d=""M 50 57 L 50 43"" stroke=""black"" transform=""translate(  0  30) rotate(-45 50 50)""/><path d=""M 50 57 L 50 43"" stroke=""black"" transform=""translate(-26  15) rotate(90 50 50)""/><path d=""M 50 57 L 50 43"" stroke=""black"" transform=""translate(-26 -15) rotate(-45 50 50)""/><path d=""M 50 57 L 50 43"" stroke=""black"" transform=""translate(  0 -30) rotate(-45 50 50)""/><path d=""M 50 57 L 50 43"" stroke=""black"" transform=""translate( 26 -15) rotate(45 50 50)""/><path d=""M 50 52 L 50 48"" stroke=""black"" stroke-width="".5""/> <path d=""M 52 50 L 48 50"" stroke=""black"" stroke-width="".5""/></svg>","90","","","","","","VDACtraining","red","2","horizontal","true","","",""
"","html-keyboard-response","17","23492","0.0-1.0-2.0-2.1","ym5qyfa22a","green","null","<p style=""font-size:300%;"">Correct!</p>","null","","","","","","","","","","","","",""
"","call-function","18","24498","0.0-1.0-3.0","ym5qyfa22a","green","","","","","","","","","","","","","","","",""
"","html-keyboard-response","19","26953","0.0-1.0-4.0","ym5qyfa22a","green","2453.9199999999255","<p>You have now finished the training exercise. If you would like to repeat the instructions and training exercise, press R. If you are ready to continue to the task, press C. </p>","67","","","","","","","","","","","","",""
"","html-keyboard-response","20","27560","0.0-2.0-0.0","ym5qyfa22a","green","606.5300000482239","<p>Place your fingers on the <b>Z</b> and <b>M</b> keys. The experiment will begin shortly.</p><p>&nbsp</p>","90","","","","","","","","","","","","",""
"","html-keyboard-response","21","28575","0.0-2.0-1.0","ym5qyfa22a","green","null","<p>Place your fingers on the <b>Z</b> and <b>M</b> keys. The experiment will begin shortly.</p><p>3</p>","null","","","","","","","","","","","","",""
"","html-keyboard-response","22","29585","0.0-2.0-2.0","ym5qyfa22a","green","null","<p>Place your fingers on the <b>Z</b> and <b>M</b> keys. The experiment will begin shortly.</p><p>2</p>","null","","","","","","","","","","","","",""
"","html-keyboard-response","23","30586","0.0-2.0-3.0","ym5qyfa22a","green","null","<p>Place your fingers on the <b>Z</b> and <b>M</b> keys. The experiment will begin shortly.</p><p>1</p>","null","","","","","","","","","","","","",""
"","call-function","24","30586","0.0-3.0-0.0","ym5qyfa22a","green","","","","","","","","","","","","","","","",""
"","html-keyboard-response","25","31402","0.0-3.0-1.0-0.0","ym5qyfa22a","green","null","<svg viewBox=""0 0 100 100"" > <path d=""M 50 52 L 50 48"" stroke=""black"" stroke-width="".5""/> <path d=""M 52 50 L 48 50"" stroke=""black"" stroke-width="".5""/>","null","","","","","","","","","","","","",""
"","html-keyboard-response","26","31561","0.0-3.0-1.0-1.0","ym5qyfa22a","green","158.46000000601634","<svg viewBox=""0 0 100 100"" ><circle cx=""50"" cy=""50"" r=""10"" fill=""none"" transform=""translate( 26  15)"" stroke=""black"" /><circle cx=""50"" cy=""50"" r=""10"" fill=""none"" transform=""translate(  0  30)"" stroke=""gold"" /><circle cx=""50"" cy=""50"" r=""10"" fill=""none"" transform=""translate(-26  15)"" stroke=""red"" /><circle cx=""50"" cy=""50"" r=""10"" fill=""none"" transform=""translate(-26 -15)"" stroke=""cyan"" /><circle cx=""50"" cy=""50"" r=""10"" fill=""none"" transform=""translate(  0 -30)"" stroke=""magenta"" /><circle cx=""50"" cy=""50"" r=""10"" fill=""none"" transform=""translate( 26 -15)"" stroke=""blueviolet"" /><path d=""M 50 57 L 50 43"" stroke=""black"" transform=""translate( 26  15) rotate(45 50 50)""/><path d=""M 50 57 L 50 43"" stroke=""black"" transform=""translate(  0  30) rotate(45 50 50)""/><path d=""M 50 57 L 50 43"" stroke=""black"" transform=""translate(-26  15) rotate(90 50 50)""/><path d=""M 50 57 L 50 43"" stroke=""black"" transform=""translate(-26 -15) rotate(45 50 50)""/><path d=""M 50 57 L 50 43"" stroke=""black"" transform=""translate(  0 -30) rotate(-45 50 50)""/><path d=""M 50 57 L 50 43"" stroke=""black"" transform=""translate( 26 -15) rotate(-45 50 50)""/><path d=""M 50 52 L 50 48"" stroke=""black"" stroke-width="".5""/> <path d=""M 52 50 L 48 50"" stroke=""black"" stroke-width="".5""/></svg>","90","","","","","","VDACtest","red","3rd","horizontal","true","low","",""
"","html-keyboard-response","27","34064","0.0-3.0-1.0-2.0","ym5qyfa22a","green","null","<p style=""font-size:300%;""> + 2 points.</p><p style=""font-size:300%"">Total: 2 points.</p>","null","","","","","","","","","","","","2",""
"","html-keyboard-response","28","35445","0.0-3.0-1.0-4.0-0.0","ym5qyfa22a","green","378.6650000256486","<p>You have finished block 1 of 4. You may now take up to a 30 second break. Press any key when you are ready to continue, or it will begin automatically after 30 seconds. Remember, press <b>Z</b> if the line is horizontal or <b>M</b> if the line is vertical.</p><p>You responded correctly on 100% of the trials which has earned you 2 points.</p>","90","","","","","","","","","","","","",""
"","html-keyboard-response","29","37446","0.0-3.0-1.0-4.0-1.0-0.0","ym5qyfa22a","green","null","<p>Place your fingers on the <b>Z</b> and <b>M</b> keys. The experiment will begin shortly.</p><p>&nbsp</p>","null","","","","","","","","","","","","",""
"","html-keyboard-response","30","38447","0.0-3.0-1.0-4.0-1.0-1.0","ym5qyfa22a","green","null","<p>Place your fingers on the <b>Z</b> and <b>M</b> keys. The experiment will begin shortly.</p><p>3</p>","null","","","","","","","","","","","","",""
"","html-keyboard-response","31","39448","0.0-3.0-1.0-4.0-1.0-2.0","ym5qyfa22a","green","null","<p>Place your fingers on the <b>Z</b> and <b>M</b> keys. The experiment will begin shortly.</p><p>2</p>","null","","","","","","","","","","","","",""
"","html-keyboard-response","32","40449","0.0-3.0-1.0-4.0-1.0-3.0","ym5qyfa22a","green","null","<p>Place your fingers on the <b>Z</b> and <b>M</b> keys. The experiment will begin shortly.</p><p>1</p>","null","","","","","","","","","","","","",""
"","html-keyboard-response","33","41264","0.0-3.0-1.0-0.1","ym5qyfa22a","green","null","<svg viewBox=""0 0 100 100"" > <path d=""M 50 52 L 50 48"" stroke=""black"" stroke-width="".5""/> <path d=""M 52 50 L 48 50"" stroke=""black"" stroke-width="".5""/>","null","","","","","","","","","","","","",""
"","html-keyboard-response","34","41595","0.0-3.0-1.0-1.1","ym5qyfa22a","green","329.61000001523644","<svg viewBox=""0 0 100 100"" ><circle cx=""50"" cy=""50"" r=""10"" fill=""none"" transform=""translate( 26  15)"" stroke=""red"" /><circle cx=""50"" cy=""50"" r=""10"" fill=""none"" transform=""translate(  0  30)"" stroke=""gold"" /><circle cx=""50"" cy=""50"" r=""10"" fill=""none"" transform=""translate(-26  15)"" stroke=""blueviolet"" /><circle cx=""50"" cy=""50"" r=""10"" fill=""none"" transform=""translate(-26 -15)"" stroke=""black"" /><circle cx=""50"" cy=""50"" r=""10"" fill=""none"" transform=""translate(  0 -30)"" stroke=""cyan"" /><circle cx=""50"" cy=""50"" r=""10"" fill=""none"" transform=""translate( 26 -15)"" stroke=""magenta"" /><path d=""M 50 57 L 50 43"" stroke=""black"" transform=""translate( 26  15) rotate(90 50 50)""/><path d=""M 50 57 L 50 43"" stroke=""black"" transform=""translate(  0  30) rotate(45 50 50)""/><path d=""M 50 57 L 50 43"" stroke=""black"" transform=""translate(-26  15) rotate(-45 50 50)""/><path d=""M 50 57 L 50 43"" stroke=""black"" transform=""translate(-26 -15) rotate(-45 50 50)""/><path d=""M 50 57 L 50 43"" stroke=""black"" transform=""translate(  0 -30) rotate(45 50 50)""/><path d=""M 50 57 L 50 43"" stroke=""black"" transform=""translate( 26 -15) rotate(-45 50 50)""/><path d=""M 50 52 L 50 48"" stroke=""black"" stroke-width="".5""/> <path d=""M 52 50 L 48 50"" stroke=""black"" stroke-width="".5""/></svg>","90","","","","","","VDACtest","red","1st","horizontal","true","low","",""
"","html-keyboard-response","35","44097","0.0-3.0-1.0-2.1","ym5qyfa22a","green","null","<p style=""font-size:300%;""> + 2 points.</p><p style=""font-size:300%"">Total: 4 points.</p>","null","","","","","","","","","","","","4",""
"","html-keyboard-response","36","46612","0.0-3.0-1.0-4.1-0.1","ym5qyfa22a","green","1512.830000021495","<p>You have finished block 2 of 4. You may now take up to a 30 second break. Press any key when you are ready to continue, or it will begin automatically after 30 seconds. Remember, press <b>Z</b> if the line is horizontal or <b>M</b> if the line is vertical.</p><p>You responded correctly on 100% of the trials which has earned you 4 points.</p>","90","","","","","","","","","","","","",""
"","html-keyboard-response","37","48613","0.0-3.0-1.0-4.1-1.1-0.1","ym5qyfa22a","green","null","<p>Place your fingers on the <b>Z</b> and <b>M</b> keys. The experiment will begin shortly.</p><p>&nbsp</p>","null","","","","","","","","","","","","",""
"","html-keyboard-response","38","49614","0.0-3.0-1.0-4.1-1.1-1.1","ym5qyfa22a","green","null","<p>Place your fingers on the <b>Z</b> and <b>M</b> keys. The experiment will begin shortly.</p><p>3</p>","null","","","","","","","","","","","","",""
"","html-keyboard-response","39","50616","0.0-3.0-1.0-4.1-1.1-2.1","ym5qyfa22a","green","null","<p>Place your fingers on the <b>Z</b> and <b>M</b> keys. The experiment will begin shortly.</p><p>2</p>","null","","","","","","","","","","","","",""
"","html-keyboard-response","40","51617","0.0-3.0-1.0-4.1-1.1-3.1","ym5qyfa22a","green","null","<p>Place your fingers on the <b>Z</b> and <b>M</b> keys. The experiment will begin shortly.</p><p>1</p>","null","","","","","","","","","","","","",""
"","html-keyboard-response","41","52433","0.0-3.0-1.0-0.2","ym5qyfa22a","green","null","<svg viewBox=""0 0 100 100"" > <path d=""M 50 52 L 50 48"" stroke=""black"" stroke-width="".5""/> <path d=""M 52 50 L 48 50"" stroke=""black"" stroke-width="".5""/>","null","","","","","","","","","","","","",""
"","html-keyboard-response","42","52681","0.0-3.0-1.0-1.2","ym5qyfa22a","green","247.0999999786727","<svg viewBox=""0 0 100 100"" ><circle cx=""50"" cy=""50"" r=""10"" fill=""none"" transform=""translate( 26  15)"" stroke=""cyan"" /><circle cx=""50"" cy=""50"" r=""10"" fill=""none"" transform=""translate(  0  30)"" stroke=""magenta"" /><circle cx=""50"" cy=""50"" r=""10"" fill=""none"" transform=""translate(-26  15)"" stroke=""red"" /><circle cx=""50"" cy=""50"" r=""10"" fill=""none"" transform=""translate(-26 -15)"" stroke=""black"" /><circle cx=""50"" cy=""50"" r=""10"" fill=""none"" transform=""translate(  0 -30)"" stroke=""gold"" /><circle cx=""50"" cy=""50"" r=""10"" fill=""none"" transform=""translate( 26 -15)"" stroke=""blueviolet"" /><path d=""M 50 57 L 50 43"" stroke=""black"" transform=""translate( 26  15) rotate(45 50 50)""/><path d=""M 50 57 L 50 43"" stroke=""black"" transform=""translate(  0  30) rotate(45 50 50)""/><path d=""M 50 57 L 50 43"" stroke=""black"" transform=""translate(-26  15) rotate(0 50 50)""/><path d=""M 50 57 L 50 43"" stroke=""black"" transform=""translate(-26 -15) rotate(-45 50 50)""/><path d=""M 50 57 L 50 43"" stroke=""black"" transform=""translate(  0 -30) rotate(-45 50 50)""/><path d=""M 50 57 L 50 43"" stroke=""black"" transform=""translate( 26 -15) rotate(45 50 50)""/><path d=""M 50 52 L 50 48"" stroke=""black"" stroke-width="".5""/> <path d=""M 52 50 L 48 50"" stroke=""black"" stroke-width="".5""/></svg>","90","","","","","","VDACtest","red","3rd","vertical","false","low","",""
"","html-keyboard-response","43","55184","0.0-3.0-1.0-2.2","ym5qyfa22a","green","null","<p style=""font-size:300%;"">Miss.</p><p style=""font-size:300%"">Total: 4 points.</p>","null","","","","","","","","","","","","4",""
"","html-keyboard-response","44","56847","0.0-3.0-1.0-4.2-0.2","ym5qyfa22a","green","661.3049999577925","<p>You have finished block 3 of 4. You may now take up to a 30 second break. Press any key when you are ready to continue, or it will begin automatically after 30 seconds. Remember, press <b>Z</b> if the line is horizontal or <b>M</b> if the line is vertical.</p><p>You responded correctly on 67% of the trials which has earned you 4 points.</p>","90","","","","","","","","","","","","",""
"","html-keyboard-response","45","58849","0.0-3.0-1.0-4.2-1.2-0.2","ym5qyfa22a","green","null","<p>Place your fingers on the <b>Z</b> and <b>M</b> keys. The experiment will begin shortly.</p><p>&nbsp</p>","null","","","","","","","","","","","","",""
"","html-keyboard-response","46","59850","0.0-3.0-1.0-4.2-1.2-1.2","ym5qyfa22a","green","null","<p>Place your fingers on the <b>Z</b> and <b>M</b> keys. The experiment will begin shortly.</p><p>3</p>","null","","","","","","","","","","","","",""
"","html-keyboard-response","47","60851","0.0-3.0-1.0-4.2-1.2-2.2","ym5qyfa22a","green","null","<p>Place your fingers on the <b>Z</b> and <b>M</b> keys. The experiment will begin shortly.</p><p>2</p>","null","","","","","","","","","","","","",""
"","html-keyboard-response","48","61852","0.0-3.0-1.0-4.2-1.2-3.2","ym5qyfa22a","green","null","<p>Place your fingers on the <b>Z</b> and <b>M</b> keys. The experiment will begin shortly.</p><p>1</p>","null","","","","","","","","","","","","",""
"","html-keyboard-response","49","62667","0.0-3.0-1.0-0.3","ym5qyfa22a","green","null","<svg viewBox=""0 0 100 100"" > <path d=""M 50 52 L 50 48"" stroke=""black"" stroke-width="".5""/> <path d=""M 52 50 L 48 50"" stroke=""black"" stroke-width="".5""/>","null","","","","","","","","","","","","",""
"","html-keyboard-response","50","62716","0.0-3.0-1.0-1.3","ym5qyfa22a","green","47.77000000467524","<svg viewBox=""0 0 100 100"" ><circle cx=""50"" cy=""50"" r=""10"" fill=""none"" transform=""translate( 26  15)"" stroke=""black"" /><circle cx=""50"" cy=""50"" r=""10"" fill=""none"" transform=""translate(  0  30)"" stroke=""green"" /><circle cx=""50"" cy=""50"" r=""10"" fill=""none"" transform=""translate(-26  15)"" stroke=""gold"" /><circle cx=""50"" cy=""50"" r=""10"" fill=""none"" transform=""translate(-26 -15)"" stroke=""blueviolet"" /><circle cx=""50"" cy=""50"" r=""10"" fill=""none"" transform=""translate(  0 -30)"" stroke=""magenta"" /><circle cx=""50"" cy=""50"" r=""10"" fill=""none"" transform=""translate( 26 -15)"" stroke=""cyan"" /><path d=""M 50 57 L 50 43"" stroke=""black"" transform=""translate( 26  15) rotate(-45 50 50)""/><path d=""M 50 57 L 50 43"" stroke=""black"" transform=""translate(  0  30) rotate(90 50 50)""/><path d=""M 50 57 L 50 43"" stroke=""black"" transform=""translate(-26  15) rotate(45 50 50)""/><path d=""M 50 57 L 50 43"" stroke=""black"" transform=""translate(-26 -15) rotate(-45 50 50)""/><path d=""M 50 57 L 50 43"" stroke=""black"" transform=""translate(  0 -30) rotate(45 50 50)""/><path d=""M 50 57 L 50 43"" stroke=""black"" transform=""translate( 26 -15) rotate(45 50 50)""/><path d=""M 50 52 L 50 48"" stroke=""black"" stroke-width="".5""/> <path d=""M 52 50 L 48 50"" stroke=""black"" stroke-width="".5""/></svg>","90","","","","","","VDACtest","green","2nd","horizontal","true","high","",""
"","html-keyboard-response","51","65220","0.0-3.0-1.0-2.3","ym5qyfa22a","green","null","<p style=""font-size:300%;""> + 10 points.</p><p style=""font-size:300%"">Total: 14 points.</p>","null","","","","","","","","","","","","14",""
"","call-function","52","66222","0.0-4.0","ym5qyfa22a","green","","","","","","","","","","","","","","","",""
"","instructions","53","72182","0.0-5.0-0.0","ym5qyfa22a","green","5959.740000020247","","","","","","","[{""page_index"":0,""viewing_time"":5047.69999999553},{""page_index"":1,""viewing_time"":502.93000001693144},{""page_index"":2,""viewing_time"":218.11499999603257},{""page_index"":3,""viewing_time"":190.8699999912642}]","","","","","","","",""
"","html-keyboard-response","54","72355","0.0-5.0-1.0-0.0","ym5qyfa22a","green","172.69999999552965","<p>Place your fingers on the <b>Z</b> and <b>M</b> keys. The experiment will begin shortly.</p><p>&nbsp</p>","39","","","","","","","","","","","","",""
"","html-keyboard-response","55","72518","0.0-5.0-1.0-1.0","ym5qyfa22a","green","162.7000000444241","<p>Place your fingers on the <b>Z</b> and <b>M</b> keys. The experiment will begin shortly.</p><p>3</p>","39","","","","","","","","","","","","",""
"","html-keyboard-response","56","73519","0.0-5.0-1.0-2.0","ym5qyfa22a","green","null","<p>Place your fingers on the <b>Z</b> and <b>M</b> keys. The experiment will begin shortly.</p><p>2</p>","null","","","","","","","","","","","","",""
"","html-keyboard-response","57","74520","0.0-5.0-1.0-3.0","ym5qyfa22a","green","null","<p>Place your fingers on the <b>Z</b> and <b>M</b> keys. The experiment will begin shortly.</p><p>1</p>","null","","","","","","","","","","","","",""
"","html-keyboard-response","58","75337","0.0-5.0-2.0-0.0","ym5qyfa22a","green","null","<svg viewBox=""0 0 100 100"" > <path d=""M 50 52 L 50 48"" stroke=""black"" stroke-width="".5""/> <path d=""M 52 50 L 48 50"" stroke=""black"" stroke-width="".5""/>","null","","","","","","","","","","","","",""
"","html-keyboard-response","59","75839","0.0-5.0-2.0-1.0-0.0","ym5qyfa22a","green","null","<p style=""color: black; text-align:center; font-family: BACS1; font-size:1000%;"">i</p>","null","","","","","","","","","","","","",""
"","html-keyboard-response","60","76339","0.0-5.0-2.0-1.0-1.0","ym5qyfa22a","green","null","<p style=""color: black; text-align:center; font-family: BACS2; font-size:1000%;"">S</p>","null","","","","","","","","","","","","",""
"","html-keyboard-response","61","76840","0.0-5.0-2.0-1.0-2.0","ym5qyfa22a","green","null","<p style=""color: black; text-align:center; font-family: BACS2; font-size:1000%;"">E</p>","null","","","","","","","","","","","","",""
"","html-keyboard-response","62","77342","0.0-5.0-2.0-1.0-3.0","ym5qyfa22a","green","null","<svg xmlns=""http://www.w3.org/2000/svg"" width=""500"" height=""500"" viewBox=""-5 -5 20 20""> <rect x=""0"" y=""0"" width=""10"" height=""10"" /><path fill=""#FFF"" d=""M 0,1 H 10 v 1 H 0 z m 0,2 H 10 v 1 H 0 zm 0,2 H 10 v 1 H 0 zm 0,2 H 10 v 1 H 0 zm 0,2 H 10 v 1 H 0 zM 1,0 V 10 h 1 V 0 zm 2,0 V 10 h 1 V 0 zm 2,0 V 10 h 1 V 0 zm 2,0 V 10 h 1 V 0 zm 2,0 V 10 h 1 V 0 z""/></svg>","null","","","","","","","","","","","","",""
"","html-keyboard-response","63","77380","0.0-5.0-2.0-1.0-4.0","ym5qyfa22a","green","37.08000003825873","<p style=""color: black; text-align:center; font-family: BACS1; font-size:1000%;"">i</p>","90","","","","","","RSVPtraining","","1st","","true","","",""
"","html-keyboard-response","64","79880","0.0-5.0-2.0-2.0","ym5qyfa22a","green","null","<p style=""font-size:300%;"">Correct!</p>","null","","","","","","","","","","","","",""
"","html-keyboard-response","65","81697","0.0-5.0-2.0-0.1","ym5qyfa22a","green","null","<svg viewBox=""0 0 100 100"" > <path d=""M 50 52 L 50 48"" stroke=""black"" stroke-width="".5""/> <path d=""M 52 50 L 48 50"" stroke=""black"" stroke-width="".5""/>","null","","","","","","","","","","","","",""
"","html-keyboard-response","66","82199","0.0-5.0-2.0-1.1-0.1","ym5qyfa22a","green","null","<p style=""color: black; text-align:center; font-family: BACS2; font-size:1000%;"">f</p>","null","","","","","","","","","","","","",""
"","html-keyboard-response","67","82701","0.0-5.0-2.0-1.1-1.1","ym5qyfa22a","green","null","<p style=""color: black; text-align:center; font-family: BACS1; font-size:1000%;"">M</p>","null","","","","","","","","","","","","",""
"","html-keyboard-response","68","83203","0.0-5.0-2.0-1.1-2.1","ym5qyfa22a","green","null","<p style=""color: black; text-align:center; font-family: BACS2; font-size:1000%;"">D</p>","null","","","","","","","","","","","","",""
"","html-keyboard-response","69","83704","0.0-5.0-2.0-1.1-3.1","ym5qyfa22a","green","null","<svg xmlns=""http://www.w3.org/2000/svg"" width=""500"" height=""500"" viewBox=""-5 -5 20 20""> <rect x=""0"" y=""0"" width=""10"" height=""10"" /><path fill=""#FFF"" d=""M 0,1 H 10 v 1 H 0 z m 0,2 H 10 v 1 H 0 zm 0,2 H 10 v 1 H 0 zm 0,2 H 10 v 1 H 0 zm 0,2 H 10 v 1 H 0 zM 1,0 V 10 h 1 V 0 zm 2,0 V 10 h 1 V 0 zm 2,0 V 10 h 1 V 0 zm 2,0 V 10 h 1 V 0 zm 2,0 V 10 h 1 V 0 z""/></svg>","null","","","","","","","","","","","","",""
"","html-keyboard-response","70","83864","0.0-5.0-2.0-1.1-4.1","ym5qyfa22a","green","159.71000003628433","<p style=""color: black; text-align:center; font-family: BACS1; font-size:1000%;"">M</p>","90","","","","","","RSVPtraining","","2nd","","true","","",""
"","html-keyboard-response","71","86366","0.0-5.0-2.0-2.1","ym5qyfa22a","green","null","<p style=""font-size:300%;"">Correct!</p>","null","","","","","","","","","","","","",""
"","call-function","72","87367","0.0-5.0-3.0","ym5qyfa22a","green","","","","","","","","","","","","","","","",""
"","html-keyboard-response","73","88196","0.0-5.0-4.0","ym5qyfa22a","green","827.8850000351667","<p>You have now finished the training exercise. If you would like to repeat the instructions and training exercise, press R. If you are ready to continue to the task, press C. </p>","67","","","","","","","","","","","","",""
"","html-keyboard-response","74","90197","0.0-6.0-0.0","ym5qyfa22a","green","null","<p>Place your fingers on the <b>Z</b> and <b>M</b> keys. The experiment will begin shortly.</p><p>&nbsp</p>","null","","","","","","","","","","","","",""
"","html-keyboard-response","75","91199","0.0-6.0-1.0","ym5qyfa22a","green","null","<p>Place your fingers on the <b>Z</b> and <b>M</b> keys. The experiment will begin shortly.</p><p>3</p>","null","","","","","","","","","","","","",""
"","html-keyboard-response","76","92200","0.0-6.0-2.0","ym5qyfa22a","green","null","<p>Place your fingers on the <b>Z</b> and <b>M</b> keys. The experiment will begin shortly.</p><p>2</p>","null","","","","","","","","","","","","",""
"","html-keyboard-response","77","93202","0.0-6.0-3.0","ym5qyfa22a","green","null","<p>Place your fingers on the <b>Z</b> and <b>M</b> keys. The experiment will begin shortly.</p><p>1</p>","null","","","","","","","","","","","","",""
"","html-keyboard-response","78","94019","0.0-7.0-0.0-0.0","ym5qyfa22a","green","null","<svg viewBox=""0 0 100 100"" > <path d=""M 50 52 L 50 48"" stroke=""black"" stroke-width="".5""/> <path d=""M 52 50 L 48 50"" stroke=""black"" stroke-width="".5""/>","null","","","","","","","","","","","","",""
"","html-keyboard-response","79","94520","0.0-7.0-0.0-1.0-0.0","ym5qyfa22a","green","null","<p style=""color: green; text-align:center; font-family: BACS2; font-size:1000%;"">g</p>","null","","","","","","","","","","","","",""
"","html-keyboard-response","80","95022","0.0-7.0-0.0-1.0-1.0","ym5qyfa22a","green","null","<p style=""color: black; text-align:center; font-family: BACS1; font-size:1000%;"">T</p>","null","","","","","","","","","","","","",""
"","html-keyboard-response","81","95522","0.0-7.0-0.0-1.0-2.0","ym5qyfa22a","green","null","<p style=""color: black; text-align:center; font-family: BACS1; font-size:1000%;"">K</p>","null","","","","","","","","","","","","",""
"","html-keyboard-response","82","96023","0.0-7.0-0.0-1.0-3.0","ym5qyfa22a","green","null","<svg xmlns=""http://www.w3.org/2000/svg"" width=""500"" height=""500"" viewBox=""-5 -5 20 20""> <rect x=""0"" y=""0"" width=""10"" height=""10"" /><path fill=""#FFF"" d=""M 0,1 H 10 v 1 H 0 z m 0,2 H 10 v 1 H 0 zm 0,2 H 10 v 1 H 0 zm 0,2 H 10 v 1 H 0 zm 0,2 H 10 v 1 H 0 zM 1,0 V 10 h 1 V 0 zm 2,0 V 10 h 1 V 0 zm 2,0 V 10 h 1 V 0 zm 2,0 V 10 h 1 V 0 zm 2,0 V 10 h 1 V 0 z""/></svg>","null","","","","","","","","","","","","",""
"","html-keyboard-response","83","96194","0.0-7.0-0.0-1.0-4.0","ym5qyfa22a","green","170.2050000312738","<p style=""color: black; text-align:center; font-family: BACS1; font-size:1000%;"">A</p>","90","","","","","","RSVPtest","green","new","","false","high","","1st"
"","html-keyboard-response","84","98696","0.0-7.0-0.0-2.0","ym5qyfa22a","green","null","<p style=""font-size:300%;"">Miss.</p>","null","","","","","","","","","","","","",""
"","html-keyboard-response","85","101294","0.0-7.0-0.0-4.0-0.0","ym5qyfa22a","green","1596.2800000561401","<p>You have finished block 1 of 4. You may now take up to a 30 second break. Press any key when you are ready to continue, or it will begin automatically after 30 seconds. Remember, press <b>Z</b> if the test character is the same as a previous character in the set or press <b>M</b> if the character is different from the set.</p><p>You responded correctly on 0% of the trials.</p>","90","","","","","","","","","","","","",""
"","html-keyboard-response","86","103295","0.0-7.0-0.0-4.0-1.0-0.0","ym5qyfa22a","green","null","<p>Place your fingers on the <b>Z</b> and <b>M</b> keys. The experiment will begin shortly.</p><p>&nbsp</p>","null","","","","","","","","","","","","",""
"","html-keyboard-response","87","104296","0.0-7.0-0.0-4.0-1.0-1.0","ym5qyfa22a","green","null","<p>Place your fingers on the <b>Z</b> and <b>M</b> keys. The experiment will begin shortly.</p><p>3</p>","null","","","","","","","","","","","","",""
"","html-keyboard-response","88","105298","0.0-7.0-0.0-4.0-1.0-2.0","ym5qyfa22a","green","null","<p>Place your fingers on the <b>Z</b> and <b>M</b> keys. The experiment will begin shortly.</p><p>2</p>","null","","","","","","","","","","","","",""
"","html-keyboard-response","89","106299","0.0-7.0-0.0-4.0-1.0-3.0","ym5qyfa22a","green","null","<p>Place your fingers on the <b>Z</b> and <b>M</b> keys. The experiment will begin shortly.</p><p>1</p>","null","","","","","","","","","","","","",""
"","html-keyboard-response","90","107115","0.0-7.0-0.0-0.1","ym5qyfa22a","green","null","<svg viewBox=""0 0 100 100"" > <path d=""M 50 52 L 50 48"" stroke=""black"" stroke-width="".5""/> <path d=""M 52 50 L 48 50"" stroke=""black"" stroke-width="".5""/>","null","","","","","","","","","","","","",""
"","html-keyboard-response","91","107617","0.0-7.0-0.0-1.1-0.1","ym5qyfa22a","green","null","<p style=""color: black; text-align:center; font-family: BACS2; font-size:1000%;"">O</p>","null","","","","","","","","","","","","",""
"","html-keyboard-response","92","108119","0.0-7.0-0.0-1.1-1.1","ym5qyfa22a","green","null","<p style=""color: black; text-align:center; font-family: BACS2; font-size:1000%;"">b</p>","null","","","","","","","","","","","","",""
"","html-keyboard-response","93","108620","0.0-7.0-0.0-1.1-2.1","ym5qyfa22a","green","null","<p style=""color: black; text-align:center; font-family: BACS1; font-size:1000%;"">G</p>","null","","","","","","","","","","","","",""
"","html-keyboard-response","94","109121","0.0-7.0-0.0-1.1-3.1","ym5qyfa22a","green","null","<svg xmlns=""http://www.w3.org/2000/svg"" width=""500"" height=""500"" viewBox=""-5 -5 20 20""> <rect x=""0"" y=""0"" width=""10"" height=""10"" /><path fill=""#FFF"" d=""M 0,1 H 10 v 1 H 0 z m 0,2 H 10 v 1 H 0 zm 0,2 H 10 v 1 H 0 zm 0,2 H 10 v 1 H 0 zm 0,2 H 10 v 1 H 0 zM 1,0 V 10 h 1 V 0 zm 2,0 V 10 h 1 V 0 zm 2,0 V 10 h 1 V 0 zm 2,0 V 10 h 1 V 0 zm 2,0 V 10 h 1 V 0 z""/></svg>","null","","","","","","","","","","","","",""
"","html-keyboard-response","95","110109","0.0-7.0-0.0-1.1-4.1","ym5qyfa22a","green","987.1400000411086","<p style=""color: black; text-align:center; font-family: BACS2; font-size:1000%;"">x</p>","90","","","","","","RSVPtest","none","new","","false","none","","none"
"","html-keyboard-response","96","112612","0.0-7.0-0.0-2.1","ym5qyfa22a","green","null","<p style=""font-size:300%;"">Miss.</p>","null","","","","","","","","","","","","",""
"","html-keyboard-response","97","116493","0.0-7.0-0.0-4.1-0.1","ym5qyfa22a","green","2880.055000016","<p>You have finished block 2 of 4. You may now take up to a 30 second break. Press any key when you are ready to continue, or it will begin automatically after 30 seconds. Remember, press <b>Z</b> if the test character is the same as a previous character in the set or press <b>M</b> if the character is different from the set.</p><p>You responded correctly on 0% of the trials.</p>","90","","","","","","","","","","","","",""
"","html-keyboard-response","98","118494","0.0-7.0-0.0-4.1-1.1-0.1","ym5qyfa22a","green","null","<p>Place your fingers on the <b>Z</b> and <b>M</b> keys. The experiment will begin shortly.</p><p>&nbsp</p>","null","","","","","","","","","","","","",""
"","html-keyboard-response","99","119495","0.0-7.0-0.0-4.1-1.1-1.1","ym5qyfa22a","green","null","<p>Place your fingers on the <b>Z</b> and <b>M</b> keys. The experiment will begin shortly.</p><p>3</p>","null","","","","","","","","","","","","",""
"","html-keyboard-response","100","120496","0.0-7.0-0.0-4.1-1.1-2.1","ym5qyfa22a","green","null","<p>Place your fingers on the <b>Z</b> and <b>M</b> keys. The experiment will begin shortly.</p><p>2</p>","null","","","","","","","","","","","","",""
"","html-keyboard-response","101","121497","0.0-7.0-0.0-4.1-1.1-3.1","ym5qyfa22a","green","null","<p>Place your fingers on the <b>Z</b> and <b>M</b> keys. The experiment will begin shortly.</p><p>1</p>","null","","","","","","","","","","","","",""
"","html-keyboard-response","102","122313","0.0-7.0-0.0-0.2","ym5qyfa22a","green","null","<svg viewBox=""0 0 100 100"" > <path d=""M 50 52 L 50 48"" stroke=""black"" stroke-width="".5""/> <path d=""M 52 50 L 48 50"" stroke=""black"" stroke-width="".5""/>","null","","","","","","","","","","","","",""
"","html-keyboard-response","103","122814","0.0-7.0-0.0-1.2-0.2","ym5qyfa22a","green","null","<p style=""color: red; text-align:center; font-family: BACS2; font-size:1000%;"">l</p>","null","","","","","","","","","","","","",""
"","html-keyboard-response","104","123315","0.0-7.0-0.0-1.2-1.2","ym5qyfa22a","green","null","<p style=""color: black; text-align:center; font-family: BACS2; font-size:1000%;"">L</p>","null","","","","","","","","","","","","",""
"","html-keyboard-response","105","123816","0.0-7.0-0.0-1.2-2.2","ym5qyfa22a","green","null","<p style=""color: black; text-align:center; font-family: BACS1; font-size:1000%;"">a</p>","null","","","","","","","","","","","","",""
"","html-keyboard-response","106","124317","0.0-7.0-0.0-1.2-3.2","ym5qyfa22a","green","null","<svg xmlns=""http://www.w3.org/2000/svg"" width=""500"" height=""500"" viewBox=""-5 -5 20 20""> <rect x=""0"" y=""0"" width=""10"" height=""10"" /><path fill=""#FFF"" d=""M 0,1 H 10 v 1 H 0 z m 0,2 H 10 v 1 H 0 zm 0,2 H 10 v 1 H 0 zm 0,2 H 10 v 1 H 0 zm 0,2 H 10 v 1 H 0 zM 1,0 V 10 h 1 V 0 zm 2,0 V 10 h 1 V 0 zm 2,0 V 10 h 1 V 0 zm 2,0 V 10 h 1 V 0 zm 2,0 V 10 h 1 V 0 z""/></svg>","null","","","","","","","","","","","","",""
"","html-keyboard-response","107","124566","0.0-7.0-0.0-1.2-4.2","ym5qyfa22a","green","247.8199999895878","<p style=""color: black; text-align:center; font-family: BACS2; font-size:1000%;"">L</p>","90","","","","","","RSVPtest","red","2nd","","true","low","","1st"
"","html-keyboard-response","108","127068","0.0-7.0-0.0-2.2","ym5qyfa22a","green","null","<p style=""font-size:300%;"">Correct!</p>","null","","","","","","","","","","","","",""
"","html-keyboard-response","109","158071","0.0-7.0-0.0-4.2-0.2","ym5qyfa22a","green","null","<p>You have finished block 3 of 4. You may now take up to a 30 second break. Press any key when you are ready to continue, or it will begin automatically after 30 seconds. Remember, press <b>Z</b> if the test character is the same as a previous character in the set or press <b>M</b> if the character is different from the set.</p><p>You responded correctly on 33% of the trials.</p>","null","","","","","","","","","","","","",""
"","html-keyboard-response","110","160073","0.0-7.0-0.0-4.2-1.2-0.2","ym5qyfa22a","green","null","<p>Place your fingers on the <b>Z</b> and <b>M</b> keys. The experiment will begin shortly.</p><p>&nbsp</p>","null","","","","","","","","","","","","",""
"","html-keyboard-response","111","161074","0.0-7.0-0.0-4.2-1.2-1.2","ym5qyfa22a","green","null","<p>Place your fingers on the <b>Z</b> and <b>M</b> keys. The experiment will begin shortly.</p><p>3</p>","null","","","","","","","","","","","","",""
"","html-keyboard-response","112","162075","0.0-7.0-0.0-4.2-1.2-2.2","ym5qyfa22a","green","null","<p>Place your fingers on the <b>Z</b> and <b>M</b> keys. The experiment will begin shortly.</p><p>2</p>","null","","","","","","","","","","","","",""
"","html-keyboard-response","113","163076","0.0-7.0-0.0-4.2-1.2-3.2","ym5qyfa22a","green","null","<p>Place your fingers on the <b>Z</b> and <b>M</b> keys. The experiment will begin shortly.</p><p>1</p>","null","","","","","","","","","","","","",""
"","html-keyboard-response","114","163892","0.0-7.0-0.0-0.3","ym5qyfa22a","green","null","<svg viewBox=""0 0 100 100"" > <path d=""M 50 52 L 50 48"" stroke=""black"" stroke-width="".5""/> <path d=""M 52 50 L 48 50"" stroke=""black"" stroke-width="".5""/>","null","","","","","","","","","","","","",""
"","html-keyboard-response","115","164394","0.0-7.0-0.0-1.3-0.3","ym5qyfa22a","green","null","<p style=""color: black; text-align:center; font-family: BACS1; font-size:1000%;"">V</p>","null","","","","","","","","","","","","",""
"","html-keyboard-response","116","164895","0.0-7.0-0.0-1.3-1.3","ym5qyfa22a","green","null","<p style=""color: black; text-align:center; font-family: BACS2; font-size:1000%;"">u</p>","null","","","","","","","","","","","","",""
"","html-keyboard-response","117","165396","0.0-7.0-0.0-1.3-2.3","ym5qyfa22a","green","null","<p style=""color: black; text-align:center; font-family: BACS2; font-size:1000%;"">B</p>","null","","","","","","","","","","","","",""
"","html-keyboard-response","118","165897","0.0-7.0-0.0-1.3-3.3","ym5qyfa22a","green","null","<svg xmlns=""http://www.w3.org/2000/svg"" width=""500"" height=""500"" viewBox=""-5 -5 20 20""> <rect x=""0"" y=""0"" width=""10"" height=""10"" /><path fill=""#FFF"" d=""M 0,1 H 10 v 1 H 0 z m 0,2 H 10 v 1 H 0 zm 0,2 H 10 v 1 H 0 zm 0,2 H 10 v 1 H 0 zm 0,2 H 10 v 1 H 0 zM 1,0 V 10 h 1 V 0 zm 2,0 V 10 h 1 V 0 zm 2,0 V 10 h 1 V 0 zm 2,0 V 10 h 1 V 0 zm 2,0 V 10 h 1 V 0 z""/></svg>","null","","","","","","","","","","","","",""
"","html-keyboard-response","119","168398","0.0-7.0-0.0-1.3-4.3","ym5qyfa22a","green","null","<p style=""color: black; text-align:center; font-family: BACS1; font-size:1000%;"">V</p>","null","","","","","","RSVPtest","none","1st","","null","none","","none"
"","html-keyboard-response","120","170901","0.0-7.0-0.0-2.3","ym5qyfa22a","green","null","<p style=""font-size:300%;"">Miss.</p>","null","","","","","","","","","","","","",""
"","call-function","121","171903","0.0-8.0-0.0","ym5qyfa22a","green","","","","","","","","","","","","","","","",""
"","survey-multi-choice","122","217127","0.0-8.0-1.0","ym5qyfa22a","green","45223.70500001125","","","","{""Q0"":""Yes""}","[0]","","","","","","","","","",""
"","survey-multi-select","123","218789","0.0-8.0-2.0","ym5qyfa22a","green","1654.4099999591708","","","","{""Q0"":[""Association - I thought about other things that could relate to characters.""]}","[0]","","","","","","","","","",""
