"success","trial_type","trial_index","time_elapsed","internal_node_id","subject","condition","rt","url","responses","question_order","view_history","stimulus","key_press","trialType","color","tgtPosition","orientation","correct","rewardType","reward","value","colorPosition"
"true","fullscreen","0","3195","0.0-0.0-0.0","fudttrkjtv","green","","","","","","","","","","","","","","","",""
"","external-html","1","6727","0.0-0.0-1.0","fudttrkjtv","green","3504.6499999989464","http://labs.psychology.illinois.edu/~jy57/memory_capture/supportFiles/Consent.html","","","","","","","","","","","","","",""
"","survey-text","2","9506","0.0-0.0-2.0","fudttrkjtv","green","2770.9150000009686","","{""Q0"":"""",""Q1"":""""}","","","","","","","","","","","","",""
"","survey-multi-select","3","10618","0.0-0.0-3.0","fudttrkjtv","green","1110.500000002503","","{""Q0"":[]}","[0]","","","","","","","","","","","",""
"","survey-multi-choice","4","12328","0.0-0.0-4.0","fudttrkjtv","green","1704.2149999979301","","{""Q0"":"""",""Q1"":"""",""Q2"":""""}","[0,1,2]","","","","","","","","","","","",""
"","instructions","5","46299","0.0-1.0-0.0","fudttrkjtv","green","33965.33500000078","","","","[{""page_index"":0,""viewing_time"":25008.764999998675},{""page_index"":1,""viewing_time"":3310.7249999993655},{""page_index"":2,""viewing_time"":897.3000000005413},{""page_index"":3,""viewing_time"":4748.400000000402}]","","","","","","","","","","",""
"","html-keyboard-response","6","48301","0.0-1.0-1.0-0.0","fudttrkjtv","green","null","","","","","<p>Place your fingers on the <b>Z</b> and <b>M</b> keys. The experiment will begin shortly.</p><p>&nbsp</p>","null","","","","","","","","",""
"","html-keyboard-response","7","49302","0.0-1.0-1.0-1.0","fudttrkjtv","green","null","","","","","<p>Place your fingers on the <b>Z</b> and <b>M</b> keys. The experiment will begin shortly.</p><p>3</p>","null","","","","","","","","",""
"","html-keyboard-response","8","50303","0.0-1.0-1.0-2.0","fudttrkjtv","green","null","","","","","<p>Place your fingers on the <b>Z</b> and <b>M</b> keys. The experiment will begin shortly.</p><p>2</p>","null","","","","","","","","",""
"","html-keyboard-response","9","51304","0.0-1.0-1.0-3.0","fudttrkjtv","green","null","","","","","<p>Place your fingers on the <b>Z</b> and <b>M</b> keys. The experiment will begin shortly.</p><p>1</p>","null","","","","","","","","",""
"","html-keyboard-response","10","52100","0.0-1.0-2.0-0.0","fudttrkjtv","green","null","","","","","<svg viewBox=""0 0 100 100"" > <path d=""M 50 52 L 50 48"" stroke=""black"" stroke-width="".5""/> <path d=""M 52 50 L 48 50"" stroke=""black"" stroke-width="".5""/>","null","","","","","","","","",""
"","html-keyboard-response","11","52705","0.0-1.0-2.0-1.0","fudttrkjtv","green","603.6349999994854","","","","","<svg viewBox=""0 0 100 100"" ><text font-size=""10%"" text-anchor=""middle""  x=""50"" y=""98"">Press Z for horizontal or M for vertical</text><circle cx=""50"" cy=""50"" r=""10"" fill=""none"" transform=""translate( 26  15)"" stroke=""blueviolet"" /><circle cx=""50"" cy=""50"" r=""10"" fill=""none"" transform=""translate(  0  30)"" stroke=""red"" /><circle cx=""50"" cy=""50"" r=""10"" fill=""none"" transform=""translate(-26  15)"" stroke=""magenta"" /><circle cx=""50"" cy=""50"" r=""10"" fill=""none"" transform=""translate(-26 -15)"" stroke=""black"" /><circle cx=""50"" cy=""50"" r=""10"" fill=""none"" transform=""translate(  0 -30)"" stroke=""cyan"" /><circle cx=""50"" cy=""50"" r=""10"" fill=""none"" transform=""translate( 26 -15)"" stroke=""gold"" /><path d=""M 50 57 L 50 43"" stroke=""black"" transform=""translate( 26  15) rotate(45 50 50)""/><path d=""M 50 57 L 50 43"" stroke=""black"" transform=""translate(  0  30) rotate(0 50 50)""/><path d=""M 50 57 L 50 43"" stroke=""black"" transform=""translate(-26  15) rotate(45 50 50)""/><path d=""M 50 57 L 50 43"" stroke=""black"" transform=""translate(-26 -15) rotate(45 50 50)""/><path d=""M 50 57 L 50 43"" stroke=""black"" transform=""translate(  0 -30) rotate(45 50 50)""/><path d=""M 50 57 L 50 43"" stroke=""black"" transform=""translate( 26 -15) rotate(45 50 50)""/><path d=""M 50 52 L 50 48"" stroke=""black"" stroke-width="".5""/> <path d=""M 52 50 L 48 50"" stroke=""black"" stroke-width="".5""/></svg>","90","VDACtraining","red","1","vertical","false","","","",""
"","html-keyboard-response","12","55207","0.0-1.0-2.0-2.0","fudttrkjtv","green","null","","","","","<p style=""font-size:300%;"">Miss.</p> <p style=""font-size:300%;"">Wrong response.</p>","null","","","","","","","","",""
"","html-keyboard-response","13","57004","0.0-1.0-2.0-0.1","fudttrkjtv","green","null","","","","","<svg viewBox=""0 0 100 100"" > <path d=""M 50 52 L 50 48"" stroke=""black"" stroke-width="".5""/> <path d=""M 52 50 L 48 50"" stroke=""black"" stroke-width="".5""/>","null","","","","","","","","",""
"","html-keyboard-response","14","57638","0.0-1.0-2.0-1.1","fudttrkjtv","green","632.7700000001641","","","","","<svg viewBox=""0 0 100 100"" ><text font-size=""10%"" text-anchor=""middle""  x=""50"" y=""98"">Press Z for horizontal or M for vertical</text><circle cx=""50"" cy=""50"" r=""10"" fill=""none"" transform=""translate( 26  15)"" stroke=""gold"" /><circle cx=""50"" cy=""50"" r=""10"" fill=""none"" transform=""translate(  0  30)"" stroke=""black"" /><circle cx=""50"" cy=""50"" r=""10"" fill=""none"" transform=""translate(-26  15)"" stroke=""cyan"" /><circle cx=""50"" cy=""50"" r=""10"" fill=""none"" transform=""translate(-26 -15)"" stroke=""blueviolet"" /><circle cx=""50"" cy=""50"" r=""10"" fill=""none"" transform=""translate(  0 -30)"" stroke=""magenta"" /><circle cx=""50"" cy=""50"" r=""10"" fill=""none"" transform=""translate( 26 -15)"" stroke=""green"" /><path d=""M 50 57 L 50 43"" stroke=""black"" transform=""translate( 26  15) rotate(-45 50 50)""/><path d=""M 50 57 L 50 43"" stroke=""black"" transform=""translate(  0  30) rotate(45 50 50)""/><path d=""M 50 57 L 50 43"" stroke=""black"" transform=""translate(-26  15) rotate(-45 50 50)""/><path d=""M 50 57 L 50 43"" stroke=""black"" transform=""translate(-26 -15) rotate(-45 50 50)""/><path d=""M 50 57 L 50 43"" stroke=""black"" transform=""translate(  0 -30) rotate(45 50 50)""/><path d=""M 50 57 L 50 43"" stroke=""black"" transform=""translate( 26 -15) rotate(90 50 50)""/><path d=""M 50 52 L 50 48"" stroke=""black"" stroke-width="".5""/> <path d=""M 52 50 L 48 50"" stroke=""black"" stroke-width="".5""/></svg>","90","VDACtraining","green","5","horizontal","true","","","",""
"","html-keyboard-response","15","60139","0.0-1.0-2.0-2.1","fudttrkjtv","green","null","","","","","<p style=""font-size:300%;"">Correct!</p>","null","","","","","","","","",""
"","html-keyboard-response","16","61935","0.0-1.0-2.0-0.2","fudttrkjtv","green","null","","","","","<svg viewBox=""0 0 100 100"" > <path d=""M 50 52 L 50 48"" stroke=""black"" stroke-width="".5""/> <path d=""M 52 50 L 48 50"" stroke=""black"" stroke-width="".5""/>","null","","","","","","","","",""
"","html-keyboard-response","17","62464","0.0-1.0-2.0-1.2","fudttrkjtv","green","527.9349999982514","","","","","<svg viewBox=""0 0 100 100"" ><text font-size=""10%"" text-anchor=""middle""  x=""50"" y=""98"">Press Z for horizontal or M for vertical</text><circle cx=""50"" cy=""50"" r=""10"" fill=""none"" transform=""translate( 26  15)"" stroke=""green"" /><circle cx=""50"" cy=""50"" r=""10"" fill=""none"" transform=""translate(  0  30)"" stroke=""gold"" /><circle cx=""50"" cy=""50"" r=""10"" fill=""none"" transform=""translate(-26  15)"" stroke=""cyan"" /><circle cx=""50"" cy=""50"" r=""10"" fill=""none"" transform=""translate(-26 -15)"" stroke=""black"" /><circle cx=""50"" cy=""50"" r=""10"" fill=""none"" transform=""translate(  0 -30)"" stroke=""blueviolet"" /><circle cx=""50"" cy=""50"" r=""10"" fill=""none"" transform=""translate( 26 -15)"" stroke=""magenta"" /><path d=""M 50 57 L 50 43"" stroke=""black"" transform=""translate( 26  15) rotate(0 50 50)""/><path d=""M 50 57 L 50 43"" stroke=""black"" transform=""translate(  0  30) rotate(-45 50 50)""/><path d=""M 50 57 L 50 43"" stroke=""black"" transform=""translate(-26  15) rotate(45 50 50)""/><path d=""M 50 57 L 50 43"" stroke=""black"" transform=""translate(-26 -15) rotate(45 50 50)""/><path d=""M 50 57 L 50 43"" stroke=""black"" transform=""translate(  0 -30) rotate(45 50 50)""/><path d=""M 50 57 L 50 43"" stroke=""black"" transform=""translate( 26 -15) rotate(45 50 50)""/><path d=""M 50 52 L 50 48"" stroke=""black"" stroke-width="".5""/> <path d=""M 52 50 L 48 50"" stroke=""black"" stroke-width="".5""/></svg>","77","VDACtraining","green","0","vertical","true","","","",""
"","html-keyboard-response","18","64965","0.0-1.0-2.0-2.2","fudttrkjtv","green","null","","","","","<p style=""font-size:300%;"">Correct!</p>","null","","","","","","","","",""
"","html-keyboard-response","19","66763","0.0-1.0-2.0-0.3","fudttrkjtv","green","null","","","","","<svg viewBox=""0 0 100 100"" > <path d=""M 50 52 L 50 48"" stroke=""black"" stroke-width="".5""/> <path d=""M 52 50 L 48 50"" stroke=""black"" stroke-width="".5""/>","null","","","","","","","","",""
"","html-keyboard-response","20","67417","0.0-1.0-2.0-1.3","fudttrkjtv","green","653.4000000028755","","","","","<svg viewBox=""0 0 100 100"" ><text font-size=""10%"" text-anchor=""middle""  x=""50"" y=""98"">Press Z for horizontal or M for vertical</text><circle cx=""50"" cy=""50"" r=""10"" fill=""none"" transform=""translate( 26  15)"" stroke=""cyan"" /><circle cx=""50"" cy=""50"" r=""10"" fill=""none"" transform=""translate(  0  30)"" stroke=""black"" /><circle cx=""50"" cy=""50"" r=""10"" fill=""none"" transform=""translate(-26  15)"" stroke=""green"" /><circle cx=""50"" cy=""50"" r=""10"" fill=""none"" transform=""translate(-26 -15)"" stroke=""blueviolet"" /><circle cx=""50"" cy=""50"" r=""10"" fill=""none"" transform=""translate(  0 -30)"" stroke=""gold"" /><circle cx=""50"" cy=""50"" r=""10"" fill=""none"" transform=""translate( 26 -15)"" stroke=""magenta"" /><path d=""M 50 57 L 50 43"" stroke=""black"" transform=""translate( 26  15) rotate(-45 50 50)""/><path d=""M 50 57 L 50 43"" stroke=""black"" transform=""translate(  0  30) rotate(-45 50 50)""/><path d=""M 50 57 L 50 43"" stroke=""black"" transform=""translate(-26  15) rotate(0 50 50)""/><path d=""M 50 57 L 50 43"" stroke=""black"" transform=""translate(-26 -15) rotate(-45 50 50)""/><path d=""M 50 57 L 50 43"" stroke=""black"" transform=""translate(  0 -30) rotate(-45 50 50)""/><path d=""M 50 57 L 50 43"" stroke=""black"" transform=""translate( 26 -15) rotate(45 50 50)""/><path d=""M 50 52 L 50 48"" stroke=""black"" stroke-width="".5""/> <path d=""M 52 50 L 48 50"" stroke=""black"" stroke-width="".5""/></svg>","77","VDACtraining","green","2","vertical","true","","","",""
"","html-keyboard-response","21","69919","0.0-1.0-2.0-2.3","fudttrkjtv","green","null","","","","","<p style=""font-size:300%;"">Correct!</p>","null","","","","","","","","",""
"","html-keyboard-response","22","71716","0.0-1.0-2.0-0.4","fudttrkjtv","green","null","","","","","<svg viewBox=""0 0 100 100"" > <path d=""M 50 52 L 50 48"" stroke=""black"" stroke-width="".5""/> <path d=""M 52 50 L 48 50"" stroke=""black"" stroke-width="".5""/>","null","","","","","","","","",""
"","html-keyboard-response","23","72235","0.0-1.0-2.0-1.4","fudttrkjtv","green","517.8500000001804","","","","","<svg viewBox=""0 0 100 100"" ><text font-size=""10%"" text-anchor=""middle""  x=""50"" y=""98"">Press Z for horizontal or M for vertical</text><circle cx=""50"" cy=""50"" r=""10"" fill=""none"" transform=""translate( 26  15)"" stroke=""magenta"" /><circle cx=""50"" cy=""50"" r=""10"" fill=""none"" transform=""translate(  0  30)"" stroke=""gold"" /><circle cx=""50"" cy=""50"" r=""10"" fill=""none"" transform=""translate(-26  15)"" stroke=""blueviolet"" /><circle cx=""50"" cy=""50"" r=""10"" fill=""none"" transform=""translate(-26 -15)"" stroke=""cyan"" /><circle cx=""50"" cy=""50"" r=""10"" fill=""none"" transform=""translate(  0 -30)"" stroke=""black"" /><circle cx=""50"" cy=""50"" r=""10"" fill=""none"" transform=""translate( 26 -15)"" stroke=""red"" /><path d=""M 50 57 L 50 43"" stroke=""black"" transform=""translate( 26  15) rotate(-45 50 50)""/><path d=""M 50 57 L 50 43"" stroke=""black"" transform=""translate(  0  30) rotate(45 50 50)""/><path d=""M 50 57 L 50 43"" stroke=""black"" transform=""translate(-26  15) rotate(45 50 50)""/><path d=""M 50 57 L 50 43"" stroke=""black"" transform=""translate(-26 -15) rotate(-45 50 50)""/><path d=""M 50 57 L 50 43"" stroke=""black"" transform=""translate(  0 -30) rotate(-45 50 50)""/><path d=""M 50 57 L 50 43"" stroke=""black"" transform=""translate( 26 -15) rotate(0 50 50)""/><path d=""M 50 52 L 50 48"" stroke=""black"" stroke-width="".5""/> <path d=""M 52 50 L 48 50"" stroke=""black"" stroke-width="".5""/></svg>","90","VDACtraining","red","5","vertical","false","","","",""
"","html-keyboard-response","24","74737","0.0-1.0-2.0-2.4","fudttrkjtv","green","null","","","","","<p style=""font-size:300%;"">Miss.</p> <p style=""font-size:300%;"">Wrong response.</p>","null","","","","","","","","",""
"","html-keyboard-response","25","76534","0.0-1.0-2.0-0.5","fudttrkjtv","green","null","","","","","<svg viewBox=""0 0 100 100"" > <path d=""M 50 52 L 50 48"" stroke=""black"" stroke-width="".5""/> <path d=""M 52 50 L 48 50"" stroke=""black"" stroke-width="".5""/>","null","","","","","","","","",""
"","html-keyboard-response","26","77061","0.0-1.0-2.0-1.5","fudttrkjtv","green","525.0599999999395","","","","","<svg viewBox=""0 0 100 100"" ><text font-size=""10%"" text-anchor=""middle""  x=""50"" y=""98"">Press Z for horizontal or M for vertical</text><circle cx=""50"" cy=""50"" r=""10"" fill=""none"" transform=""translate( 26  15)"" stroke=""black"" /><circle cx=""50"" cy=""50"" r=""10"" fill=""none"" transform=""translate(  0  30)"" stroke=""cyan"" /><circle cx=""50"" cy=""50"" r=""10"" fill=""none"" transform=""translate(-26  15)"" stroke=""blueviolet"" /><circle cx=""50"" cy=""50"" r=""10"" fill=""none"" transform=""translate(-26 -15)"" stroke=""red"" /><circle cx=""50"" cy=""50"" r=""10"" fill=""none"" transform=""translate(  0 -30)"" stroke=""magenta"" /><circle cx=""50"" cy=""50"" r=""10"" fill=""none"" transform=""translate( 26 -15)"" stroke=""gold"" /><path d=""M 50 57 L 50 43"" stroke=""black"" transform=""translate( 26  15) rotate(-45 50 50)""/><path d=""M 50 57 L 50 43"" stroke=""black"" transform=""translate(  0  30) rotate(45 50 50)""/><path d=""M 50 57 L 50 43"" stroke=""black"" transform=""translate(-26  15) rotate(-45 50 50)""/><path d=""M 50 57 L 50 43"" stroke=""black"" transform=""translate(-26 -15) rotate(0 50 50)""/><path d=""M 50 57 L 50 43"" stroke=""black"" transform=""translate(  0 -30) rotate(-45 50 50)""/><path d=""M 50 57 L 50 43"" stroke=""black"" transform=""translate( 26 -15) rotate(45 50 50)""/><path d=""M 50 52 L 50 48"" stroke=""black"" stroke-width="".5""/> <path d=""M 52 50 L 48 50"" stroke=""black"" stroke-width="".5""/></svg>","77","VDACtraining","red","3","vertical","true","","","",""
"","html-keyboard-response","27","79562","0.0-1.0-2.0-2.5","fudttrkjtv","green","null","","","","","<p style=""font-size:300%;"">Correct!</p>","null","","","","","","","","",""
"","html-keyboard-response","28","81359","0.0-1.0-2.0-0.6","fudttrkjtv","green","null","","","","","<svg viewBox=""0 0 100 100"" > <path d=""M 50 52 L 50 48"" stroke=""black"" stroke-width="".5""/> <path d=""M 52 50 L 48 50"" stroke=""black"" stroke-width="".5""/>","null","","","","","","","","",""
"","html-keyboard-response","29","81886","0.0-1.0-2.0-1.6","fudttrkjtv","green","526.5800000015588","","","","","<svg viewBox=""0 0 100 100"" ><text font-size=""10%"" text-anchor=""middle""  x=""50"" y=""98"">Press Z for horizontal or M for vertical</text><circle cx=""50"" cy=""50"" r=""10"" fill=""none"" transform=""translate( 26  15)"" stroke=""gold"" /><circle cx=""50"" cy=""50"" r=""10"" fill=""none"" transform=""translate(  0  30)"" stroke=""cyan"" /><circle cx=""50"" cy=""50"" r=""10"" fill=""none"" transform=""translate(-26  15)"" stroke=""blueviolet"" /><circle cx=""50"" cy=""50"" r=""10"" fill=""none"" transform=""translate(-26 -15)"" stroke=""green"" /><circle cx=""50"" cy=""50"" r=""10"" fill=""none"" transform=""translate(  0 -30)"" stroke=""black"" /><circle cx=""50"" cy=""50"" r=""10"" fill=""none"" transform=""translate( 26 -15)"" stroke=""magenta"" /><path d=""M 50 57 L 50 43"" stroke=""black"" transform=""translate( 26  15) rotate(45 50 50)""/><path d=""M 50 57 L 50 43"" stroke=""black"" transform=""translate(  0  30) rotate(-45 50 50)""/><path d=""M 50 57 L 50 43"" stroke=""black"" transform=""translate(-26  15) rotate(45 50 50)""/><path d=""M 50 57 L 50 43"" stroke=""black"" transform=""translate(-26 -15) rotate(90 50 50)""/><path d=""M 50 57 L 50 43"" stroke=""black"" transform=""translate(  0 -30) rotate(-45 50 50)""/><path d=""M 50 57 L 50 43"" stroke=""black"" transform=""translate( 26 -15) rotate(45 50 50)""/><path d=""M 50 52 L 50 48"" stroke=""black"" stroke-width="".5""/> <path d=""M 52 50 L 48 50"" stroke=""black"" stroke-width="".5""/></svg>","90","VDACtraining","green","3","horizontal","true","","","",""
"","html-keyboard-response","30","84390","0.0-1.0-2.0-2.6","fudttrkjtv","green","null","","","","","<p style=""font-size:300%;"">Correct!</p>","null","","","","","","","","",""
"","html-keyboard-response","31","86186","0.0-1.0-2.0-0.7","fudttrkjtv","green","null","","","","","<svg viewBox=""0 0 100 100"" > <path d=""M 50 52 L 50 48"" stroke=""black"" stroke-width="".5""/> <path d=""M 52 50 L 48 50"" stroke=""black"" stroke-width="".5""/>","null","","","","","","","","",""
"","html-keyboard-response","32","86882","0.0-1.0-2.0-1.7","fudttrkjtv","green","695.0749999996333","","","","","<svg viewBox=""0 0 100 100"" ><text font-size=""10%"" text-anchor=""middle""  x=""50"" y=""98"">Press Z for horizontal or M for vertical</text><circle cx=""50"" cy=""50"" r=""10"" fill=""none"" transform=""translate( 26  15)"" stroke=""gold"" /><circle cx=""50"" cy=""50"" r=""10"" fill=""none"" transform=""translate(  0  30)"" stroke=""blueviolet"" /><circle cx=""50"" cy=""50"" r=""10"" fill=""none"" transform=""translate(-26  15)"" stroke=""cyan"" /><circle cx=""50"" cy=""50"" r=""10"" fill=""none"" transform=""translate(-26 -15)"" stroke=""magenta"" /><circle cx=""50"" cy=""50"" r=""10"" fill=""none"" transform=""translate(  0 -30)"" stroke=""red"" /><circle cx=""50"" cy=""50"" r=""10"" fill=""none"" transform=""translate( 26 -15)"" stroke=""black"" /><path d=""M 50 57 L 50 43"" stroke=""black"" transform=""translate( 26  15) rotate(-45 50 50)""/><path d=""M 50 57 L 50 43"" stroke=""black"" transform=""translate(  0  30) rotate(-45 50 50)""/><path d=""M 50 57 L 50 43"" stroke=""black"" transform=""translate(-26  15) rotate(45 50 50)""/><path d=""M 50 57 L 50 43"" stroke=""black"" transform=""translate(-26 -15) rotate(-45 50 50)""/><path d=""M 50 57 L 50 43"" stroke=""black"" transform=""translate(  0 -30) rotate(90 50 50)""/><path d=""M 50 57 L 50 43"" stroke=""black"" transform=""translate( 26 -15) rotate(45 50 50)""/><path d=""M 50 52 L 50 48"" stroke=""black"" stroke-width="".5""/> <path d=""M 52 50 L 48 50"" stroke=""black"" stroke-width="".5""/></svg>","90","VDACtraining","red","4","horizontal","true","","","",""
"","html-keyboard-response","33","89384","0.0-1.0-2.0-2.7","fudttrkjtv","green","null","","","","","<p style=""font-size:300%;"">Correct!</p>","null","","","","","","","","",""
"","html-keyboard-response","34","91180","0.0-1.0-2.0-0.8","fudttrkjtv","green","null","","","","","<svg viewBox=""0 0 100 100"" > <path d=""M 50 52 L 50 48"" stroke=""black"" stroke-width="".5""/> <path d=""M 52 50 L 48 50"" stroke=""black"" stroke-width="".5""/>","null","","","","","","","","",""
"","html-keyboard-response","35","91806","0.0-1.0-2.0-1.8","fudttrkjtv","green","625.5649999984598","","","","","<svg viewBox=""0 0 100 100"" ><text font-size=""10%"" text-anchor=""middle""  x=""50"" y=""98"">Press Z for horizontal or M for vertical</text><circle cx=""50"" cy=""50"" r=""10"" fill=""none"" transform=""translate( 26  15)"" stroke=""blueviolet"" /><circle cx=""50"" cy=""50"" r=""10"" fill=""none"" transform=""translate(  0  30)"" stroke=""green"" /><circle cx=""50"" cy=""50"" r=""10"" fill=""none"" transform=""translate(-26  15)"" stroke=""magenta"" /><circle cx=""50"" cy=""50"" r=""10"" fill=""none"" transform=""translate(-26 -15)"" stroke=""cyan"" /><circle cx=""50"" cy=""50"" r=""10"" fill=""none"" transform=""translate(  0 -30)"" stroke=""black"" /><circle cx=""50"" cy=""50"" r=""10"" fill=""none"" transform=""translate( 26 -15)"" stroke=""gold"" /><path d=""M 50 57 L 50 43"" stroke=""black"" transform=""translate( 26  15) rotate(45 50 50)""/><path d=""M 50 57 L 50 43"" stroke=""black"" transform=""translate(  0  30) rotate(90 50 50)""/><path d=""M 50 57 L 50 43"" stroke=""black"" transform=""translate(-26  15) rotate(45 50 50)""/><path d=""M 50 57 L 50 43"" stroke=""black"" transform=""translate(-26 -15) rotate(-45 50 50)""/><path d=""M 50 57 L 50 43"" stroke=""black"" transform=""translate(  0 -30) rotate(-45 50 50)""/><path d=""M 50 57 L 50 43"" stroke=""black"" transform=""translate( 26 -15) rotate(-45 50 50)""/><path d=""M 50 52 L 50 48"" stroke=""black"" stroke-width="".5""/> <path d=""M 52 50 L 48 50"" stroke=""black"" stroke-width="".5""/></svg>","90","VDACtraining","green","1","horizontal","true","","","",""
"","html-keyboard-response","36","94309","0.0-1.0-2.0-2.8","fudttrkjtv","green","null","","","","","<p style=""font-size:300%;"">Correct!</p>","null","","","","","","","","",""
"","html-keyboard-response","37","96105","0.0-1.0-2.0-0.9","fudttrkjtv","green","null","","","","","<svg viewBox=""0 0 100 100"" > <path d=""M 50 52 L 50 48"" stroke=""black"" stroke-width="".5""/> <path d=""M 52 50 L 48 50"" stroke=""black"" stroke-width="".5""/>","null","","","","","","","","",""
"","html-keyboard-response","38","96662","0.0-1.0-2.0-1.9","fudttrkjtv","green","555.2449999995588","","","","","<svg viewBox=""0 0 100 100"" ><text font-size=""10%"" text-anchor=""middle""  x=""50"" y=""98"">Press Z for horizontal or M for vertical</text><circle cx=""50"" cy=""50"" r=""10"" fill=""none"" transform=""translate( 26  15)"" stroke=""blueviolet"" /><circle cx=""50"" cy=""50"" r=""10"" fill=""none"" transform=""translate(  0  30)"" stroke=""cyan"" /><circle cx=""50"" cy=""50"" r=""10"" fill=""none"" transform=""translate(-26  15)"" stroke=""red"" /><circle cx=""50"" cy=""50"" r=""10"" fill=""none"" transform=""translate(-26 -15)"" stroke=""black"" /><circle cx=""50"" cy=""50"" r=""10"" fill=""none"" transform=""translate(  0 -30)"" stroke=""gold"" /><circle cx=""50"" cy=""50"" r=""10"" fill=""none"" transform=""translate( 26 -15)"" stroke=""magenta"" /><path d=""M 50 57 L 50 43"" stroke=""black"" transform=""translate( 26  15) rotate(45 50 50)""/><path d=""M 50 57 L 50 43"" stroke=""black"" transform=""translate(  0  30) rotate(-45 50 50)""/><path d=""M 50 57 L 50 43"" stroke=""black"" transform=""translate(-26  15) rotate(90 50 50)""/><path d=""M 50 57 L 50 43"" stroke=""black"" transform=""translate(-26 -15) rotate(45 50 50)""/><path d=""M 50 57 L 50 43"" stroke=""black"" transform=""translate(  0 -30) rotate(-45 50 50)""/><path d=""M 50 57 L 50 43"" stroke=""black"" transform=""translate( 26 -15) rotate(45 50 50)""/><path d=""M 50 52 L 50 48"" stroke=""black"" stroke-width="".5""/> <path d=""M 52 50 L 48 50"" stroke=""black"" stroke-width="".5""/></svg>","90","VDACtraining","red","2","horizontal","true","","","",""
"","html-keyboard-response","39","99163","0.0-1.0-2.0-2.9","fudttrkjtv","green","null","","","","","<p style=""font-size:300%;"">Correct!</p>","null","","","","","","","","",""
"","html-keyboard-response","40","107892","0.0-1.0-3.0","fudttrkjtv","green","7728.864999997313","","","","","<p>You have now finished the training exercise. If you would like to repeat the instructions and training exercise, press R. If you are ready to continue to the task, press C. </p>","67","","","","","","","","",""
"","html-keyboard-response","41","109894","0.0-2.0-0.0","fudttrkjtv","green","null","","","","","<p>Place your fingers on the <b>Z</b> and <b>M</b> keys. The experiment will begin shortly.</p><p>&nbsp</p>","null","","","","","","","","",""
"","html-keyboard-response","42","110895","0.0-2.0-1.0","fudttrkjtv","green","null","","","","","<p>Place your fingers on the <b>Z</b> and <b>M</b> keys. The experiment will begin shortly.</p><p>3</p>","null","","","","","","","","",""
"","html-keyboard-response","43","111896","0.0-2.0-2.0","fudttrkjtv","green","null","","","","","<p>Place your fingers on the <b>Z</b> and <b>M</b> keys. The experiment will begin shortly.</p><p>2</p>","null","","","","","","","","",""
"","html-keyboard-response","44","112898","0.0-2.0-3.0","fudttrkjtv","green","null","","","","","<p>Place your fingers on the <b>Z</b> and <b>M</b> keys. The experiment will begin shortly.</p><p>1</p>","null","","","","","","","","",""
"","html-keyboard-response","45","113694","0.0-3.0-0.0-0.0","fudttrkjtv","green","null","","","","","<svg viewBox=""0 0 100 100"" > <path d=""M 50 52 L 50 48"" stroke=""black"" stroke-width="".5""/> <path d=""M 52 50 L 48 50"" stroke=""black"" stroke-width="".5""/>","null","","","","","","","","",""
"","html-keyboard-response","46","114332","0.0-3.0-0.0-1.0","fudttrkjtv","green","636.8650000003981","","","","","<svg viewBox=""0 0 100 100"" ><circle cx=""50"" cy=""50"" r=""10"" fill=""none"" transform=""translate( 26  15)"" stroke=""magenta"" /><circle cx=""50"" cy=""50"" r=""10"" fill=""none"" transform=""translate(  0  30)"" stroke=""cyan"" /><circle cx=""50"" cy=""50"" r=""10"" fill=""none"" transform=""translate(-26  15)"" stroke=""green"" /><circle cx=""50"" cy=""50"" r=""10"" fill=""none"" transform=""translate(-26 -15)"" stroke=""gold"" /><circle cx=""50"" cy=""50"" r=""10"" fill=""none"" transform=""translate(  0 -30)"" stroke=""blueviolet"" /><circle cx=""50"" cy=""50"" r=""10"" fill=""none"" transform=""translate( 26 -15)"" stroke=""black"" /><path d=""M 50 57 L 50 43"" stroke=""black"" transform=""translate( 26  15) rotate(-45 50 50)""/><path d=""M 50 57 L 50 43"" stroke=""black"" transform=""translate(  0  30) rotate(45 50 50)""/><path d=""M 50 57 L 50 43"" stroke=""black"" transform=""translate(-26  15) rotate(0 50 50)""/><path d=""M 50 57 L 50 43"" stroke=""black"" transform=""translate(-26 -15) rotate(45 50 50)""/><path d=""M 50 57 L 50 43"" stroke=""black"" transform=""translate(  0 -30) rotate(-45 50 50)""/><path d=""M 50 57 L 50 43"" stroke=""black"" transform=""translate( 26 -15) rotate(45 50 50)""/><path d=""M 50 52 L 50 48"" stroke=""black"" stroke-width="".5""/> <path d=""M 52 50 L 48 50"" stroke=""black"" stroke-width="".5""/></svg>","90","VDACtest","green","3rd","vertical","false","high","","",""
"","html-keyboard-response","47","116834","0.0-3.0-0.0-2.0","fudttrkjtv","green","null","","","","","<p style=""font-size:300%;"">Miss.</p><p style=""font-size:300%"">Total: 0 points.</p>","null","","","","","","","0","",""
"","html-keyboard-response","48","118631","0.0-3.0-0.0-0.1","fudttrkjtv","green","null","","","","","<svg viewBox=""0 0 100 100"" > <path d=""M 50 52 L 50 48"" stroke=""black"" stroke-width="".5""/> <path d=""M 52 50 L 48 50"" stroke=""black"" stroke-width="".5""/>","null","","","","","","","","",""
"","html-keyboard-response","49","119329","0.0-3.0-0.0-1.1","fudttrkjtv","green","696.974999998929","","","","","<svg viewBox=""0 0 100 100"" ><circle cx=""50"" cy=""50"" r=""10"" fill=""none"" transform=""translate( 26  15)"" stroke=""blueviolet"" /><circle cx=""50"" cy=""50"" r=""10"" fill=""none"" transform=""translate(  0  30)"" stroke=""magenta"" /><circle cx=""50"" cy=""50"" r=""10"" fill=""none"" transform=""translate(-26  15)"" stroke=""cyan"" /><circle cx=""50"" cy=""50"" r=""10"" fill=""none"" transform=""translate(-26 -15)"" stroke=""red"" /><circle cx=""50"" cy=""50"" r=""10"" fill=""none"" transform=""translate(  0 -30)"" stroke=""black"" /><circle cx=""50"" cy=""50"" r=""10"" fill=""none"" transform=""translate( 26 -15)"" stroke=""gold"" /><path d=""M 50 57 L 50 43"" stroke=""black"" transform=""translate( 26  15) rotate(-45 50 50)""/><path d=""M 50 57 L 50 43"" stroke=""black"" transform=""translate(  0  30) rotate(-45 50 50)""/><path d=""M 50 57 L 50 43"" stroke=""black"" transform=""translate(-26  15) rotate(-45 50 50)""/><path d=""M 50 57 L 50 43"" stroke=""black"" transform=""translate(-26 -15) rotate(90 50 50)""/><path d=""M 50 57 L 50 43"" stroke=""black"" transform=""translate(  0 -30) rotate(-45 50 50)""/><path d=""M 50 57 L 50 43"" stroke=""black"" transform=""translate( 26 -15) rotate(-45 50 50)""/><path d=""M 50 52 L 50 48"" stroke=""black"" stroke-width="".5""/> <path d=""M 52 50 L 48 50"" stroke=""black"" stroke-width="".5""/></svg>","90","VDACtest","red","4th","horizontal","true","low","","",""
"","html-keyboard-response","50","121830","0.0-3.0-0.0-2.1","fudttrkjtv","green","null","","","","","<p style=""font-size:300%;""> + 2 points.</p><p style=""font-size:300%"">Total: 2 points.</p>","null","","","","","","","2","",""
"","html-keyboard-response","51","123628","0.0-3.0-0.0-0.2","fudttrkjtv","green","null","","","","","<svg viewBox=""0 0 100 100"" > <path d=""M 50 52 L 50 48"" stroke=""black"" stroke-width="".5""/> <path d=""M 52 50 L 48 50"" stroke=""black"" stroke-width="".5""/>","null","","","","","","","","",""
"","html-keyboard-response","52","124100","0.0-3.0-0.0-1.2","fudttrkjtv","green","471.0000000013679","","","","","<svg viewBox=""0 0 100 100"" ><circle cx=""50"" cy=""50"" r=""10"" fill=""none"" transform=""translate( 26  15)"" stroke=""cyan"" /><circle cx=""50"" cy=""50"" r=""10"" fill=""none"" transform=""translate(  0  30)"" stroke=""blueviolet"" /><circle cx=""50"" cy=""50"" r=""10"" fill=""none"" transform=""translate(-26  15)"" stroke=""red"" /><circle cx=""50"" cy=""50"" r=""10"" fill=""none"" transform=""translate(-26 -15)"" stroke=""gold"" /><circle cx=""50"" cy=""50"" r=""10"" fill=""none"" transform=""translate(  0 -30)"" stroke=""black"" /><circle cx=""50"" cy=""50"" r=""10"" fill=""none"" transform=""translate( 26 -15)"" stroke=""magenta"" /><path d=""M 50 57 L 50 43"" stroke=""black"" transform=""translate( 26  15) rotate(45 50 50)""/><path d=""M 50 57 L 50 43"" stroke=""black"" transform=""translate(  0  30) rotate(-45 50 50)""/><path d=""M 50 57 L 50 43"" stroke=""black"" transform=""translate(-26  15) rotate(90 50 50)""/><path d=""M 50 57 L 50 43"" stroke=""black"" transform=""translate(-26 -15) rotate(45 50 50)""/><path d=""M 50 57 L 50 43"" stroke=""black"" transform=""translate(  0 -30) rotate(45 50 50)""/><path d=""M 50 57 L 50 43"" stroke=""black"" transform=""translate( 26 -15) rotate(-45 50 50)""/><path d=""M 50 52 L 50 48"" stroke=""black"" stroke-width="".5""/> <path d=""M 52 50 L 48 50"" stroke=""black"" stroke-width="".5""/></svg>","90","VDACtest","red","3rd","horizontal","true","low","","",""
"","html-keyboard-response","53","126602","0.0-3.0-0.0-2.2","fudttrkjtv","green","null","","","","","<p style=""font-size:300%;""> + 2 points.</p><p style=""font-size:300%"">Total: 4 points.</p>","null","","","","","","","4","",""
"","html-keyboard-response","54","128399","0.0-3.0-0.0-0.3","fudttrkjtv","green","null","","","","","<svg viewBox=""0 0 100 100"" > <path d=""M 50 52 L 50 48"" stroke=""black"" stroke-width="".5""/> <path d=""M 52 50 L 48 50"" stroke=""black"" stroke-width="".5""/>","null","","","","","","","","",""
"","html-keyboard-response","55","129004","0.0-3.0-0.0-1.3","fudttrkjtv","green","603.8750000006985","","","","","<svg viewBox=""0 0 100 100"" ><circle cx=""50"" cy=""50"" r=""10"" fill=""none"" transform=""translate( 26  15)"" stroke=""blueviolet"" /><circle cx=""50"" cy=""50"" r=""10"" fill=""none"" transform=""translate(  0  30)"" stroke=""green"" /><circle cx=""50"" cy=""50"" r=""10"" fill=""none"" transform=""translate(-26  15)"" stroke=""cyan"" /><circle cx=""50"" cy=""50"" r=""10"" fill=""none"" transform=""translate(-26 -15)"" stroke=""magenta"" /><circle cx=""50"" cy=""50"" r=""10"" fill=""none"" transform=""translate(  0 -30)"" stroke=""black"" /><circle cx=""50"" cy=""50"" r=""10"" fill=""none"" transform=""translate( 26 -15)"" stroke=""gold"" /><path d=""M 50 57 L 50 43"" stroke=""black"" transform=""translate( 26  15) rotate(-45 50 50)""/><path d=""M 50 57 L 50 43"" stroke=""black"" transform=""translate(  0  30) rotate(0 50 50)""/><path d=""M 50 57 L 50 43"" stroke=""black"" transform=""translate(-26  15) rotate(-45 50 50)""/><path d=""M 50 57 L 50 43"" stroke=""black"" transform=""translate(-26 -15) rotate(45 50 50)""/><path d=""M 50 57 L 50 43"" stroke=""black"" transform=""translate(  0 -30) rotate(45 50 50)""/><path d=""M 50 57 L 50 43"" stroke=""black"" transform=""translate( 26 -15) rotate(45 50 50)""/><path d=""M 50 52 L 50 48"" stroke=""black"" stroke-width="".5""/> <path d=""M 52 50 L 48 50"" stroke=""black"" stroke-width="".5""/></svg>","90","VDACtest","green","2nd","vertical","false","high","","",""
"","html-keyboard-response","56","131506","0.0-3.0-0.0-2.3","fudttrkjtv","green","null","","","","","<p style=""font-size:300%;"">Miss.</p><p style=""font-size:300%"">Total: 4 points.</p>","null","","","","","","","4","",""
"","html-keyboard-response","57","133303","0.0-3.0-0.0-0.4","fudttrkjtv","green","null","","","","","<svg viewBox=""0 0 100 100"" > <path d=""M 50 52 L 50 48"" stroke=""black"" stroke-width="".5""/> <path d=""M 52 50 L 48 50"" stroke=""black"" stroke-width="".5""/>","null","","","","","","","","",""
"","html-keyboard-response","58","133802","0.0-3.0-0.0-1.4","fudttrkjtv","green","497.0549999998184","","","","","<svg viewBox=""0 0 100 100"" ><circle cx=""50"" cy=""50"" r=""10"" fill=""none"" transform=""translate( 26  15)"" stroke=""blueviolet"" /><circle cx=""50"" cy=""50"" r=""10"" fill=""none"" transform=""translate(  0  30)"" stroke=""gold"" /><circle cx=""50"" cy=""50"" r=""10"" fill=""none"" transform=""translate(-26  15)"" stroke=""magenta"" /><circle cx=""50"" cy=""50"" r=""10"" fill=""none"" transform=""translate(-26 -15)"" stroke=""green"" /><circle cx=""50"" cy=""50"" r=""10"" fill=""none"" transform=""translate(  0 -30)"" stroke=""cyan"" /><circle cx=""50"" cy=""50"" r=""10"" fill=""none"" transform=""translate( 26 -15)"" stroke=""black"" /><path d=""M 50 57 L 50 43"" stroke=""black"" transform=""translate( 26  15) rotate(-45 50 50)""/><path d=""M 50 57 L 50 43"" stroke=""black"" transform=""translate(  0  30) rotate(-45 50 50)""/><path d=""M 50 57 L 50 43"" stroke=""black"" transform=""translate(-26  15) rotate(45 50 50)""/><path d=""M 50 57 L 50 43"" stroke=""black"" transform=""translate(-26 -15) rotate(0 50 50)""/><path d=""M 50 57 L 50 43"" stroke=""black"" transform=""translate(  0 -30) rotate(-45 50 50)""/><path d=""M 50 57 L 50 43"" stroke=""black"" transform=""translate( 26 -15) rotate(45 50 50)""/><path d=""M 50 52 L 50 48"" stroke=""black"" stroke-width="".5""/> <path d=""M 52 50 L 48 50"" stroke=""black"" stroke-width="".5""/></svg>","77","VDACtest","green","4th","vertical","true","high","","",""
"","html-keyboard-response","59","136303","0.0-3.0-0.0-2.4","fudttrkjtv","green","null","","","","","<p style=""font-size:300%;""> + 10 points.</p><p style=""font-size:300%"">Total: 14 points.</p>","null","","","","","","","14","",""
"","html-keyboard-response","60","161056","0.0-3.0-0.0-4.4-0.4","fudttrkjtv","green","23750.209999998333","","","","","<p>You have finished block 1 of 4. You may now take up to a 30 second break. Press any key when you are ready to continue, or it will begin automatically after 30 seconds. Remember, press <b>Z</b> if the line is horizontal or <b>M</b> if the line is vertical.</p><p>You responded correctly on 60% of the trials which has earned you 14 points.</p>","77","","","","","","","","",""
"","html-keyboard-response","61","163056","0.0-3.0-0.0-4.4-1.4-0.4","fudttrkjtv","green","null","","","","","<p>Place your fingers on the <b>Z</b> and <b>M</b> keys. The experiment will begin shortly.</p><p>&nbsp</p>","null","","","","","","","","",""
"","html-keyboard-response","62","164058","0.0-3.0-0.0-4.4-1.4-1.4","fudttrkjtv","green","null","","","","","<p>Place your fingers on the <b>Z</b> and <b>M</b> keys. The experiment will begin shortly.</p><p>3</p>","null","","","","","","","","",""
"","html-keyboard-response","63","165059","0.0-3.0-0.0-4.4-1.4-2.4","fudttrkjtv","green","null","","","","","<p>Place your fingers on the <b>Z</b> and <b>M</b> keys. The experiment will begin shortly.</p><p>2</p>","null","","","","","","","","",""
"","html-keyboard-response","64","166060","0.0-3.0-0.0-4.4-1.4-3.4","fudttrkjtv","green","null","","","","","<p>Place your fingers on the <b>Z</b> and <b>M</b> keys. The experiment will begin shortly.</p><p>1</p>","null","","","","","","","","",""
"","html-keyboard-response","65","166856","0.0-3.0-0.0-0.5","fudttrkjtv","green","null","","","","","<svg viewBox=""0 0 100 100"" > <path d=""M 50 52 L 50 48"" stroke=""black"" stroke-width="".5""/> <path d=""M 52 50 L 48 50"" stroke=""black"" stroke-width="".5""/>","null","","","","","","","","",""
"","html-keyboard-response","66","167514","0.0-3.0-0.0-1.5","fudttrkjtv","green","656.5600000030827","","","","","<svg viewBox=""0 0 100 100"" ><circle cx=""50"" cy=""50"" r=""10"" fill=""none"" transform=""translate( 26  15)"" stroke=""red"" /><circle cx=""50"" cy=""50"" r=""10"" fill=""none"" transform=""translate(  0  30)"" stroke=""cyan"" /><circle cx=""50"" cy=""50"" r=""10"" fill=""none"" transform=""translate(-26  15)"" stroke=""magenta"" /><circle cx=""50"" cy=""50"" r=""10"" fill=""none"" transform=""translate(-26 -15)"" stroke=""gold"" /><circle cx=""50"" cy=""50"" r=""10"" fill=""none"" transform=""translate(  0 -30)"" stroke=""black"" /><circle cx=""50"" cy=""50"" r=""10"" fill=""none"" transform=""translate( 26 -15)"" stroke=""blueviolet"" /><path d=""M 50 57 L 50 43"" stroke=""black"" transform=""translate( 26  15) rotate(90 50 50)""/><path d=""M 50 57 L 50 43"" stroke=""black"" transform=""translate(  0  30) rotate(-45 50 50)""/><path d=""M 50 57 L 50 43"" stroke=""black"" transform=""translate(-26  15) rotate(-45 50 50)""/><path d=""M 50 57 L 50 43"" stroke=""black"" transform=""translate(-26 -15) rotate(-45 50 50)""/><path d=""M 50 57 L 50 43"" stroke=""black"" transform=""translate(  0 -30) rotate(-45 50 50)""/><path d=""M 50 57 L 50 43"" stroke=""black"" transform=""translate( 26 -15) rotate(45 50 50)""/><path d=""M 50 52 L 50 48"" stroke=""black"" stroke-width="".5""/> <path d=""M 52 50 L 48 50"" stroke=""black"" stroke-width="".5""/></svg>","90","VDACtest","red","1st","horizontal","true","low","","",""
"","html-keyboard-response","67","170016","0.0-3.0-0.0-2.5","fudttrkjtv","green","null","","","","","<p style=""font-size:300%;""> + 2 points.</p><p style=""font-size:300%"">Total: 16 points.</p>","null","","","","","","","16","",""
"","html-keyboard-response","68","171812","0.0-3.0-0.0-0.6","fudttrkjtv","green","null","","","","","<svg viewBox=""0 0 100 100"" > <path d=""M 50 52 L 50 48"" stroke=""black"" stroke-width="".5""/> <path d=""M 52 50 L 48 50"" stroke=""black"" stroke-width="".5""/>","null","","","","","","","","",""
"","html-keyboard-response","69","172437","0.0-3.0-0.0-1.6","fudttrkjtv","green","623.6050000006799","","","","","<svg viewBox=""0 0 100 100"" ><circle cx=""50"" cy=""50"" r=""10"" fill=""none"" transform=""translate( 26  15)"" stroke=""red"" /><circle cx=""50"" cy=""50"" r=""10"" fill=""none"" transform=""translate(  0  30)"" stroke=""black"" /><circle cx=""50"" cy=""50"" r=""10"" fill=""none"" transform=""translate(-26  15)"" stroke=""gold"" /><circle cx=""50"" cy=""50"" r=""10"" fill=""none"" transform=""translate(-26 -15)"" stroke=""magenta"" /><circle cx=""50"" cy=""50"" r=""10"" fill=""none"" transform=""translate(  0 -30)"" stroke=""blueviolet"" /><circle cx=""50"" cy=""50"" r=""10"" fill=""none"" transform=""translate( 26 -15)"" stroke=""cyan"" /><path d=""M 50 57 L 50 43"" stroke=""black"" transform=""translate( 26  15) rotate(0 50 50)""/><path d=""M 50 57 L 50 43"" stroke=""black"" transform=""translate(  0  30) rotate(45 50 50)""/><path d=""M 50 57 L 50 43"" stroke=""black"" transform=""translate(-26  15) rotate(45 50 50)""/><path d=""M 50 57 L 50 43"" stroke=""black"" transform=""translate(-26 -15) rotate(45 50 50)""/><path d=""M 50 57 L 50 43"" stroke=""black"" transform=""translate(  0 -30) rotate(-45 50 50)""/><path d=""M 50 57 L 50 43"" stroke=""black"" transform=""translate( 26 -15) rotate(-45 50 50)""/><path d=""M 50 52 L 50 48"" stroke=""black"" stroke-width="".5""/> <path d=""M 52 50 L 48 50"" stroke=""black"" stroke-width="".5""/></svg>","90","VDACtest","red","1st","vertical","false","low","","",""
"","html-keyboard-response","70","174945","0.0-3.0-0.0-2.6","fudttrkjtv","green","null","","","","","<p style=""font-size:300%;"">Miss.</p><p style=""font-size:300%"">Total: 16 points.</p>","null","","","","","","","16","",""
"","html-keyboard-response","71","176743","0.0-3.0-0.0-0.7","fudttrkjtv","green","null","","","","","<svg viewBox=""0 0 100 100"" > <path d=""M 50 52 L 50 48"" stroke=""black"" stroke-width="".5""/> <path d=""M 52 50 L 48 50"" stroke=""black"" stroke-width="".5""/>","null","","","","","","","","",""
"","html-keyboard-response","72","177605","0.0-3.0-0.0-1.7","fudttrkjtv","green","861.815000000206","","","","","<svg viewBox=""0 0 100 100"" ><circle cx=""50"" cy=""50"" r=""10"" fill=""none"" transform=""translate( 26  15)"" stroke=""black"" /><circle cx=""50"" cy=""50"" r=""10"" fill=""none"" transform=""translate(  0  30)"" stroke=""cyan"" /><circle cx=""50"" cy=""50"" r=""10"" fill=""none"" transform=""translate(-26  15)"" stroke=""gold"" /><circle cx=""50"" cy=""50"" r=""10"" fill=""none"" transform=""translate(-26 -15)"" stroke=""blueviolet"" /><circle cx=""50"" cy=""50"" r=""10"" fill=""none"" transform=""translate(  0 -30)"" stroke=""magenta"" /><circle cx=""50"" cy=""50"" r=""10"" fill=""none"" transform=""translate( 26 -15)"" stroke=""red"" /><path d=""M 50 57 L 50 43"" stroke=""black"" transform=""translate( 26  15) rotate(-45 50 50)""/><path d=""M 50 57 L 50 43"" stroke=""black"" transform=""translate(  0  30) rotate(-45 50 50)""/><path d=""M 50 57 L 50 43"" stroke=""black"" transform=""translate(-26  15) rotate(45 50 50)""/><path d=""M 50 57 L 50 43"" stroke=""black"" transform=""translate(-26 -15) rotate(45 50 50)""/><path d=""M 50 57 L 50 43"" stroke=""black"" transform=""translate(  0 -30) rotate(-45 50 50)""/><path d=""M 50 57 L 50 43"" stroke=""black"" transform=""translate( 26 -15) rotate(90 50 50)""/><path d=""M 50 52 L 50 48"" stroke=""black"" stroke-width="".5""/> <path d=""M 52 50 L 48 50"" stroke=""black"" stroke-width="".5""/></svg>","90","VDACtest","red","6th","horizontal","true","low","","",""
"","html-keyboard-response","73","180108","0.0-3.0-0.0-2.7","fudttrkjtv","green","null","","","","","<p style=""font-size:300%;""> + 2 points.</p><p style=""font-size:300%"">Total: 18 points.</p>","null","","","","","","","18","",""
"","html-keyboard-response","74","181905","0.0-3.0-0.0-0.8","fudttrkjtv","green","null","","","","","<svg viewBox=""0 0 100 100"" > <path d=""M 50 52 L 50 48"" stroke=""black"" stroke-width="".5""/> <path d=""M 52 50 L 48 50"" stroke=""black"" stroke-width="".5""/>","null","","","","","","","","",""
"","html-keyboard-response","75","182620","0.0-3.0-0.0-1.8","fudttrkjtv","green","714.1300000002957","","","","","<svg viewBox=""0 0 100 100"" ><circle cx=""50"" cy=""50"" r=""10"" fill=""none"" transform=""translate( 26  15)"" stroke=""black"" /><circle cx=""50"" cy=""50"" r=""10"" fill=""none"" transform=""translate(  0  30)"" stroke=""cyan"" /><circle cx=""50"" cy=""50"" r=""10"" fill=""none"" transform=""translate(-26  15)"" stroke=""blueviolet"" /><circle cx=""50"" cy=""50"" r=""10"" fill=""none"" transform=""translate(-26 -15)"" stroke=""gold"" /><circle cx=""50"" cy=""50"" r=""10"" fill=""none"" transform=""translate(  0 -30)"" stroke=""magenta"" /><circle cx=""50"" cy=""50"" r=""10"" fill=""none"" transform=""translate( 26 -15)"" stroke=""green"" /><path d=""M 50 57 L 50 43"" stroke=""black"" transform=""translate( 26  15) rotate(45 50 50)""/><path d=""M 50 57 L 50 43"" stroke=""black"" transform=""translate(  0  30) rotate(-45 50 50)""/><path d=""M 50 57 L 50 43"" stroke=""black"" transform=""translate(-26  15) rotate(-45 50 50)""/><path d=""M 50 57 L 50 43"" stroke=""black"" transform=""translate(-26 -15) rotate(45 50 50)""/><path d=""M 50 57 L 50 43"" stroke=""black"" transform=""translate(  0 -30) rotate(45 50 50)""/><path d=""M 50 57 L 50 43"" stroke=""black"" transform=""translate( 26 -15) rotate(0 50 50)""/><path d=""M 50 52 L 50 48"" stroke=""black"" stroke-width="".5""/> <path d=""M 52 50 L 48 50"" stroke=""black"" stroke-width="".5""/></svg>","77","VDACtest","green","6th","vertical","true","high","","",""
"","html-keyboard-response","76","185123","0.0-3.0-0.0-2.8","fudttrkjtv","green","null","","","","","<p style=""font-size:300%;""> + 10 points.</p><p style=""font-size:300%"">Total: 28 points.</p>","null","","","","","","","28","",""
"","html-keyboard-response","77","186921","0.0-3.0-0.0-0.9","fudttrkjtv","green","null","","","","","<svg viewBox=""0 0 100 100"" > <path d=""M 50 52 L 50 48"" stroke=""black"" stroke-width="".5""/> <path d=""M 52 50 L 48 50"" stroke=""black"" stroke-width="".5""/>","null","","","","","","","","",""
"","html-keyboard-response","78","187467","0.0-3.0-0.0-1.9","fudttrkjtv","green","544.8400000022957","","","","","<svg viewBox=""0 0 100 100"" ><circle cx=""50"" cy=""50"" r=""10"" fill=""none"" transform=""translate( 26  15)"" stroke=""black"" /><circle cx=""50"" cy=""50"" r=""10"" fill=""none"" transform=""translate(  0  30)"" stroke=""magenta"" /><circle cx=""50"" cy=""50"" r=""10"" fill=""none"" transform=""translate(-26  15)"" stroke=""cyan"" /><circle cx=""50"" cy=""50"" r=""10"" fill=""none"" transform=""translate(-26 -15)"" stroke=""blueviolet"" /><circle cx=""50"" cy=""50"" r=""10"" fill=""none"" transform=""translate(  0 -30)"" stroke=""gold"" /><circle cx=""50"" cy=""50"" r=""10"" fill=""none"" transform=""translate( 26 -15)"" stroke=""red"" /><path d=""M 50 57 L 50 43"" stroke=""black"" transform=""translate( 26  15) rotate(45 50 50)""/><path d=""M 50 57 L 50 43"" stroke=""black"" transform=""translate(  0  30) rotate(-45 50 50)""/><path d=""M 50 57 L 50 43"" stroke=""black"" transform=""translate(-26  15) rotate(-45 50 50)""/><path d=""M 50 57 L 50 43"" stroke=""black"" transform=""translate(-26 -15) rotate(-45 50 50)""/><path d=""M 50 57 L 50 43"" stroke=""black"" transform=""translate(  0 -30) rotate(-45 50 50)""/><path d=""M 50 57 L 50 43"" stroke=""black"" transform=""translate( 26 -15) rotate(0 50 50)""/><path d=""M 50 52 L 50 48"" stroke=""black"" stroke-width="".5""/> <path d=""M 52 50 L 48 50"" stroke=""black"" stroke-width="".5""/></svg>","77","VDACtest","red","6th","vertical","true","low","","",""
"","html-keyboard-response","79","189968","0.0-3.0-0.0-2.9","fudttrkjtv","green","null","","","","","<p style=""font-size:300%;""> + 10 points.</p><p style=""font-size:300%"">Total: 38 points.</p>","null","","","","","","","38","",""
"","html-keyboard-response","80","194184","0.0-3.0-0.0-4.9-0.9","fudttrkjtv","green","3214.7599999989325","","","","","<p>You have finished block 2 of 4. You may now take up to a 30 second break. Press any key when you are ready to continue, or it will begin automatically after 30 seconds. Remember, press <b>Z</b> if the line is horizontal or <b>M</b> if the line is vertical.</p><p>You responded correctly on 70% of the trials which has earned you 38 points.</p>","77","","","","","","","","",""
"","html-keyboard-response","81","196185","0.0-3.0-0.0-4.9-1.9-0.9","fudttrkjtv","green","null","","","","","<p>Place your fingers on the <b>Z</b> and <b>M</b> keys. The experiment will begin shortly.</p><p>&nbsp</p>","null","","","","","","","","",""
"","html-keyboard-response","82","197186","0.0-3.0-0.0-4.9-1.9-1.9","fudttrkjtv","green","null","","","","","<p>Place your fingers on the <b>Z</b> and <b>M</b> keys. The experiment will begin shortly.</p><p>3</p>","null","","","","","","","","",""
"","html-keyboard-response","83","198188","0.0-3.0-0.0-4.9-1.9-2.9","fudttrkjtv","green","null","","","","","<p>Place your fingers on the <b>Z</b> and <b>M</b> keys. The experiment will begin shortly.</p><p>2</p>","null","","","","","","","","",""
"","html-keyboard-response","84","199190","0.0-3.0-0.0-4.9-1.9-3.9","fudttrkjtv","green","null","","","","","<p>Place your fingers on the <b>Z</b> and <b>M</b> keys. The experiment will begin shortly.</p><p>1</p>","null","","","","","","","","",""
"","html-keyboard-response","85","199986","0.0-3.0-0.0-0.10","fudttrkjtv","green","null","","","","","<svg viewBox=""0 0 100 100"" > <path d=""M 50 52 L 50 48"" stroke=""black"" stroke-width="".5""/> <path d=""M 52 50 L 48 50"" stroke=""black"" stroke-width="".5""/>","null","","","","","","","","",""
"","html-keyboard-response","86","200589","0.0-3.0-0.0-1.10","fudttrkjtv","green","602.309999998397","","","","","<svg viewBox=""0 0 100 100"" ><circle cx=""50"" cy=""50"" r=""10"" fill=""none"" transform=""translate( 26  15)"" stroke=""magenta"" /><circle cx=""50"" cy=""50"" r=""10"" fill=""none"" transform=""translate(  0  30)"" stroke=""gold"" /><circle cx=""50"" cy=""50"" r=""10"" fill=""none"" transform=""translate(-26  15)"" stroke=""blueviolet"" /><circle cx=""50"" cy=""50"" r=""10"" fill=""none"" transform=""translate(-26 -15)"" stroke=""black"" /><circle cx=""50"" cy=""50"" r=""10"" fill=""none"" transform=""translate(  0 -30)"" stroke=""cyan"" /><circle cx=""50"" cy=""50"" r=""10"" fill=""none"" transform=""translate( 26 -15)"" stroke=""green"" /><path d=""M 50 57 L 50 43"" stroke=""black"" transform=""translate( 26  15) rotate(45 50 50)""/><path d=""M 50 57 L 50 43"" stroke=""black"" transform=""translate(  0  30) rotate(45 50 50)""/><path d=""M 50 57 L 50 43"" stroke=""black"" transform=""translate(-26  15) rotate(45 50 50)""/><path d=""M 50 57 L 50 43"" stroke=""black"" transform=""translate(-26 -15) rotate(-45 50 50)""/><path d=""M 50 57 L 50 43"" stroke=""black"" transform=""translate(  0 -30) rotate(-45 50 50)""/><path d=""M 50 57 L 50 43"" stroke=""black"" transform=""translate( 26 -15) rotate(90 50 50)""/><path d=""M 50 52 L 50 48"" stroke=""black"" stroke-width="".5""/> <path d=""M 52 50 L 48 50"" stroke=""black"" stroke-width="".5""/></svg>","77","VDACtest","green","6th","horizontal","false","high","","",""
"","html-keyboard-response","87","203091","0.0-3.0-0.0-2.10","fudttrkjtv","green","null","","","","","<p style=""font-size:300%;"">Miss.</p><p style=""font-size:300%"">Total: 38 points.</p>","null","","","","","","","38","",""
"","html-keyboard-response","88","204889","0.0-3.0-0.0-0.11","fudttrkjtv","green","null","","","","","<svg viewBox=""0 0 100 100"" > <path d=""M 50 52 L 50 48"" stroke=""black"" stroke-width="".5""/> <path d=""M 52 50 L 48 50"" stroke=""black"" stroke-width="".5""/>","null","","","","","","","","",""
"","html-keyboard-response","89","205560","0.0-3.0-0.0-1.11","fudttrkjtv","green","670.0399999972433","","","","","<svg viewBox=""0 0 100 100"" ><circle cx=""50"" cy=""50"" r=""10"" fill=""none"" transform=""translate( 26  15)"" stroke=""magenta"" /><circle cx=""50"" cy=""50"" r=""10"" fill=""none"" transform=""translate(  0  30)"" stroke=""black"" /><circle cx=""50"" cy=""50"" r=""10"" fill=""none"" transform=""translate(-26  15)"" stroke=""gold"" /><circle cx=""50"" cy=""50"" r=""10"" fill=""none"" transform=""translate(-26 -15)"" stroke=""red"" /><circle cx=""50"" cy=""50"" r=""10"" fill=""none"" transform=""translate(  0 -30)"" stroke=""blueviolet"" /><circle cx=""50"" cy=""50"" r=""10"" fill=""none"" transform=""translate( 26 -15)"" stroke=""cyan"" /><path d=""M 50 57 L 50 43"" stroke=""black"" transform=""translate( 26  15) rotate(-45 50 50)""/><path d=""M 50 57 L 50 43"" stroke=""black"" transform=""translate(  0  30) rotate(-45 50 50)""/><path d=""M 50 57 L 50 43"" stroke=""black"" transform=""translate(-26  15) rotate(-45 50 50)""/><path d=""M 50 57 L 50 43"" stroke=""black"" transform=""translate(-26 -15) rotate(90 50 50)""/><path d=""M 50 57 L 50 43"" stroke=""black"" transform=""translate(  0 -30) rotate(45 50 50)""/><path d=""M 50 57 L 50 43"" stroke=""black"" transform=""translate( 26 -15) rotate(45 50 50)""/><path d=""M 50 52 L 50 48"" stroke=""black"" stroke-width="".5""/> <path d=""M 52 50 L 48 50"" stroke=""black"" stroke-width="".5""/></svg>","90","VDACtest","red","4th","horizontal","true","low","","",""
"","html-keyboard-response","90","208060","0.0-3.0-0.0-2.11","fudttrkjtv","green","null","","","","","<p style=""font-size:300%;""> + 2 points.</p><p style=""font-size:300%"">Total: 40 points.</p>","null","","","","","","","40","",""
"","html-keyboard-response","91","209857","0.0-3.0-0.0-0.12","fudttrkjtv","green","null","","","","","<svg viewBox=""0 0 100 100"" > <path d=""M 50 52 L 50 48"" stroke=""black"" stroke-width="".5""/> <path d=""M 52 50 L 48 50"" stroke=""black"" stroke-width="".5""/>","null","","","","","","","","",""
"","html-keyboard-response","92","210583","0.0-3.0-0.0-1.12","fudttrkjtv","green","724.7250000000349","","","","","<svg viewBox=""0 0 100 100"" ><circle cx=""50"" cy=""50"" r=""10"" fill=""none"" transform=""translate( 26  15)"" stroke=""gold"" /><circle cx=""50"" cy=""50"" r=""10"" fill=""none"" transform=""translate(  0  30)"" stroke=""red"" /><circle cx=""50"" cy=""50"" r=""10"" fill=""none"" transform=""translate(-26  15)"" stroke=""blueviolet"" /><circle cx=""50"" cy=""50"" r=""10"" fill=""none"" transform=""translate(-26 -15)"" stroke=""black"" /><circle cx=""50"" cy=""50"" r=""10"" fill=""none"" transform=""translate(  0 -30)"" stroke=""cyan"" /><circle cx=""50"" cy=""50"" r=""10"" fill=""none"" transform=""translate( 26 -15)"" stroke=""magenta"" /><path d=""M 50 57 L 50 43"" stroke=""black"" transform=""translate( 26  15) rotate(-45 50 50)""/><path d=""M 50 57 L 50 43"" stroke=""black"" transform=""translate(  0  30) rotate(0 50 50)""/><path d=""M 50 57 L 50 43"" stroke=""black"" transform=""translate(-26  15) rotate(45 50 50)""/><path d=""M 50 57 L 50 43"" stroke=""black"" transform=""translate(-26 -15) rotate(45 50 50)""/><path d=""M 50 57 L 50 43"" stroke=""black"" transform=""translate(  0 -30) rotate(-45 50 50)""/><path d=""M 50 57 L 50 43"" stroke=""black"" transform=""translate( 26 -15) rotate(45 50 50)""/><path d=""M 50 52 L 50 48"" stroke=""black"" stroke-width="".5""/> <path d=""M 52 50 L 48 50"" stroke=""black"" stroke-width="".5""/></svg>","77","VDACtest","red","2nd","vertical","true","low","","",""
"","html-keyboard-response","93","213085","0.0-3.0-0.0-2.12","fudttrkjtv","green","null","","","","","<p style=""font-size:300%;""> + 2 points.</p><p style=""font-size:300%"">Total: 42 points.</p>","null","","","","","","","42","",""
"","html-keyboard-response","94","214882","0.0-3.0-0.0-0.13","fudttrkjtv","green","null","","","","","<svg viewBox=""0 0 100 100"" > <path d=""M 50 52 L 50 48"" stroke=""black"" stroke-width="".5""/> <path d=""M 52 50 L 48 50"" stroke=""black"" stroke-width="".5""/>","null","","","","","","","","",""
"","html-keyboard-response","95","215481","0.0-3.0-0.0-1.13","fudttrkjtv","green","597.1349999999802","","","","","<svg viewBox=""0 0 100 100"" ><circle cx=""50"" cy=""50"" r=""10"" fill=""none"" transform=""translate( 26  15)"" stroke=""magenta"" /><circle cx=""50"" cy=""50"" r=""10"" fill=""none"" transform=""translate(  0  30)"" stroke=""black"" /><circle cx=""50"" cy=""50"" r=""10"" fill=""none"" transform=""translate(-26  15)"" stroke=""gold"" /><circle cx=""50"" cy=""50"" r=""10"" fill=""none"" transform=""translate(-26 -15)"" stroke=""cyan"" /><circle cx=""50"" cy=""50"" r=""10"" fill=""none"" transform=""translate(  0 -30)"" stroke=""red"" /><circle cx=""50"" cy=""50"" r=""10"" fill=""none"" transform=""translate( 26 -15)"" stroke=""blueviolet"" /><path d=""M 50 57 L 50 43"" stroke=""black"" transform=""translate( 26  15) rotate(45 50 50)""/><path d=""M 50 57 L 50 43"" stroke=""black"" transform=""translate(  0  30) rotate(-45 50 50)""/><path d=""M 50 57 L 50 43"" stroke=""black"" transform=""translate(-26  15) rotate(-45 50 50)""/><path d=""M 50 57 L 50 43"" stroke=""black"" transform=""translate(-26 -15) rotate(45 50 50)""/><path d=""M 50 57 L 50 43"" stroke=""black"" transform=""translate(  0 -30) rotate(90 50 50)""/><path d=""M 50 57 L 50 43"" stroke=""black"" transform=""translate( 26 -15) rotate(-45 50 50)""/><path d=""M 50 52 L 50 48"" stroke=""black"" stroke-width="".5""/> <path d=""M 52 50 L 48 50"" stroke=""black"" stroke-width="".5""/></svg>","90","VDACtest","red","5th","horizontal","true","low","","",""
"","html-keyboard-response","96","217984","0.0-3.0-0.0-2.13","fudttrkjtv","green","null","","","","","<p style=""font-size:300%;""> + 2 points.</p><p style=""font-size:300%"">Total: 44 points.</p>","null","","","","","","","44","",""
"","html-keyboard-response","97","219781","0.0-3.0-0.0-0.14","fudttrkjtv","green","null","","","","","<svg viewBox=""0 0 100 100"" > <path d=""M 50 52 L 50 48"" stroke=""black"" stroke-width="".5""/> <path d=""M 52 50 L 48 50"" stroke=""black"" stroke-width="".5""/>","null","","","","","","","","",""
"","html-keyboard-response","98","220487","0.0-3.0-0.0-1.14","fudttrkjtv","green","704.5299999990675","","","","","<svg viewBox=""0 0 100 100"" ><circle cx=""50"" cy=""50"" r=""10"" fill=""none"" transform=""translate( 26  15)"" stroke=""gold"" /><circle cx=""50"" cy=""50"" r=""10"" fill=""none"" transform=""translate(  0  30)"" stroke=""red"" /><circle cx=""50"" cy=""50"" r=""10"" fill=""none"" transform=""translate(-26  15)"" stroke=""magenta"" /><circle cx=""50"" cy=""50"" r=""10"" fill=""none"" transform=""translate(-26 -15)"" stroke=""cyan"" /><circle cx=""50"" cy=""50"" r=""10"" fill=""none"" transform=""translate(  0 -30)"" stroke=""black"" /><circle cx=""50"" cy=""50"" r=""10"" fill=""none"" transform=""translate( 26 -15)"" stroke=""blueviolet"" /><path d=""M 50 57 L 50 43"" stroke=""black"" transform=""translate( 26  15) rotate(45 50 50)""/><path d=""M 50 57 L 50 43"" stroke=""black"" transform=""translate(  0  30) rotate(90 50 50)""/><path d=""M 50 57 L 50 43"" stroke=""black"" transform=""translate(-26  15) rotate(45 50 50)""/><path d=""M 50 57 L 50 43"" stroke=""black"" transform=""translate(-26 -15) rotate(45 50 50)""/><path d=""M 50 57 L 50 43"" stroke=""black"" transform=""translate(  0 -30) rotate(45 50 50)""/><path d=""M 50 57 L 50 43"" stroke=""black"" transform=""translate( 26 -15) rotate(45 50 50)""/><path d=""M 50 52 L 50 48"" stroke=""black"" stroke-width="".5""/> <path d=""M 52 50 L 48 50"" stroke=""black"" stroke-width="".5""/></svg>","90","VDACtest","red","2nd","horizontal","true","low","","",""
"","html-keyboard-response","99","222989","0.0-3.0-0.0-2.14","fudttrkjtv","green","null","","","","","<p style=""font-size:300%;""> + 2 points.</p><p style=""font-size:300%"">Total: 46 points.</p>","null","","","","","","","46","",""
"","html-keyboard-response","100","225489","0.0-3.0-0.0-4.14-0.14","fudttrkjtv","green","1497.5699999995413","","","","","<p>You have finished block 3 of 4. You may now take up to a 30 second break. Press any key when you are ready to continue, or it will begin automatically after 30 seconds. Remember, press <b>Z</b> if the line is horizontal or <b>M</b> if the line is vertical.</p><p>You responded correctly on 73% of the trials which has earned you 46 points.</p>","90","","","","","","","","",""
"","html-keyboard-response","101","227490","0.0-3.0-0.0-4.14-1.14-0.14","fudttrkjtv","green","null","","","","","<p>Place your fingers on the <b>Z</b> and <b>M</b> keys. The experiment will begin shortly.</p><p>&nbsp</p>","null","","","","","","","","",""
"","html-keyboard-response","102","228491","0.0-3.0-0.0-4.14-1.14-1.14","fudttrkjtv","green","null","","","","","<p>Place your fingers on the <b>Z</b> and <b>M</b> keys. The experiment will begin shortly.</p><p>3</p>","null","","","","","","","","",""
"","html-keyboard-response","103","229492","0.0-3.0-0.0-4.14-1.14-2.14","fudttrkjtv","green","null","","","","","<p>Place your fingers on the <b>Z</b> and <b>M</b> keys. The experiment will begin shortly.</p><p>2</p>","null","","","","","","","","",""
"","html-keyboard-response","104","230493","0.0-3.0-0.0-4.14-1.14-3.14","fudttrkjtv","green","null","","","","","<p>Place your fingers on the <b>Z</b> and <b>M</b> keys. The experiment will begin shortly.</p><p>1</p>","null","","","","","","","","",""
"","html-keyboard-response","105","231290","0.0-3.0-0.0-0.15","fudttrkjtv","green","null","","","","","<svg viewBox=""0 0 100 100"" > <path d=""M 50 52 L 50 48"" stroke=""black"" stroke-width="".5""/> <path d=""M 52 50 L 48 50"" stroke=""black"" stroke-width="".5""/>","null","","","","","","","","",""
"","html-keyboard-response","106","231778","0.0-3.0-0.0-1.15","fudttrkjtv","green","487.2350000005099","","","","","<svg viewBox=""0 0 100 100"" ><circle cx=""50"" cy=""50"" r=""10"" fill=""none"" transform=""translate( 26  15)"" stroke=""gold"" /><circle cx=""50"" cy=""50"" r=""10"" fill=""none"" transform=""translate(  0  30)"" stroke=""cyan"" /><circle cx=""50"" cy=""50"" r=""10"" fill=""none"" transform=""translate(-26  15)"" stroke=""magenta"" /><circle cx=""50"" cy=""50"" r=""10"" fill=""none"" transform=""translate(-26 -15)"" stroke=""blueviolet"" /><circle cx=""50"" cy=""50"" r=""10"" fill=""none"" transform=""translate(  0 -30)"" stroke=""red"" /><circle cx=""50"" cy=""50"" r=""10"" fill=""none"" transform=""translate( 26 -15)"" stroke=""black"" /><path d=""M 50 57 L 50 43"" stroke=""black"" transform=""translate( 26  15) rotate(45 50 50)""/><path d=""M 50 57 L 50 43"" stroke=""black"" transform=""translate(  0  30) rotate(-45 50 50)""/><path d=""M 50 57 L 50 43"" stroke=""black"" transform=""translate(-26  15) rotate(45 50 50)""/><path d=""M 50 57 L 50 43"" stroke=""black"" transform=""translate(-26 -15) rotate(-45 50 50)""/><path d=""M 50 57 L 50 43"" stroke=""black"" transform=""translate(  0 -30) rotate(90 50 50)""/><path d=""M 50 57 L 50 43"" stroke=""black"" transform=""translate( 26 -15) rotate(45 50 50)""/><path d=""M 50 52 L 50 48"" stroke=""black"" stroke-width="".5""/> <path d=""M 52 50 L 48 50"" stroke=""black"" stroke-width="".5""/></svg>","90","VDACtest","red","5th","horizontal","true","low","","",""
"","html-keyboard-response","107","234280","0.0-3.0-0.0-2.15","fudttrkjtv","green","null","","","","","<p style=""font-size:300%;""> + 2 points.</p><p style=""font-size:300%"">Total: 48 points.</p>","null","","","","","","","48","",""
"","html-keyboard-response","108","236077","0.0-3.0-0.0-0.16","fudttrkjtv","green","null","","","","","<svg viewBox=""0 0 100 100"" > <path d=""M 50 52 L 50 48"" stroke=""black"" stroke-width="".5""/> <path d=""M 52 50 L 48 50"" stroke=""black"" stroke-width="".5""/>","null","","","","","","","","",""
"","html-keyboard-response","109","236641","0.0-3.0-0.0-1.16","fudttrkjtv","green","563.2200000000012","","","","","<svg viewBox=""0 0 100 100"" ><circle cx=""50"" cy=""50"" r=""10"" fill=""none"" transform=""translate( 26  15)"" stroke=""cyan"" /><circle cx=""50"" cy=""50"" r=""10"" fill=""none"" transform=""translate(  0  30)"" stroke=""black"" /><circle cx=""50"" cy=""50"" r=""10"" fill=""none"" transform=""translate(-26  15)"" stroke=""magenta"" /><circle cx=""50"" cy=""50"" r=""10"" fill=""none"" transform=""translate(-26 -15)"" stroke=""gold"" /><circle cx=""50"" cy=""50"" r=""10"" fill=""none"" transform=""translate(  0 -30)"" stroke=""green"" /><circle cx=""50"" cy=""50"" r=""10"" fill=""none"" transform=""translate( 26 -15)"" stroke=""blueviolet"" /><path d=""M 50 57 L 50 43"" stroke=""black"" transform=""translate( 26  15) rotate(45 50 50)""/><path d=""M 50 57 L 50 43"" stroke=""black"" transform=""translate(  0  30) rotate(45 50 50)""/><path d=""M 50 57 L 50 43"" stroke=""black"" transform=""translate(-26  15) rotate(45 50 50)""/><path d=""M 50 57 L 50 43"" stroke=""black"" transform=""translate(-26 -15) rotate(-45 50 50)""/><path d=""M 50 57 L 50 43"" stroke=""black"" transform=""translate(  0 -30) rotate(90 50 50)""/><path d=""M 50 57 L 50 43"" stroke=""black"" transform=""translate( 26 -15) rotate(-45 50 50)""/><path d=""M 50 52 L 50 48"" stroke=""black"" stroke-width="".5""/> <path d=""M 52 50 L 48 50"" stroke=""black"" stroke-width="".5""/></svg>","90","VDACtest","green","5th","horizontal","true","high","","",""
"","html-keyboard-response","110","239143","0.0-3.0-0.0-2.16","fudttrkjtv","green","null","","","","","<p style=""font-size:300%;""> + 2 points.</p><p style=""font-size:300%"">Total: 50 points.</p>","null","","","","","","","50","",""
"","html-keyboard-response","111","240946","0.0-3.0-0.0-0.17","fudttrkjtv","green","null","","","","","<svg viewBox=""0 0 100 100"" > <path d=""M 50 52 L 50 48"" stroke=""black"" stroke-width="".5""/> <path d=""M 52 50 L 48 50"" stroke=""black"" stroke-width="".5""/>","null","","","","","","","","",""
"","html-keyboard-response","112","241533","0.0-3.0-0.0-1.17","fudttrkjtv","green","585.6449999992037","","","","","<svg viewBox=""0 0 100 100"" ><circle cx=""50"" cy=""50"" r=""10"" fill=""none"" transform=""translate( 26  15)"" stroke=""blueviolet"" /><circle cx=""50"" cy=""50"" r=""10"" fill=""none"" transform=""translate(  0  30)"" stroke=""gold"" /><circle cx=""50"" cy=""50"" r=""10"" fill=""none"" transform=""translate(-26  15)"" stroke=""magenta"" /><circle cx=""50"" cy=""50"" r=""10"" fill=""none"" transform=""translate(-26 -15)"" stroke=""green"" /><circle cx=""50"" cy=""50"" r=""10"" fill=""none"" transform=""translate(  0 -30)"" stroke=""cyan"" /><circle cx=""50"" cy=""50"" r=""10"" fill=""none"" transform=""translate( 26 -15)"" stroke=""black"" /><path d=""M 50 57 L 50 43"" stroke=""black"" transform=""translate( 26  15) rotate(-45 50 50)""/><path d=""M 50 57 L 50 43"" stroke=""black"" transform=""translate(  0  30) rotate(45 50 50)""/><path d=""M 50 57 L 50 43"" stroke=""black"" transform=""translate(-26  15) rotate(45 50 50)""/><path d=""M 50 57 L 50 43"" stroke=""black"" transform=""translate(-26 -15) rotate(90 50 50)""/><path d=""M 50 57 L 50 43"" stroke=""black"" transform=""translate(  0 -30) rotate(-45 50 50)""/><path d=""M 50 57 L 50 43"" stroke=""black"" transform=""translate( 26 -15) rotate(-45 50 50)""/><path d=""M 50 52 L 50 48"" stroke=""black"" stroke-width="".5""/> <path d=""M 52 50 L 48 50"" stroke=""black"" stroke-width="".5""/></svg>","90","VDACtest","green","4th","horizontal","true","high","","",""
"","html-keyboard-response","113","244034","0.0-3.0-0.0-2.17","fudttrkjtv","green","null","","","","","<p style=""font-size:300%;""> + 2 points.</p><p style=""font-size:300%"">Total: 52 points.</p>","null","","","","","","","52","",""
"","html-keyboard-response","114","245831","0.0-3.0-0.0-0.18","fudttrkjtv","green","null","","","","","<svg viewBox=""0 0 100 100"" > <path d=""M 50 52 L 50 48"" stroke=""black"" stroke-width="".5""/> <path d=""M 52 50 L 48 50"" stroke=""black"" stroke-width="".5""/>","null","","","","","","","","",""
"","html-keyboard-response","115","246343","0.0-3.0-0.0-1.18","fudttrkjtv","green","510.7900000002701","","","","","<svg viewBox=""0 0 100 100"" ><circle cx=""50"" cy=""50"" r=""10"" fill=""none"" transform=""translate( 26  15)"" stroke=""blueviolet"" /><circle cx=""50"" cy=""50"" r=""10"" fill=""none"" transform=""translate(  0  30)"" stroke=""black"" /><circle cx=""50"" cy=""50"" r=""10"" fill=""none"" transform=""translate(-26  15)"" stroke=""red"" /><circle cx=""50"" cy=""50"" r=""10"" fill=""none"" transform=""translate(-26 -15)"" stroke=""magenta"" /><circle cx=""50"" cy=""50"" r=""10"" fill=""none"" transform=""translate(  0 -30)"" stroke=""gold"" /><circle cx=""50"" cy=""50"" r=""10"" fill=""none"" transform=""translate( 26 -15)"" stroke=""cyan"" /><path d=""M 50 57 L 50 43"" stroke=""black"" transform=""translate( 26  15) rotate(-45 50 50)""/><path d=""M 50 57 L 50 43"" stroke=""black"" transform=""translate(  0  30) rotate(-45 50 50)""/><path d=""M 50 57 L 50 43"" stroke=""black"" transform=""translate(-26  15) rotate(90 50 50)""/><path d=""M 50 57 L 50 43"" stroke=""black"" transform=""translate(-26 -15) rotate(45 50 50)""/><path d=""M 50 57 L 50 43"" stroke=""black"" transform=""translate(  0 -30) rotate(-45 50 50)""/><path d=""M 50 57 L 50 43"" stroke=""black"" transform=""translate( 26 -15) rotate(-45 50 50)""/><path d=""M 50 52 L 50 48"" stroke=""black"" stroke-width="".5""/> <path d=""M 52 50 L 48 50"" stroke=""black"" stroke-width="".5""/></svg>","90","VDACtest","red","3rd","horizontal","true","low","","",""
"","html-keyboard-response","116","248844","0.0-3.0-0.0-2.18","fudttrkjtv","green","null","","","","","<p style=""font-size:300%;""> + 2 points.</p><p style=""font-size:300%"">Total: 54 points.</p>","null","","","","","","","54","",""
"","html-keyboard-response","117","250641","0.0-3.0-0.0-0.19","fudttrkjtv","green","null","","","","","<svg viewBox=""0 0 100 100"" > <path d=""M 50 52 L 50 48"" stroke=""black"" stroke-width="".5""/> <path d=""M 52 50 L 48 50"" stroke=""black"" stroke-width="".5""/>","null","","","","","","","","",""
"","html-keyboard-response","118","251284","0.0-3.0-0.0-1.19","fudttrkjtv","green","641.6949999984354","","","","","<svg viewBox=""0 0 100 100"" ><circle cx=""50"" cy=""50"" r=""10"" fill=""none"" transform=""translate( 26  15)"" stroke=""blueviolet"" /><circle cx=""50"" cy=""50"" r=""10"" fill=""none"" transform=""translate(  0  30)"" stroke=""magenta"" /><circle cx=""50"" cy=""50"" r=""10"" fill=""none"" transform=""translate(-26  15)"" stroke=""green"" /><circle cx=""50"" cy=""50"" r=""10"" fill=""none"" transform=""translate(-26 -15)"" stroke=""gold"" /><circle cx=""50"" cy=""50"" r=""10"" fill=""none"" transform=""translate(  0 -30)"" stroke=""cyan"" /><circle cx=""50"" cy=""50"" r=""10"" fill=""none"" transform=""translate( 26 -15)"" stroke=""black"" /><path d=""M 50 57 L 50 43"" stroke=""black"" transform=""translate( 26  15) rotate(45 50 50)""/><path d=""M 50 57 L 50 43"" stroke=""black"" transform=""translate(  0  30) rotate(-45 50 50)""/><path d=""M 50 57 L 50 43"" stroke=""black"" transform=""translate(-26  15) rotate(90 50 50)""/><path d=""M 50 57 L 50 43"" stroke=""black"" transform=""translate(-26 -15) rotate(45 50 50)""/><path d=""M 50 57 L 50 43"" stroke=""black"" transform=""translate(  0 -30) rotate(-45 50 50)""/><path d=""M 50 57 L 50 43"" stroke=""black"" transform=""translate( 26 -15) rotate(45 50 50)""/><path d=""M 50 52 L 50 48"" stroke=""black"" stroke-width="".5""/> <path d=""M 52 50 L 48 50"" stroke=""black"" stroke-width="".5""/></svg>","90","VDACtest","green","3rd","horizontal","true","high","","",""
"","html-keyboard-response","119","253786","0.0-3.0-0.0-2.19","fudttrkjtv","green","null","","","","","<p style=""font-size:300%;""> + 10 points.</p><p style=""font-size:300%"">Total: 64 points.</p>","null","","","","","","","64","",""
"","call-function","120","254788","0.0-4.0","fudttrkjtv","green","","","","","","","","","","","","","","","",""
"","instructions","121","330152","0.0-5.0-0.0","fudttrkjtv","green","75363.72000000117","","","","[{""page_index"":0,""viewing_time"":33402.08999999959},{""page_index"":1,""viewing_time"":25989.17000000074},{""page_index"":0,""viewing_time"":1289.8999999997322},{""page_index"":1,""viewing_time"":14682.460000000021}]","","","","","","","","","","",""
"","html-keyboard-response","122","332154","0.0-5.0-1.0-0.0","fudttrkjtv","green","null","","","","","<p>Place your fingers on the <b>Z</b> and <b>M</b> keys. The experiment will begin shortly.</p><p>&nbsp</p>","null","","","","","","","","",""
"","html-keyboard-response","123","333155","0.0-5.0-1.0-1.0","fudttrkjtv","green","null","","","","","<p>Place your fingers on the <b>Z</b> and <b>M</b> keys. The experiment will begin shortly.</p><p>3</p>","null","","","","","","","","",""
"","html-keyboard-response","124","334156","0.0-5.0-1.0-2.0","fudttrkjtv","green","null","","","","","<p>Place your fingers on the <b>Z</b> and <b>M</b> keys. The experiment will begin shortly.</p><p>2</p>","null","","","","","","","","",""
"","html-keyboard-response","125","335157","0.0-5.0-1.0-3.0","fudttrkjtv","green","null","","","","","<p>Place your fingers on the <b>Z</b> and <b>M</b> keys. The experiment will begin shortly.</p><p>1</p>","null","","","","","","","","",""
"","html-keyboard-response","126","335953","0.0-5.0-2.0-0.0","fudttrkjtv","green","null","","","","","<svg viewBox=""0 0 100 100"" > <path d=""M 50 52 L 50 48"" stroke=""black"" stroke-width="".5""/> <path d=""M 52 50 L 48 50"" stroke=""black"" stroke-width="".5""/>","null","","","","","","","","",""
"","html-keyboard-response","127","336454","0.0-5.0-2.0-1.0-0.0","fudttrkjtv","green","null","","","","","<p style=""color: black; text-align:center; font-family: BACS2; font-size:1000%;"">M</p>","null","","","","","","","","",""
"","html-keyboard-response","128","336955","0.0-5.0-2.0-1.0-1.0","fudttrkjtv","green","null","","","","","<p style=""color: black; text-align:center; font-family: BACS2; font-size:1000%;"">X</p>","null","","","","","","","","",""
"","html-keyboard-response","129","337456","0.0-5.0-2.0-1.0-2.0","fudttrkjtv","green","null","","","","","<p style=""color: black; text-align:center; font-family: BACS1; font-size:1000%;"">r</p>","null","","","","","","","","",""
"","html-keyboard-response","130","337958","0.0-5.0-2.0-1.0-3.0","fudttrkjtv","green","null","","","","","<svg xmlns=""http://www.w3.org/2000/svg"" width=""500"" height=""500"" viewBox=""-5 -5 20 20""> <rect x=""0"" y=""0"" width=""10"" height=""10"" /><path fill=""#FFF"" d=""M 0,1 H 10 v 1 H 0 z m 0,2 H 10 v 1 H 0 zm 0,2 H 10 v 1 H 0 zm 0,2 H 10 v 1 H 0 zm 0,2 H 10 v 1 H 0 zM 1,0 V 10 h 1 V 0 zm 2,0 V 10 h 1 V 0 zm 2,0 V 10 h 1 V 0 zm 2,0 V 10 h 1 V 0 zm 2,0 V 10 h 1 V 0 z""/></svg>","null","","","","","","","","",""
"","html-keyboard-response","131","338649","0.0-5.0-2.0-1.0-4.0","fudttrkjtv","green","689.8600000021979","","","","","<p style=""color: black; text-align:center; font-family: BACS2; font-size:1000%;"">e</p>","77","RSVPtraining","","new","","true","","","",""
"","html-keyboard-response","132","341150","0.0-5.0-2.0-2.0","fudttrkjtv","green","null","","","","","<p style=""font-size:300%;"">Correct!</p>","null","","","","","","","","",""
"","html-keyboard-response","133","342948","0.0-5.0-2.0-0.1","fudttrkjtv","green","null","","","","","<svg viewBox=""0 0 100 100"" > <path d=""M 50 52 L 50 48"" stroke=""black"" stroke-width="".5""/> <path d=""M 52 50 L 48 50"" stroke=""black"" stroke-width="".5""/>","null","","","","","","","","",""
"","html-keyboard-response","134","343450","0.0-5.0-2.0-1.1-0.1","fudttrkjtv","green","null","","","","","<p style=""color: black; text-align:center; font-family: BACS2; font-size:1000%;"">s</p>","null","","","","","","","","",""
"","html-keyboard-response","135","343951","0.0-5.0-2.0-1.1-1.1","fudttrkjtv","green","null","","","","","<p style=""color: black; text-align:center; font-family: BACS1; font-size:1000%;"">v</p>","null","","","","","","","","",""
"","html-keyboard-response","136","344452","0.0-5.0-2.0-1.1-2.1","fudttrkjtv","green","null","","","","","<p style=""color: black; text-align:center; font-family: BACS2; font-size:1000%;"">G</p>","null","","","","","","","","",""
"","html-keyboard-response","137","344953","0.0-5.0-2.0-1.1-3.1","fudttrkjtv","green","null","","","","","<svg xmlns=""http://www.w3.org/2000/svg"" width=""500"" height=""500"" viewBox=""-5 -5 20 20""> <rect x=""0"" y=""0"" width=""10"" height=""10"" /><path fill=""#FFF"" d=""M 0,1 H 10 v 1 H 0 z m 0,2 H 10 v 1 H 0 zm 0,2 H 10 v 1 H 0 zm 0,2 H 10 v 1 H 0 zm 0,2 H 10 v 1 H 0 zM 1,0 V 10 h 1 V 0 zm 2,0 V 10 h 1 V 0 zm 2,0 V 10 h 1 V 0 zm 2,0 V 10 h 1 V 0 zm 2,0 V 10 h 1 V 0 z""/></svg>","null","","","","","","","","",""
"","html-keyboard-response","138","345564","0.0-5.0-2.0-1.1-4.1","fudttrkjtv","green","609.7799999988638","","","","","<p style=""color: black; text-align:center; font-family: BACS2; font-size:1000%;"">G</p>","90","RSVPtraining","","3rd","","true","","","",""
"","html-keyboard-response","139","348065","0.0-5.0-2.0-2.1","fudttrkjtv","green","null","","","","","<p style=""font-size:300%;"">Correct!</p>","null","","","","","","","","",""
"","html-keyboard-response","140","349863","0.0-5.0-2.0-0.2","fudttrkjtv","green","null","","","","","<svg viewBox=""0 0 100 100"" > <path d=""M 50 52 L 50 48"" stroke=""black"" stroke-width="".5""/> <path d=""M 52 50 L 48 50"" stroke=""black"" stroke-width="".5""/>","null","","","","","","","","",""
"","html-keyboard-response","141","350363","0.0-5.0-2.0-1.2-0.2","fudttrkjtv","green","null","","","","","<p style=""color: black; text-align:center; font-family: BACS1; font-size:1000%;"">F</p>","null","","","","","","","","",""
"","html-keyboard-response","142","350864","0.0-5.0-2.0-1.2-1.2","fudttrkjtv","green","null","","","","","<p style=""color: black; text-align:center; font-family: BACS1; font-size:1000%;"">S</p>","null","","","","","","","","",""
"","html-keyboard-response","143","351365","0.0-5.0-2.0-1.2-2.2","fudttrkjtv","green","null","","","","","<p style=""color: black; text-align:center; font-family: BACS2; font-size:1000%;"">o</p>","null","","","","","","","","",""
"","html-keyboard-response","144","351866","0.0-5.0-2.0-1.2-3.2","fudttrkjtv","green","null","","","","","<svg xmlns=""http://www.w3.org/2000/svg"" width=""500"" height=""500"" viewBox=""-5 -5 20 20""> <rect x=""0"" y=""0"" width=""10"" height=""10"" /><path fill=""#FFF"" d=""M 0,1 H 10 v 1 H 0 z m 0,2 H 10 v 1 H 0 zm 0,2 H 10 v 1 H 0 zm 0,2 H 10 v 1 H 0 zm 0,2 H 10 v 1 H 0 zM 1,0 V 10 h 1 V 0 zm 2,0 V 10 h 1 V 0 zm 2,0 V 10 h 1 V 0 zm 2,0 V 10 h 1 V 0 zm 2,0 V 10 h 1 V 0 z""/></svg>","null","","","","","","","","",""
"","html-keyboard-response","145","352433","0.0-5.0-2.0-1.2-4.2","fudttrkjtv","green","566.4500000021071","","","","","<p style=""color: black; text-align:center; font-family: BACS1; font-size:1000%;"">F</p>","90","RSVPtraining","","1st","","true","","","",""
"","html-keyboard-response","146","354935","0.0-5.0-2.0-2.2","fudttrkjtv","green","null","","","","","<p style=""font-size:300%;"">Correct!</p>","null","","","","","","","","",""
"","html-keyboard-response","147","356732","0.0-5.0-2.0-0.3","fudttrkjtv","green","null","","","","","<svg viewBox=""0 0 100 100"" > <path d=""M 50 52 L 50 48"" stroke=""black"" stroke-width="".5""/> <path d=""M 52 50 L 48 50"" stroke=""black"" stroke-width="".5""/>","null","","","","","","","","",""
"","html-keyboard-response","148","357233","0.0-5.0-2.0-1.3-0.3","fudttrkjtv","green","null","","","","","<p style=""color: black; text-align:center; font-family: BACS1; font-size:1000%;"">m</p>","null","","","","","","","","",""
"","html-keyboard-response","149","357734","0.0-5.0-2.0-1.3-1.3","fudttrkjtv","green","null","","","","","<p style=""color: black; text-align:center; font-family: BACS1; font-size:1000%;"">p</p>","null","","","","","","","","",""
"","html-keyboard-response","150","358235","0.0-5.0-2.0-1.3-2.3","fudttrkjtv","green","null","","","","","<p style=""color: black; text-align:center; font-family: BACS1; font-size:1000%;"">v</p>","null","","","","","","","","",""
"","html-keyboard-response","151","358736","0.0-5.0-2.0-1.3-3.3","fudttrkjtv","green","null","","","","","<svg xmlns=""http://www.w3.org/2000/svg"" width=""500"" height=""500"" viewBox=""-5 -5 20 20""> <rect x=""0"" y=""0"" width=""10"" height=""10"" /><path fill=""#FFF"" d=""M 0,1 H 10 v 1 H 0 z m 0,2 H 10 v 1 H 0 zm 0,2 H 10 v 1 H 0 zm 0,2 H 10 v 1 H 0 zm 0,2 H 10 v 1 H 0 zM 1,0 V 10 h 1 V 0 zm 2,0 V 10 h 1 V 0 zm 2,0 V 10 h 1 V 0 zm 2,0 V 10 h 1 V 0 zm 2,0 V 10 h 1 V 0 z""/></svg>","null","","","","","","","","",""
"","html-keyboard-response","152","359439","0.0-5.0-2.0-1.3-4.3","fudttrkjtv","green","702.9050000019488","","","","","<p style=""color: black; text-align:center; font-family: BACS1; font-size:1000%;"">t</p>","77","RSVPtraining","","new","","true","","","",""
"","html-keyboard-response","153","361942","0.0-5.0-2.0-2.3","fudttrkjtv","green","null","","","","","<p style=""font-size:300%;"">Correct!</p>","null","","","","","","","","",""
"","html-keyboard-response","154","363739","0.0-5.0-2.0-0.4","fudttrkjtv","green","null","","","","","<svg viewBox=""0 0 100 100"" > <path d=""M 50 52 L 50 48"" stroke=""black"" stroke-width="".5""/> <path d=""M 52 50 L 48 50"" stroke=""black"" stroke-width="".5""/>","null","","","","","","","","",""
"","html-keyboard-response","155","364240","0.0-5.0-2.0-1.4-0.4","fudttrkjtv","green","null","","","","","<p style=""color: black; text-align:center; font-family: BACS2; font-size:1000%;"">x</p>","null","","","","","","","","",""
"","html-keyboard-response","156","364742","0.0-5.0-2.0-1.4-1.4","fudttrkjtv","green","null","","","","","<p style=""color: black; text-align:center; font-family: BACS1; font-size:1000%;"">q</p>","null","","","","","","","","",""
"","html-keyboard-response","157","365243","0.0-5.0-2.0-1.4-2.4","fudttrkjtv","green","null","","","","","<p style=""color: black; text-align:center; font-family: BACS2; font-size:1000%;"">B</p>","null","","","","","","","","",""
"","html-keyboard-response","158","365744","0.0-5.0-2.0-1.4-3.4","fudttrkjtv","green","null","","","","","<svg xmlns=""http://www.w3.org/2000/svg"" width=""500"" height=""500"" viewBox=""-5 -5 20 20""> <rect x=""0"" y=""0"" width=""10"" height=""10"" /><path fill=""#FFF"" d=""M 0,1 H 10 v 1 H 0 z m 0,2 H 10 v 1 H 0 zm 0,2 H 10 v 1 H 0 zm 0,2 H 10 v 1 H 0 zm 0,2 H 10 v 1 H 0 zM 1,0 V 10 h 1 V 0 zm 2,0 V 10 h 1 V 0 zm 2,0 V 10 h 1 V 0 zm 2,0 V 10 h 1 V 0 zm 2,0 V 10 h 1 V 0 z""/></svg>","null","","","","","","","","",""
"","html-keyboard-response","159","367000","0.0-5.0-2.0-1.4-4.4","fudttrkjtv","green","1255.3200000001816","","","","","<p style=""color: black; text-align:center; font-family: BACS1; font-size:1000%;"">q</p>","90","RSVPtraining","","2nd","","true","","","",""
"","html-keyboard-response","160","369500","0.0-5.0-2.0-2.4","fudttrkjtv","green","null","","","","","<p style=""font-size:300%;"">Correct!</p>","null","","","","","","","","",""
"","html-keyboard-response","161","371296","0.0-5.0-2.0-0.5","fudttrkjtv","green","null","","","","","<svg viewBox=""0 0 100 100"" > <path d=""M 50 52 L 50 48"" stroke=""black"" stroke-width="".5""/> <path d=""M 52 50 L 48 50"" stroke=""black"" stroke-width="".5""/>","null","","","","","","","","",""
"","html-keyboard-response","162","371798","0.0-5.0-2.0-1.5-0.5","fudttrkjtv","green","null","","","","","<p style=""color: black; text-align:center; font-family: BACS2; font-size:1000%;"">Q</p>","null","","","","","","","","",""
"","html-keyboard-response","163","372299","0.0-5.0-2.0-1.5-1.5","fudttrkjtv","green","null","","","","","<p style=""color: black; text-align:center; font-family: BACS1; font-size:1000%;"">b</p>","null","","","","","","","","",""
"","html-keyboard-response","164","372800","0.0-5.0-2.0-1.5-2.5","fudttrkjtv","green","null","","","","","<p style=""color: black; text-align:center; font-family: BACS2; font-size:1000%;"">z</p>","null","","","","","","","","",""
"","html-keyboard-response","165","373301","0.0-5.0-2.0-1.5-3.5","fudttrkjtv","green","null","","","","","<svg xmlns=""http://www.w3.org/2000/svg"" width=""500"" height=""500"" viewBox=""-5 -5 20 20""> <rect x=""0"" y=""0"" width=""10"" height=""10"" /><path fill=""#FFF"" d=""M 0,1 H 10 v 1 H 0 z m 0,2 H 10 v 1 H 0 zm 0,2 H 10 v 1 H 0 zm 0,2 H 10 v 1 H 0 zm 0,2 H 10 v 1 H 0 zM 1,0 V 10 h 1 V 0 zm 2,0 V 10 h 1 V 0 zm 2,0 V 10 h 1 V 0 zm 2,0 V 10 h 1 V 0 zm 2,0 V 10 h 1 V 0 z""/></svg>","null","","","","","","","","",""
"","html-keyboard-response","166","373929","0.0-5.0-2.0-1.5-4.5","fudttrkjtv","green","627.0299999996205","","","","","<p style=""color: black; text-align:center; font-family: BACS2; font-size:1000%;"">N</p>","77","RSVPtraining","","new","","true","","","",""
"","html-keyboard-response","167","376429","0.0-5.0-2.0-2.5","fudttrkjtv","green","null","","","","","<p style=""font-size:300%;"">Correct!</p>","null","","","","","","","","",""
"","html-keyboard-response","168","378227","0.0-5.0-2.0-0.6","fudttrkjtv","green","null","","","","","<svg viewBox=""0 0 100 100"" > <path d=""M 50 52 L 50 48"" stroke=""black"" stroke-width="".5""/> <path d=""M 52 50 L 48 50"" stroke=""black"" stroke-width="".5""/>","null","","","","","","","","",""
"","html-keyboard-response","169","378729","0.0-5.0-2.0-1.6-0.6","fudttrkjtv","green","null","","","","","<p style=""color: black; text-align:center; font-family: BACS1; font-size:1000%;"">C</p>","null","","","","","","","","",""
"","html-keyboard-response","170","379230","0.0-5.0-2.0-1.6-1.6","fudttrkjtv","green","null","","","","","<p style=""color: black; text-align:center; font-family: BACS2; font-size:1000%;"">W</p>","null","","","","","","","","",""
"","html-keyboard-response","171","379731","0.0-5.0-2.0-1.6-2.6","fudttrkjtv","green","null","","","","","<p style=""color: black; text-align:center; font-family: BACS1; font-size:1000%;"">L</p>","null","","","","","","","","",""
"","html-keyboard-response","172","380232","0.0-5.0-2.0-1.6-3.6","fudttrkjtv","green","null","","","","","<svg xmlns=""http://www.w3.org/2000/svg"" width=""500"" height=""500"" viewBox=""-5 -5 20 20""> <rect x=""0"" y=""0"" width=""10"" height=""10"" /><path fill=""#FFF"" d=""M 0,1 H 10 v 1 H 0 z m 0,2 H 10 v 1 H 0 zm 0,2 H 10 v 1 H 0 zm 0,2 H 10 v 1 H 0 zm 0,2 H 10 v 1 H 0 zM 1,0 V 10 h 1 V 0 zm 2,0 V 10 h 1 V 0 zm 2,0 V 10 h 1 V 0 zm 2,0 V 10 h 1 V 0 zm 2,0 V 10 h 1 V 0 z""/></svg>","null","","","","","","","","",""
"","html-keyboard-response","173","380863","0.0-5.0-2.0-1.6-4.6","fudttrkjtv","green","629.6049999982934","","","","","<p style=""color: black; text-align:center; font-family: BACS1; font-size:1000%;"">C</p>","77","RSVPtraining","","1st","","false","","","",""
"","html-keyboard-response","174","383364","0.0-5.0-2.0-2.6","fudttrkjtv","green","null","","","","","<p style=""font-size:300%;"">Miss.</p> <p style=""font-size:300%;"">Wrong response.</p>","null","","","","","","","","",""
"","html-keyboard-response","175","385161","0.0-5.0-2.0-0.7","fudttrkjtv","green","null","","","","","<svg viewBox=""0 0 100 100"" > <path d=""M 50 52 L 50 48"" stroke=""black"" stroke-width="".5""/> <path d=""M 52 50 L 48 50"" stroke=""black"" stroke-width="".5""/>","null","","","","","","","","",""
"","html-keyboard-response","176","385661","0.0-5.0-2.0-1.7-0.7","fudttrkjtv","green","null","","","","","<p style=""color: black; text-align:center; font-family: BACS1; font-size:1000%;"">g</p>","null","","","","","","","","",""
"","html-keyboard-response","177","386162","0.0-5.0-2.0-1.7-1.7","fudttrkjtv","green","null","","","","","<p style=""color: black; text-align:center; font-family: BACS2; font-size:1000%;"">Z</p>","null","","","","","","","","",""
"","html-keyboard-response","178","386663","0.0-5.0-2.0-1.7-2.7","fudttrkjtv","green","null","","","","","<p style=""color: black; text-align:center; font-family: BACS2; font-size:1000%;"">v</p>","null","","","","","","","","",""
"","html-keyboard-response","179","387164","0.0-5.0-2.0-1.7-3.7","fudttrkjtv","green","null","","","","","<svg xmlns=""http://www.w3.org/2000/svg"" width=""500"" height=""500"" viewBox=""-5 -5 20 20""> <rect x=""0"" y=""0"" width=""10"" height=""10"" /><path fill=""#FFF"" d=""M 0,1 H 10 v 1 H 0 z m 0,2 H 10 v 1 H 0 zm 0,2 H 10 v 1 H 0 zm 0,2 H 10 v 1 H 0 zm 0,2 H 10 v 1 H 0 zM 1,0 V 10 h 1 V 0 zm 2,0 V 10 h 1 V 0 zm 2,0 V 10 h 1 V 0 zm 2,0 V 10 h 1 V 0 zm 2,0 V 10 h 1 V 0 z""/></svg>","null","","","","","","","","",""
"","html-keyboard-response","180","387860","0.0-5.0-2.0-1.7-4.7","fudttrkjtv","green","694.9600000007194","","","","","<p style=""color: black; text-align:center; font-family: BACS2; font-size:1000%;"">Z</p>","90","RSVPtraining","","2nd","","true","","","",""
"","html-keyboard-response","181","390361","0.0-5.0-2.0-2.7","fudttrkjtv","green","null","","","","","<p style=""font-size:300%;"">Correct!</p>","null","","","","","","","","",""
"","html-keyboard-response","182","392157","0.0-5.0-2.0-0.8","fudttrkjtv","green","null","","","","","<svg viewBox=""0 0 100 100"" > <path d=""M 50 52 L 50 48"" stroke=""black"" stroke-width="".5""/> <path d=""M 52 50 L 48 50"" stroke=""black"" stroke-width="".5""/>","null","","","","","","","","",""
"","html-keyboard-response","183","392658","0.0-5.0-2.0-1.8-0.8","fudttrkjtv","green","null","","","","","<p style=""color: black; text-align:center; font-family: BACS1; font-size:1000%;"">R</p>","null","","","","","","","","",""
"","html-keyboard-response","184","393159","0.0-5.0-2.0-1.8-1.8","fudttrkjtv","green","null","","","","","<p style=""color: black; text-align:center; font-family: BACS2; font-size:1000%;"">a</p>","null","","","","","","","","",""
"","html-keyboard-response","185","393664","0.0-5.0-2.0-1.8-2.8","fudttrkjtv","green","null","","","","","<p style=""color: black; text-align:center; font-family: BACS2; font-size:1000%;"">o</p>","null","","","","","","","","",""
"","html-keyboard-response","186","394164","0.0-5.0-2.0-1.8-3.8","fudttrkjtv","green","null","","","","","<svg xmlns=""http://www.w3.org/2000/svg"" width=""500"" height=""500"" viewBox=""-5 -5 20 20""> <rect x=""0"" y=""0"" width=""10"" height=""10"" /><path fill=""#FFF"" d=""M 0,1 H 10 v 1 H 0 z m 0,2 H 10 v 1 H 0 zm 0,2 H 10 v 1 H 0 zm 0,2 H 10 v 1 H 0 zm 0,2 H 10 v 1 H 0 zM 1,0 V 10 h 1 V 0 zm 2,0 V 10 h 1 V 0 zm 2,0 V 10 h 1 V 0 zm 2,0 V 10 h 1 V 0 zm 2,0 V 10 h 1 V 0 z""/></svg>","null","","","","","","","","",""
"","html-keyboard-response","187","394773","0.0-5.0-2.0-1.8-4.8","fudttrkjtv","green","607.8100000013364","","","","","<p style=""color: black; text-align:center; font-family: BACS2; font-size:1000%;"">u</p>","77","RSVPtraining","","new","","true","","","",""
"","html-keyboard-response","188","397274","0.0-5.0-2.0-2.8","fudttrkjtv","green","null","","","","","<p style=""font-size:300%;"">Correct!</p>","null","","","","","","","","",""
"","html-keyboard-response","189","399072","0.0-5.0-2.0-0.9","fudttrkjtv","green","null","","","","","<svg viewBox=""0 0 100 100"" > <path d=""M 50 52 L 50 48"" stroke=""black"" stroke-width="".5""/> <path d=""M 52 50 L 48 50"" stroke=""black"" stroke-width="".5""/>","null","","","","","","","","",""
"","html-keyboard-response","190","399573","0.0-5.0-2.0-1.9-0.9","fudttrkjtv","green","null","","","","","<p style=""color: black; text-align:center; font-family: BACS1; font-size:1000%;"">P</p>","null","","","","","","","","",""
"","html-keyboard-response","191","400073","0.0-5.0-2.0-1.9-1.9","fudttrkjtv","green","null","","","","","<p style=""color: black; text-align:center; font-family: BACS1; font-size:1000%;"">B</p>","null","","","","","","","","",""
"","html-keyboard-response","192","400575","0.0-5.0-2.0-1.9-2.9","fudttrkjtv","green","null","","","","","<p style=""color: black; text-align:center; font-family: BACS2; font-size:1000%;"">p</p>","null","","","","","","","","",""
"","html-keyboard-response","193","401075","0.0-5.0-2.0-1.9-3.9","fudttrkjtv","green","null","","","","","<svg xmlns=""http://www.w3.org/2000/svg"" width=""500"" height=""500"" viewBox=""-5 -5 20 20""> <rect x=""0"" y=""0"" width=""10"" height=""10"" /><path fill=""#FFF"" d=""M 0,1 H 10 v 1 H 0 z m 0,2 H 10 v 1 H 0 zm 0,2 H 10 v 1 H 0 zm 0,2 H 10 v 1 H 0 zm 0,2 H 10 v 1 H 0 zM 1,0 V 10 h 1 V 0 zm 2,0 V 10 h 1 V 0 zm 2,0 V 10 h 1 V 0 zm 2,0 V 10 h 1 V 0 zm 2,0 V 10 h 1 V 0 z""/></svg>","null","","","","","","","","",""
"","html-keyboard-response","194","401609","0.0-5.0-2.0-1.9-4.9","fudttrkjtv","green","532.7199999992154","","","","","<p style=""color: black; text-align:center; font-family: BACS2; font-size:1000%;"">w</p>","77","RSVPtraining","","new","","true","","","",""
"","html-keyboard-response","195","404110","0.0-5.0-2.0-2.9","fudttrkjtv","green","null","","","","","<p style=""font-size:300%;"">Correct!</p>","null","","","","","","","","",""
"","html-keyboard-response","196","409531","0.0-5.0-3.0","fudttrkjtv","green","4418.910000000382","","","","","<p>You have now finished the training exercise. If you would like to repeat the instructions and training exercise, press R. If you are ready to continue to the task, press C. </p>","67","","","","","","","","",""
"","html-keyboard-response","197","411446","0.0-6.0-0.0","fudttrkjtv","green","1915.0599999993574","","","","","<p>Place your fingers on the <b>Z</b> and <b>M</b> keys. The experiment will begin shortly.</p><p>&nbsp</p>","90","","","","","","","","",""
"","html-keyboard-response","198","412065","0.0-6.0-1.0","fudttrkjtv","green","618.3400000008987","","","","","<p>Place your fingers on the <b>Z</b> and <b>M</b> keys. The experiment will begin shortly.</p><p>3</p>","90","","","","","","","","",""
"","html-keyboard-response","199","413065","0.0-6.0-2.0","fudttrkjtv","green","null","","","","","<p>Place your fingers on the <b>Z</b> and <b>M</b> keys. The experiment will begin shortly.</p><p>2</p>","null","","","","","","","","",""
"","html-keyboard-response","200","413636","0.0-6.0-3.0","fudttrkjtv","green","570.3499999981723","","","","","<p>Place your fingers on the <b>Z</b> and <b>M</b> keys. The experiment will begin shortly.</p><p>1</p>","90","","","","","","","","",""
"","html-keyboard-response","201","414432","0.0-7.0-0.0-0.0","fudttrkjtv","green","null","","","","","<svg viewBox=""0 0 100 100"" > <path d=""M 50 52 L 50 48"" stroke=""black"" stroke-width="".5""/> <path d=""M 52 50 L 48 50"" stroke=""black"" stroke-width="".5""/>","null","","","","","","","","",""
"","html-keyboard-response","202","414933","0.0-7.0-0.0-1.0-0.0","fudttrkjtv","green","null","","","","","<p style=""color: black; text-align:center; font-family: BACS2; font-size:1000%;"">P</p>","null","","","","","","","","",""
"","html-keyboard-response","203","415434","0.0-7.0-0.0-1.0-1.0","fudttrkjtv","green","null","","","","","<p style=""color: black; text-align:center; font-family: BACS1; font-size:1000%;"">r</p>","null","","","","","","","","",""
"","html-keyboard-response","204","415935","0.0-7.0-0.0-1.0-2.0","fudttrkjtv","green","null","","","","","<p style=""color: black; text-align:center; font-family: BACS1; font-size:1000%;"">K</p>","null","","","","","","","","",""
"","html-keyboard-response","205","416435","0.0-7.0-0.0-1.0-3.0","fudttrkjtv","green","null","","","","","<svg xmlns=""http://www.w3.org/2000/svg"" width=""500"" height=""500"" viewBox=""-5 -5 20 20""> <rect x=""0"" y=""0"" width=""10"" height=""10"" /><path fill=""#FFF"" d=""M 0,1 H 10 v 1 H 0 z m 0,2 H 10 v 1 H 0 zm 0,2 H 10 v 1 H 0 zm 0,2 H 10 v 1 H 0 zm 0,2 H 10 v 1 H 0 zM 1,0 V 10 h 1 V 0 zm 2,0 V 10 h 1 V 0 zm 2,0 V 10 h 1 V 0 zm 2,0 V 10 h 1 V 0 zm 2,0 V 10 h 1 V 0 z""/></svg>","null","","","","","","","","",""
"","html-keyboard-response","206","416957","0.0-7.0-0.0-1.0-4.0","fudttrkjtv","green","520.3000000001048","","","","","<p style=""color: black; text-align:center; font-family: BACS2; font-size:1000%;"">P</p>","90","RSVPtest","none","1st","","true","none","","","none"
"","html-keyboard-response","207","419460","0.0-7.0-0.0-2.0","fudttrkjtv","green","null","","","","","<p style=""font-size:300%;"">Correct!</p>","null","","","","","","","","",""
"","html-keyboard-response","208","421257","0.0-7.0-0.0-0.1","fudttrkjtv","green","null","","","","","<svg viewBox=""0 0 100 100"" > <path d=""M 50 52 L 50 48"" stroke=""black"" stroke-width="".5""/> <path d=""M 52 50 L 48 50"" stroke=""black"" stroke-width="".5""/>","null","","","","","","","","",""
"","html-keyboard-response","209","421758","0.0-7.0-0.0-1.1-0.1","fudttrkjtv","green","null","","","","","<p style=""color: green; text-align:center; font-family: BACS1; font-size:1000%;"">q</p>","null","","","","","","","","",""
"","html-keyboard-response","210","422259","0.0-7.0-0.0-1.1-1.1","fudttrkjtv","green","null","","","","","<p style=""color: black; text-align:center; font-family: BACS2; font-size:1000%;"">g</p>","null","","","","","","","","",""
"","html-keyboard-response","211","422760","0.0-7.0-0.0-1.1-2.1","fudttrkjtv","green","null","","","","","<p style=""color: black; text-align:center; font-family: BACS2; font-size:1000%;"">K</p>","null","","","","","","","","",""
"","html-keyboard-response","212","423261","0.0-7.0-0.0-1.1-3.1","fudttrkjtv","green","null","","","","","<svg xmlns=""http://www.w3.org/2000/svg"" width=""500"" height=""500"" viewBox=""-5 -5 20 20""> <rect x=""0"" y=""0"" width=""10"" height=""10"" /><path fill=""#FFF"" d=""M 0,1 H 10 v 1 H 0 z m 0,2 H 10 v 1 H 0 zm 0,2 H 10 v 1 H 0 zm 0,2 H 10 v 1 H 0 zm 0,2 H 10 v 1 H 0 zM 1,0 V 10 h 1 V 0 zm 2,0 V 10 h 1 V 0 zm 2,0 V 10 h 1 V 0 zm 2,0 V 10 h 1 V 0 zm 2,0 V 10 h 1 V 0 z""/></svg>","null","","","","","","","","",""
"","html-keyboard-response","213","423795","0.0-7.0-0.0-1.1-4.1","fudttrkjtv","green","532.6900000000023","","","","","<p style=""color: black; text-align:center; font-family: BACS2; font-size:1000%;"">g</p>","77","RSVPtest","green","2nd","","false","high","","","1st"
"","html-keyboard-response","214","426297","0.0-7.0-0.0-2.1","fudttrkjtv","green","null","","","","","<p style=""font-size:300%;"">Miss.</p>","null","","","","","","","","",""
"","html-keyboard-response","215","428095","0.0-7.0-0.0-0.2","fudttrkjtv","green","null","","","","","<svg viewBox=""0 0 100 100"" > <path d=""M 50 52 L 50 48"" stroke=""black"" stroke-width="".5""/> <path d=""M 52 50 L 48 50"" stroke=""black"" stroke-width="".5""/>","null","","","","","","","","",""
"","html-keyboard-response","216","428597","0.0-7.0-0.0-1.2-0.2","fudttrkjtv","green","null","","","","","<p style=""color: green; text-align:center; font-family: BACS1; font-size:1000%;"">z</p>","null","","","","","","","","",""
"","html-keyboard-response","217","429099","0.0-7.0-0.0-1.2-1.2","fudttrkjtv","green","null","","","","","<p style=""color: black; text-align:center; font-family: BACS2; font-size:1000%;"">h</p>","null","","","","","","","","",""
"","html-keyboard-response","218","429601","0.0-7.0-0.0-1.2-2.2","fudttrkjtv","green","null","","","","","<p style=""color: black; text-align:center; font-family: BACS1; font-size:1000%;"">y</p>","null","","","","","","","","",""
"","html-keyboard-response","219","430103","0.0-7.0-0.0-1.2-3.2","fudttrkjtv","green","null","","","","","<svg xmlns=""http://www.w3.org/2000/svg"" width=""500"" height=""500"" viewBox=""-5 -5 20 20""> <rect x=""0"" y=""0"" width=""10"" height=""10"" /><path fill=""#FFF"" d=""M 0,1 H 10 v 1 H 0 z m 0,2 H 10 v 1 H 0 zm 0,2 H 10 v 1 H 0 zm 0,2 H 10 v 1 H 0 zm 0,2 H 10 v 1 H 0 zM 1,0 V 10 h 1 V 0 zm 2,0 V 10 h 1 V 0 zm 2,0 V 10 h 1 V 0 zm 2,0 V 10 h 1 V 0 zm 2,0 V 10 h 1 V 0 z""/></svg>","null","","","","","","","","",""
"","html-keyboard-response","220","430761","0.0-7.0-0.0-1.2-4.2","fudttrkjtv","green","657.7949999991106","","","","","<p style=""color: black; text-align:center; font-family: BACS2; font-size:1000%;"">d</p>","77","RSVPtest","green","new","","true","high","","","1st"
"","html-keyboard-response","221","433262","0.0-7.0-0.0-2.2","fudttrkjtv","green","null","","","","","<p style=""font-size:300%;"">Correct!</p>","null","","","","","","","","",""
"","html-keyboard-response","222","435060","0.0-7.0-0.0-0.3","fudttrkjtv","green","null","","","","","<svg viewBox=""0 0 100 100"" > <path d=""M 50 52 L 50 48"" stroke=""black"" stroke-width="".5""/> <path d=""M 52 50 L 48 50"" stroke=""black"" stroke-width="".5""/>","null","","","","","","","","",""
