"success","trial_type","trial_index","time_elapsed","internal_node_id","subject","condition","rt","stimulus","response","url","question_order","view_history","trialType","tgtCol","tgtPos","tgtDir","correct","rwdType","reward","value","tgtPosition"
"true","fullscreen","0","3301","0.0-0.0","wo2","[""green""]","","","","","","","","","","","","","","",""
"","html-keyboard-response","1","7798","0.0-1.0-0.0","wo2","[""green""]","4493.599999964237","<div style= ""font-size:20px;"" <p> <strong> Welcome to the experiment! </strong><br> <p style=""color:red; font-size:25px;""> Please do NOT exit full screen until you are done with the experiment. </p><p style=""color:red;""> The experiment will be canceled and your data will be lost if you try to go back or refresh the page at any time during the experiment.</p><p style=""color:red;""> Please rely on your memory and do NOT write anything down throughout the experiment. </p><br><p style=""color:black;"">Press any key to continue.</p> </span>"," ","","","","","","","","","","","",""
"","external-html","2","12820","0.0-1.0-1.0","wo2","[""green""]","5008.5","","","http://labs.psychology.illinois.edu/~jy57/memory_capture/supportFiles/Consent.html","","","","","","","","","","",""
"","survey-text","3","14492","0.0-1.0-2.0","wo2","[""green""]","1667.800000011921","","{""Q0"":"""",""Q1"":""""}","","","","","","","","","","","",""
"","survey-multi-select","4","20960","0.0-1.0-3.0","wo2","[""green""]","6465.799999952316","","{""Q0"":[""Black or African-American""]}","","[0]","","","","","","","","","",""
"","survey-text","5","23968","0.0-1.0-4.0","wo2","[""green""]","3005.600000023842","","{""Q0"":""sadf"",""Q1"":"""",""Q2"":""""}","","","","","","","","","","","",""
"","instructions","6","80158","0.0-2.0-0.0","wo2","[""green""]","56187.69999998808","","","","","[{""page_index"":0,""viewing_time"":47310.39999997616},{""page_index"":1,""viewing_time"":4068.900000035763},{""page_index"":2,""viewing_time"":935.1999999880791},{""page_index"":3,""viewing_time"":864.8000000119209},{""page_index"":4,""viewing_time"":360},{""page_index"":5,""viewing_time"":416},{""page_index"":6,""viewing_time"":680.1999999880791},{""page_index"":5,""viewing_time"":399.80000001192093},{""page_index"":6,""viewing_time"":288.19999998807907},{""page_index"":7,""viewing_time"":295.89999997615814},{""page_index"":8,""viewing_time"":567.9000000357628}]","","","","","","","","",""
"","html-keyboard-response","7","80968","0.0-2.0-1.0-0.0","wo2","[""green""]","805.3000000119209","<p>Place your fingers on the <b>z</b> and <b>m</b> keys.The experiment will begin shortly.</p> <p></p>","z","","","","","","","","","","","",""
"","html-keyboard-response","8","81645","0.0-2.0-1.0-1.0","wo2","[""green""]","676.6999999880791","<p>Place your fingers on the <b>z</b> and <b>m</b> keys.</b> keys. The experiment will begin shortly.</p><p>5</p>","m","","","","","","","","","","","",""
"","html-keyboard-response","9","81885","0.0-2.0-1.0-2.0","wo2","[""green""]","238.39999997615814","<p>Place your fingers on the <b>z</b> and <b>m</b> keys.</b> keys. The experiment will begin shortly.</p><p>4</p>","z","","","","","","","","","","","",""
"","html-keyboard-response","10","82053","0.0-2.0-1.0-3.0","wo2","[""green""]","166.80000001192093","<p>Place your fingers on the <b>z</b> and <b>m</b> keys.</b> keys. The experiment will begin shortly.</p><p>3</p>","m","","","","","","","","","","","",""
"","html-keyboard-response","11","82293","0.0-2.0-1.0-4.0","wo2","[""green""]","238.80000001192093","<p>Place your fingers on the <b>z</b> and <b>m</b> keys.</b> keys. The experiment will begin shortly.</p><p>2</p>","z","","","","","","","","","","","",""
"","html-keyboard-response","12","82565","0.0-2.0-1.0-5.0","wo2","[""green""]","271","<p>Place your fingers on the <b>z</b> and <b>m</b> keys.</b> keys. The experiment will begin shortly.</p><p>1</p>","m","","","","","","","","","","","",""
"","html-keyboard-response","13","83104","0.0-2.0-2.0-0.0","wo2","[""green""]","null","<svg viewBox=""0 0 100 100"" > <path d=""M 50 52 L 50 48"" stroke=""black"" stroke-width="".5""/> <path d=""M 52 50 L 48 50"" stroke=""black"" stroke-width="".5""/>","null","","","","","","","","","","","",""
"","html-keyboard-response","14","83837","0.0-2.0-2.0-1.0","wo2","[""green""]","729.4000000357628","[""<svg viewBox=\""0 0 100 100\"" >"",""<text font-size=\""10%\"" text-anchor=\""middle\""  x=\""50\"" y=\""98\"">Press z for horizontal or m for vertical</text>"",""<path d=\""M 50 52 L 50 48\"" stroke=\""black\"" stroke-width=\"".5\""/> <path d=\""M 52 50 L 48 50\"" stroke=\""black\"" stroke-width=\"".5\""/>"",""<circle cx=\""50\"" cy=\""50\"" r=\""10\"" fill=\""none\"" transform=\""translate(26 15)\"" stroke=\""red\"" /><path d=\""M 50 57 L 50 43\"" stroke=\""black\"" transform=\""translate(26 15) rotate(0 50 50)\""/>"",""<circle cx=\""50\"" cy=\""50\"" r=\""10\"" fill=\""none\"" transform=\""translate(0 30)\"" stroke=\""black\"" /><path d=\""M 50 57 L 50 43\"" stroke=\""black\"" transform=\""translate(0 30) rotate(45 50 50)\""/>"",""<circle cx=\""50\"" cy=\""50\"" r=\""10\"" fill=\""none\"" transform=\""translate(-26 15)\"" stroke=\""gold\"" /><path d=\""M 50 57 L 50 43\"" stroke=\""black\"" transform=\""translate(-26 15) rotate(45 50 50)\""/>"",""<circle cx=\""50\"" cy=\""50\"" r=\""10\"" fill=\""none\"" transform=\""translate(-26 -15)\"" stroke=\""cyan\"" /><path d=\""M 50 57 L 50 43\"" stroke=\""black\"" transform=\""translate(-26 -15) rotate(45 50 50)\""/>"",""<circle cx=\""50\"" cy=\""50\"" r=\""10\"" fill=\""none\"" transform=\""translate(0 -30)\"" stroke=\""magenta\"" /><path d=\""M 50 57 L 50 43\"" stroke=\""black\"" transform=\""translate(0 -30) rotate(-45 50 50)\""/>"",""<circle cx=\""50\"" cy=\""50\"" r=\""10\"" fill=\""none\"" transform=\""translate(26 -15)\"" stroke=\""blueviolet\"" /><path d=\""M 50 57 L 50 43\"" stroke=\""black\"" transform=\""translate(26 -15) rotate(-45 50 50)\""/>"",""</svg>""]","z","","","","VDACtrain","red","1","v","false","","","",""
"","html-keyboard-response","15","86341","0.0-2.0-2.0-2.0","wo2","[""green""]","null","<p style=""font-size:300%;"">Miss.</p> <p style=""font-size:300%;"">Wrong response.</p>","null","","","","","","","","","","","",""
"","html-keyboard-response","16","87880","0.0-2.0-2.0-0.1","wo2","[""green""]","null","<svg viewBox=""0 0 100 100"" > <path d=""M 50 52 L 50 48"" stroke=""black"" stroke-width="".5""/> <path d=""M 52 50 L 48 50"" stroke=""black"" stroke-width="".5""/>","null","","","","","","","","","","","",""
"","html-keyboard-response","17","88189","0.0-2.0-2.0-1.1","wo2","[""green""]","306.60000002384186","[""<svg viewBox=\""0 0 100 100\"" >"",""<text font-size=\""10%\"" text-anchor=\""middle\""  x=\""50\"" y=\""98\"">Press z for horizontal or m for vertical</text>"",""<path d=\""M 50 52 L 50 48\"" stroke=\""black\"" stroke-width=\"".5\""/> <path d=\""M 52 50 L 48 50\"" stroke=\""black\"" stroke-width=\"".5\""/>"",""<circle cx=\""50\"" cy=\""50\"" r=\""10\"" fill=\""none\"" transform=\""translate(26 15)\"" stroke=\""gold\"" /><path d=\""M 50 57 L 50 43\"" stroke=\""black\"" transform=\""translate(26 15) rotate(-45 50 50)\""/>"",""<circle cx=\""50\"" cy=\""50\"" r=\""10\"" fill=\""none\"" transform=\""translate(0 30)\"" stroke=\""green\"" /><path d=\""M 50 57 L 50 43\"" stroke=\""black\"" transform=\""translate(0 30) rotate(90 50 50)\""/>"",""<circle cx=\""50\"" cy=\""50\"" r=\""10\"" fill=\""none\"" transform=\""translate(-26 15)\"" stroke=\""blueviolet\"" /><path d=\""M 50 57 L 50 43\"" stroke=\""black\"" transform=\""translate(-26 15) rotate(45 50 50)\""/>"",""<circle cx=\""50\"" cy=\""50\"" r=\""10\"" fill=\""none\"" transform=\""translate(-26 -15)\"" stroke=\""cyan\"" /><path d=\""M 50 57 L 50 43\"" stroke=\""black\"" transform=\""translate(-26 -15) rotate(-45 50 50)\""/>"",""<circle cx=\""50\"" cy=\""50\"" r=\""10\"" fill=\""none\"" transform=\""translate(0 -30)\"" stroke=\""black\"" /><path d=\""M 50 57 L 50 43\"" stroke=\""black\"" transform=\""translate(0 -30) rotate(-45 50 50)\""/>"",""<circle cx=\""50\"" cy=\""50\"" r=\""10\"" fill=\""none\"" transform=\""translate(26 -15)\"" stroke=\""magenta\"" /><path d=\""M 50 57 L 50 43\"" stroke=\""black\"" transform=\""translate(26 -15) rotate(-45 50 50)\""/>"",""</svg>""]","m","","","","VDACtrain","green","1","h","false","","","",""
"","html-keyboard-response","18","90691","0.0-2.0-2.0-2.1","wo2","[""green""]","null","<p style=""font-size:300%;"">Miss.</p> <p style=""font-size:300%;"">Wrong response.</p>","null","","","","","","","","","","","",""
"","html-keyboard-response","19","92232","0.0-2.0-2.0-0.2","wo2","[""green""]","null","<svg viewBox=""0 0 100 100"" > <path d=""M 50 52 L 50 48"" stroke=""black"" stroke-width="".5""/> <path d=""M 52 50 L 48 50"" stroke=""black"" stroke-width="".5""/>","null","","","","","","","","","","","",""
"","html-keyboard-response","20","92694","0.0-2.0-2.0-1.2","wo2","[""green""]","458.30000001192093","[""<svg viewBox=\""0 0 100 100\"" >"",""<text font-size=\""10%\"" text-anchor=\""middle\""  x=\""50\"" y=\""98\"">Press z for horizontal or m for vertical</text>"",""<path d=\""M 50 52 L 50 48\"" stroke=\""black\"" stroke-width=\"".5\""/> <path d=\""M 52 50 L 48 50\"" stroke=\""black\"" stroke-width=\"".5\""/>"",""<circle cx=\""50\"" cy=\""50\"" r=\""10\"" fill=\""none\"" transform=\""translate(26 15)\"" stroke=\""cyan\"" /><path d=\""M 50 57 L 50 43\"" stroke=\""black\"" transform=\""translate(26 15) rotate(45 50 50)\""/>"",""<circle cx=\""50\"" cy=\""50\"" r=\""10\"" fill=\""none\"" transform=\""translate(0 30)\"" stroke=\""magenta\"" /><path d=\""M 50 57 L 50 43\"" stroke=\""black\"" transform=\""translate(0 30) rotate(45 50 50)\""/>"",""<circle cx=\""50\"" cy=\""50\"" r=\""10\"" fill=\""none\"" transform=\""translate(-26 15)\"" stroke=\""red\"" /><path d=\""M 50 57 L 50 43\"" stroke=\""black\"" transform=\""translate(-26 15) rotate(90 50 50)\""/>"",""<circle cx=\""50\"" cy=\""50\"" r=\""10\"" fill=\""none\"" transform=\""translate(-26 -15)\"" stroke=\""blueviolet\"" /><path d=\""M 50 57 L 50 43\"" stroke=\""black\"" transform=\""translate(-26 -15) rotate(-45 50 50)\""/>"",""<circle cx=\""50\"" cy=\""50\"" r=\""10\"" fill=\""none\"" transform=\""translate(0 -30)\"" stroke=\""black\"" /><path d=\""M 50 57 L 50 43\"" stroke=\""black\"" transform=\""translate(0 -30) rotate(-45 50 50)\""/>"",""<circle cx=\""50\"" cy=\""50\"" r=\""10\"" fill=\""none\"" transform=\""translate(26 -15)\"" stroke=\""gold\"" /><path d=\""M 50 57 L 50 43\"" stroke=\""black\"" transform=\""translate(26 -15) rotate(-45 50 50)\""/>"",""</svg>""]","z","","","","VDACtrain","red","1","h","true","","","",""
"","html-keyboard-response","21","95196","0.0-2.0-2.0-2.2","wo2","[""green""]","null","<p style=""font-size:300%;"">Correct!</p>","null","","","","","","","","","","","",""
"","html-keyboard-response","22","96736","0.0-2.0-2.0-0.3","wo2","[""green""]","null","<svg viewBox=""0 0 100 100"" > <path d=""M 50 52 L 50 48"" stroke=""black"" stroke-width="".5""/> <path d=""M 52 50 L 48 50"" stroke=""black"" stroke-width="".5""/>","null","","","","","","","","","","","",""
"","html-keyboard-response","23","97277","0.0-2.0-2.0-1.3","wo2","[""green""]","537.6000000238419","[""<svg viewBox=\""0 0 100 100\"" >"",""<text font-size=\""10%\"" text-anchor=\""middle\""  x=\""50\"" y=\""98\"">Press z for horizontal or m for vertical</text>"",""<path d=\""M 50 52 L 50 48\"" stroke=\""black\"" stroke-width=\"".5\""/> <path d=\""M 52 50 L 48 50\"" stroke=\""black\"" stroke-width=\"".5\""/>"",""<circle cx=\""50\"" cy=\""50\"" r=\""10\"" fill=\""none\"" transform=\""translate(26 15)\"" stroke=\""cyan\"" /><path d=\""M 50 57 L 50 43\"" stroke=\""black\"" transform=\""translate(26 15) rotate(-45 50 50)\""/>"",""<circle cx=\""50\"" cy=\""50\"" r=\""10\"" fill=\""none\"" transform=\""translate(0 30)\"" stroke=\""black\"" /><path d=\""M 50 57 L 50 43\"" stroke=\""black\"" transform=\""translate(0 30) rotate(45 50 50)\""/>"",""<circle cx=\""50\"" cy=\""50\"" r=\""10\"" fill=\""none\"" transform=\""translate(-26 15)\"" stroke=\""gold\"" /><path d=\""M 50 57 L 50 43\"" stroke=\""black\"" transform=\""translate(-26 15) rotate(-45 50 50)\""/>"",""<circle cx=\""50\"" cy=\""50\"" r=\""10\"" fill=\""none\"" transform=\""translate(-26 -15)\"" stroke=\""green\"" /><path d=\""M 50 57 L 50 43\"" stroke=\""black\"" transform=\""translate(-26 -15) rotate(0 50 50)\""/>"",""<circle cx=\""50\"" cy=\""50\"" r=\""10\"" fill=\""none\"" transform=\""translate(0 -30)\"" stroke=\""magenta\"" /><path d=\""M 50 57 L 50 43\"" stroke=\""black\"" transform=\""translate(0 -30) rotate(45 50 50)\""/>"",""<circle cx=\""50\"" cy=\""50\"" r=\""10\"" fill=\""none\"" transform=\""translate(26 -15)\"" stroke=\""blueviolet\"" /><path d=\""M 50 57 L 50 43\"" stroke=\""black\"" transform=\""translate(26 -15) rotate(-45 50 50)\""/>"",""</svg>""]","z","","","","VDACtrain","green","1","v","false","","","",""
"","html-keyboard-response","24","99779","0.0-2.0-2.0-2.3","wo2","[""green""]","null","<p style=""font-size:300%;"">Miss.</p> <p style=""font-size:300%;"">Wrong response.</p>","null","","","","","","","","","","","",""
"","html-keyboard-response","25","101318","0.0-2.0-2.0-0.4","wo2","[""green""]","null","<svg viewBox=""0 0 100 100"" > <path d=""M 50 52 L 50 48"" stroke=""black"" stroke-width="".5""/> <path d=""M 52 50 L 48 50"" stroke=""black"" stroke-width="".5""/>","null","","","","","","","","","","","",""
"","html-keyboard-response","26","101797","0.0-2.0-2.0-1.4","wo2","[""green""]","475.5999999642372","[""<svg viewBox=\""0 0 100 100\"" >"",""<text font-size=\""10%\"" text-anchor=\""middle\""  x=\""50\"" y=\""98\"">Press z for horizontal or m for vertical</text>"",""<path d=\""M 50 52 L 50 48\"" stroke=\""black\"" stroke-width=\"".5\""/> <path d=\""M 52 50 L 48 50\"" stroke=\""black\"" stroke-width=\"".5\""/>"",""<circle cx=\""50\"" cy=\""50\"" r=\""10\"" fill=\""none\"" transform=\""translate(26 15)\"" stroke=\""gold\"" /><path d=\""M 50 57 L 50 43\"" stroke=\""black\"" transform=\""translate(26 15) rotate(-45 50 50)\""/>"",""<circle cx=\""50\"" cy=\""50\"" r=\""10\"" fill=\""none\"" transform=\""translate(0 30)\"" stroke=\""black\"" /><path d=\""M 50 57 L 50 43\"" stroke=\""black\"" transform=\""translate(0 30) rotate(-45 50 50)\""/>"",""<circle cx=\""50\"" cy=\""50\"" r=\""10\"" fill=\""none\"" transform=\""translate(-26 15)\"" stroke=\""blueviolet\"" /><path d=\""M 50 57 L 50 43\"" stroke=\""black\"" transform=\""translate(-26 15) rotate(45 50 50)\""/>"",""<circle cx=\""50\"" cy=\""50\"" r=\""10\"" fill=\""none\"" transform=\""translate(-26 -15)\"" stroke=\""magenta\"" /><path d=\""M 50 57 L 50 43\"" stroke=\""black\"" transform=\""translate(-26 -15) rotate(45 50 50)\""/>"",""<circle cx=\""50\"" cy=\""50\"" r=\""10\"" fill=\""none\"" transform=\""translate(0 -30)\"" stroke=\""red\"" /><path d=\""M 50 57 L 50 43\"" stroke=\""black\"" transform=\""translate(0 -30) rotate(0 50 50)\""/>"",""<circle cx=\""50\"" cy=\""50\"" r=\""10\"" fill=\""none\"" transform=\""translate(26 -15)\"" stroke=\""cyan\"" /><path d=\""M 50 57 L 50 43\"" stroke=\""black\"" transform=\""translate(26 -15) rotate(45 50 50)\""/>"",""</svg>""]","z","","","","VDACtrain","red","1","v","false","","","",""
"","html-keyboard-response","27","104299","0.0-2.0-2.0-2.4","wo2","[""green""]","null","<p style=""font-size:300%;"">Miss.</p> <p style=""font-size:300%;"">Wrong response.</p>","null","","","","","","","","","","","",""
"","html-keyboard-response","28","105837","0.0-2.0-2.0-0.5","wo2","[""green""]","null","<svg viewBox=""0 0 100 100"" > <path d=""M 50 52 L 50 48"" stroke=""black"" stroke-width="".5""/> <path d=""M 52 50 L 48 50"" stroke=""black"" stroke-width="".5""/>","null","","","","","","","","","","","",""
"","html-keyboard-response","29","106301","0.0-2.0-2.0-1.5","wo2","[""green""]","461.19999998807907","[""<svg viewBox=\""0 0 100 100\"" >"",""<text font-size=\""10%\"" text-anchor=\""middle\""  x=\""50\"" y=\""98\"">Press z for horizontal or m for vertical</text>"",""<path d=\""M 50 52 L 50 48\"" stroke=\""black\"" stroke-width=\"".5\""/> <path d=\""M 52 50 L 48 50\"" stroke=\""black\"" stroke-width=\"".5\""/>"",""<circle cx=\""50\"" cy=\""50\"" r=\""10\"" fill=\""none\"" transform=\""translate(26 15)\"" stroke=\""gold\"" /><path d=\""M 50 57 L 50 43\"" stroke=\""black\"" transform=\""translate(26 15) rotate(-45 50 50)\""/>"",""<circle cx=\""50\"" cy=\""50\"" r=\""10\"" fill=\""none\"" transform=\""translate(0 30)\"" stroke=\""magenta\"" /><path d=\""M 50 57 L 50 43\"" stroke=\""black\"" transform=\""translate(0 30) rotate(-45 50 50)\""/>"",""<circle cx=\""50\"" cy=\""50\"" r=\""10\"" fill=\""none\"" transform=\""translate(-26 15)\"" stroke=\""black\"" /><path d=\""M 50 57 L 50 43\"" stroke=\""black\"" transform=\""translate(-26 15) rotate(-45 50 50)\""/>"",""<circle cx=\""50\"" cy=\""50\"" r=\""10\"" fill=\""none\"" transform=\""translate(-26 -15)\"" stroke=\""blueviolet\"" /><path d=\""M 50 57 L 50 43\"" stroke=\""black\"" transform=\""translate(-26 -15) rotate(45 50 50)\""/>"",""<circle cx=\""50\"" cy=\""50\"" r=\""10\"" fill=\""none\"" transform=\""translate(0 -30)\"" stroke=\""cyan\"" /><path d=\""M 50 57 L 50 43\"" stroke=\""black\"" transform=\""translate(0 -30) rotate(45 50 50)\""/>"",""<circle cx=\""50\"" cy=\""50\"" r=\""10\"" fill=\""none\"" transform=\""translate(26 -15)\"" stroke=\""green\"" /><path d=\""M 50 57 L 50 43\"" stroke=\""black\"" transform=\""translate(26 -15) rotate(90 50 50)\""/>"",""</svg>""]","z","","","","VDACtrain","green","1","h","true","","","",""
"","html-keyboard-response","30","108804","0.0-2.0-2.0-2.5","wo2","[""green""]","null","<p style=""font-size:300%;"">Correct!</p>","null","","","","","","","","","","","",""
"","html-keyboard-response","31","111877","0.0-2.0-3.0","wo2","[""green""]","2071.899999976158","<p>You have now finished the training exercise. If you would like to repeat the instructions and training exercise, press <b>R</b>. If you are ready to continue to the task, press <b>C</b>. </p>","c","","","","","","","","","","","",""
"","html-keyboard-response","32","112693","0.0-3.0-0.0","wo2","[""green""]","812.8999999761581","<p>Place your fingers on the <b>z</b> and <b>m</b> keys.The experiment will begin shortly.</p> <p></p>","m","","","","","","","","","","","",""
"","html-keyboard-response","33","112853","0.0-3.0-1.0","wo2","[""green""]","158.80000001192093","<p>Place your fingers on the <b>z</b> and <b>m</b> keys.</b> keys. The experiment will begin shortly.</p><p>5</p>","z","","","","","","","","","","","",""
"","html-keyboard-response","34","113013","0.0-3.0-2.0","wo2","[""green""]","159","<p>Place your fingers on the <b>z</b> and <b>m</b> keys.</b> keys. The experiment will begin shortly.</p><p>4</p>","m","","","","","","","","","","","",""
"","html-keyboard-response","35","113461","0.0-3.0-3.0","wo2","[""green""]","446.7999999523163","<p>Place your fingers on the <b>z</b> and <b>m</b> keys.</b> keys. The experiment will begin shortly.</p><p>3</p>","z","","","","","","","","","","","",""
"","html-keyboard-response","36","113749","0.0-3.0-4.0","wo2","[""green""]","286.9000000357628","<p>Place your fingers on the <b>z</b> and <b>m</b> keys.</b> keys. The experiment will begin shortly.</p><p>2</p>","m","","","","","","","","","","","",""
"","html-keyboard-response","37","114205","0.0-3.0-5.0","wo2","[""green""]","455","<p>Place your fingers on the <b>z</b> and <b>m</b> keys.</b> keys. The experiment will begin shortly.</p><p>1</p>","z","","","","","","","","","","","",""
"","html-keyboard-response","38","114744","0.0-4.0-0.0-0.0","wo2","[""green""]","null","<svg viewBox=""0 0 100 100"" > <path d=""M 50 52 L 50 48"" stroke=""black"" stroke-width="".5""/> <path d=""M 52 50 L 48 50"" stroke=""black"" stroke-width="".5""/>","null","","","","","","","","","","","",""
"","html-keyboard-response","39","115253","0.0-4.0-0.0-1.0","wo2","[""green""]","506.0999999642372","[""<svg viewBox=\""0 0 100 100\"" >"",""<path d=\""M 50 52 L 50 48\"" stroke=\""black\"" stroke-width=\"".5\""/>"","" <path d=\""M 52 50 L 48 50\"" stroke=\""black\"" stroke-width=\"".5\""/>"",""<circle cx=\""50\"" cy=\""50\"" r=\""10\"" fill=\""none\"" transform=\""translate(26 15)\"" stroke=\""red\"" />"",""<path d=\""M 50 57 L 50 43\"" stroke=\""black\"" transform=\""translate(26 15) rotate(0 50 50)\""/>"",""<circle cx=\""50\"" cy=\""50\"" r=\""10\"" fill=\""none\"" transform=\""translate(0 30)\"" stroke=\""cyan\"" />"",""<path d=\""M 50 57 L 50 43\"" stroke=\""black\"" transform=\""translate(0 30) rotate(45 50 50)\""/>"",""<circle cx=\""50\"" cy=\""50\"" r=\""10\"" fill=\""none\"" transform=\""translate(-26 15)\"" stroke=\""magenta\"" />"",""<path d=\""M 50 57 L 50 43\"" stroke=\""black\"" transform=\""translate(-26 15) rotate(45 50 50)\""/>"",""<circle cx=\""50\"" cy=\""50\"" r=\""10\"" fill=\""none\"" transform=\""translate(-26 -15)\"" stroke=\""gold\"" />"",""<path d=\""M 50 57 L 50 43\"" stroke=\""black\"" transform=\""translate(-26 -15) rotate(45 50 50)\""/>"",""<circle cx=\""50\"" cy=\""50\"" r=\""10\"" fill=\""none\"" transform=\""translate(0 -30)\"" stroke=\""blueviolet\"" />"",""<path d=\""M 50 57 L 50 43\"" stroke=\""black\"" transform=\""translate(0 -30) rotate(-45 50 50)\""/>"",""<circle cx=\""50\"" cy=\""50\"" r=\""10\"" fill=\""none\"" transform=\""translate(26 -15)\"" stroke=\""black\"" />"",""<path d=\""M 50 57 L 50 43\"" stroke=\""black\"" transform=\""translate(26 -15) rotate(-45 50 50)\""/>"",""</svg>""]","m","","","","VDACtest","red","0","v","true","low","","",""
"","html-keyboard-response","40","117756","0.0-4.0-0.0-2.0","wo2","[""green""]","null","<p style=""font-size:300%;""> + 2 points.</p><p style=""font-size:300%"">Total: 2 points.</p>","null","","","","","","","","","","2","",""
"","html-keyboard-response","41","119296","0.0-4.0-0.0-0.1","wo2","[""green""]","null","<svg viewBox=""0 0 100 100"" > <path d=""M 50 52 L 50 48"" stroke=""black"" stroke-width="".5""/> <path d=""M 52 50 L 48 50"" stroke=""black"" stroke-width="".5""/>","null","","","","","","","","","","","",""
"","html-keyboard-response","42","119861","0.0-4.0-0.0-1.1","wo2","[""green""]","562.3000000119209","[""<svg viewBox=\""0 0 100 100\"" >"",""<path d=\""M 50 52 L 50 48\"" stroke=\""black\"" stroke-width=\"".5\""/>"","" <path d=\""M 52 50 L 48 50\"" stroke=\""black\"" stroke-width=\"".5\""/>"",""<circle cx=\""50\"" cy=\""50\"" r=\""10\"" fill=\""none\"" transform=\""translate(26 15)\"" stroke=\""gold\"" />"",""<path d=\""M 50 57 L 50 43\"" stroke=\""black\"" transform=\""translate(26 15) rotate(-45 50 50)\""/>"",""<circle cx=\""50\"" cy=\""50\"" r=\""10\"" fill=\""none\"" transform=\""translate(0 30)\"" stroke=\""green\"" />"",""<path d=\""M 50 57 L 50 43\"" stroke=\""black\"" transform=\""translate(0 30) rotate(90 50 50)\""/>"",""<circle cx=\""50\"" cy=\""50\"" r=\""10\"" fill=\""none\"" transform=\""translate(-26 15)\"" stroke=\""blueviolet\"" />"",""<path d=\""M 50 57 L 50 43\"" stroke=\""black\"" transform=\""translate(-26 15) rotate(45 50 50)\""/>"",""<circle cx=\""50\"" cy=\""50\"" r=\""10\"" fill=\""none\"" transform=\""translate(-26 -15)\"" stroke=\""black\"" />"",""<path d=\""M 50 57 L 50 43\"" stroke=\""black\"" transform=\""translate(-26 -15) rotate(-45 50 50)\""/>"",""<circle cx=\""50\"" cy=\""50\"" r=\""10\"" fill=\""none\"" transform=\""translate(0 -30)\"" stroke=\""magenta\"" />"",""<path d=\""M 50 57 L 50 43\"" stroke=\""black\"" transform=\""translate(0 -30) rotate(-45 50 50)\""/>"",""<circle cx=\""50\"" cy=\""50\"" r=\""10\"" fill=\""none\"" transform=\""translate(26 -15)\"" stroke=\""cyan\"" />"",""<path d=\""M 50 57 L 50 43\"" stroke=\""black\"" transform=\""translate(26 -15) rotate(-45 50 50)\""/>"",""</svg>""]","z","","","","VDACtest","green","1","h","true","high","","",""
"","html-keyboard-response","43","122364","0.0-4.0-0.0-2.1","wo2","[""green""]","null","<p style=""font-size:300%;""> + 2 points.</p><p style=""font-size:300%"">Total: 4 points.</p>","null","","","","","","","","","","4","",""
"","html-keyboard-response","44","125229","0.0-4.0-0.0-4.1-0.1","wo2","[""green""]","1860.6000000238419","<p>You have finished block 1 of 4.<p>You responded correctly on 100% of the trials which has earned you 4 points.<p>On the next screen, you will be given a 30 second break. Press the <b>g</b> key to start your break.","m","","","","","","","","","","","",""
"","html-keyboard-response","45","126231","0.0-4.0-0.0-4.1-1.1-0.1","wo2","[""green""]","null","<p>The experiment will resume in 30 seconds. (press g to skip - Demo only)<p> Remember, press <b>z</b> if the line is horizontal or <b>m</b> if the line is vertical.","null","","","","","","","","","","","",""
"","html-keyboard-response","46","127233","0.0-4.0-0.0-4.1-1.1-1.1","wo2","[""green""]","null","<p>The experiment will resume in 29 seconds. (press g to skip - Demo only)<p> Remember, press <b>z</b> if the line is horizontal or <b>m</b> if the line is vertical.","null","","","","","","","","","","","",""
"","html-keyboard-response","47","128235","0.0-4.0-0.0-4.1-1.1-2.1","wo2","[""green""]","null","<p>The experiment will resume in 28 seconds. (press g to skip - Demo only)<p> Remember, press <b>z</b> if the line is horizontal or <b>m</b> if the line is vertical.","null","","","","","","","","","","","",""
"","html-keyboard-response","48","129237","0.0-4.0-0.0-4.1-1.1-3.1","wo2","[""green""]","null","<p>The experiment will resume in 27 seconds. (press g to skip - Demo only)<p> Remember, press <b>z</b> if the line is horizontal or <b>m</b> if the line is vertical.","null","","","","","","","","","","","",""
"","html-keyboard-response","49","130239","0.0-4.0-0.0-4.1-1.1-4.1","wo2","[""green""]","null","<p>The experiment will resume in 26 seconds. (press g to skip - Demo only)<p> Remember, press <b>z</b> if the line is horizontal or <b>m</b> if the line is vertical.","null","","","","","","","","","","","",""
"","html-keyboard-response","50","130421","0.0-4.0-0.0-4.1-1.1-5.1","wo2","[""green""]","180.80000001192093","<p>The experiment will resume in 25 seconds. (press g to skip - Demo only)<p> Remember, press <b>z</b> if the line is horizontal or <b>m</b> if the line is vertical.","g","","","","","","","","","","","",""
"","html-keyboard-response","51","131341","0.0-4.0-0.0-4.1-2.1-0.1","wo2","[""green""]","917.1999999880791","<p>Place your fingers on the <b>z</b> and <b>m</b> keys.The experiment will begin shortly.</p> <p></p>","m","","","","","","","","","","","",""
"","html-keyboard-response","52","132117","0.0-4.0-0.0-4.1-2.1-1.1","wo2","[""green""]","774.9000000357628","<p>Place your fingers on the <b>z</b> and <b>m</b> keys.</b> keys. The experiment will begin shortly.</p><p>5</p>","z","","","","","","","","","","","",""
"","html-keyboard-response","53","132285","0.0-4.0-0.0-4.1-2.1-2.1","wo2","[""green""]","166.9000000357628","<p>Place your fingers on the <b>z</b> and <b>m</b> keys.</b> keys. The experiment will begin shortly.</p><p>4</p>","m","","","","","","","","","","","",""
"","html-keyboard-response","54","132445","0.0-4.0-0.0-4.1-2.1-3.1","wo2","[""green""]","158.5999999642372","<p>Place your fingers on the <b>z</b> and <b>m</b> keys.</b> keys. The experiment will begin shortly.</p><p>3</p>","z","","","","","","","","","","","",""
"","html-keyboard-response","55","132637","0.0-4.0-0.0-4.1-2.1-4.1","wo2","[""green""]","191","<p>Place your fingers on the <b>z</b> and <b>m</b> keys.</b> keys. The experiment will begin shortly.</p><p>2</p>","m","","","","","","","","","","","",""
"","html-keyboard-response","56","132789","0.0-4.0-0.0-4.1-2.1-5.1","wo2","[""green""]","150.80000001192093","<p>Place your fingers on the <b>z</b> and <b>m</b> keys.</b> keys. The experiment will begin shortly.</p><p>1</p>","z","","","","","","","","","","","",""
"","html-keyboard-response","57","133328","0.0-4.0-0.0-0.2","wo2","[""green""]","null","<svg viewBox=""0 0 100 100"" > <path d=""M 50 52 L 50 48"" stroke=""black"" stroke-width="".5""/> <path d=""M 52 50 L 48 50"" stroke=""black"" stroke-width="".5""/>","null","","","","","","","","","","","",""
"","html-keyboard-response","58","133821","0.0-4.0-0.0-1.2","wo2","[""green""]","491.4000000357628","[""<svg viewBox=\""0 0 100 100\"" >"",""<path d=\""M 50 52 L 50 48\"" stroke=\""black\"" stroke-width=\"".5\""/>"","" <path d=\""M 52 50 L 48 50\"" stroke=\""black\"" stroke-width=\"".5\""/>"",""<circle cx=\""50\"" cy=\""50\"" r=\""10\"" fill=\""none\"" transform=\""translate(26 15)\"" stroke=\""gold\"" />"",""<path d=\""M 50 57 L 50 43\"" stroke=\""black\"" transform=\""translate(26 15) rotate(45 50 50)\""/>"",""<circle cx=\""50\"" cy=\""50\"" r=\""10\"" fill=\""none\"" transform=\""translate(0 30)\"" stroke=\""black\"" />"",""<path d=\""M 50 57 L 50 43\"" stroke=\""black\"" transform=\""translate(0 30) rotate(-45 50 50)\""/>"",""<circle cx=\""50\"" cy=\""50\"" r=\""10\"" fill=\""none\"" transform=\""translate(-26 15)\"" stroke=\""red\"" />"",""<path d=\""M 50 57 L 50 43\"" stroke=\""black\"" transform=\""translate(-26 15) rotate(90 50 50)\""/>"",""<circle cx=\""50\"" cy=\""50\"" r=\""10\"" fill=\""none\"" transform=\""translate(-26 -15)\"" stroke=\""cyan\"" />"",""<path d=\""M 50 57 L 50 43\"" stroke=\""black\"" transform=\""translate(-26 -15) rotate(45 50 50)\""/>"",""<circle cx=\""50\"" cy=\""50\"" r=\""10\"" fill=\""none\"" transform=\""translate(0 -30)\"" stroke=\""blueviolet\"" />"",""<path d=\""M 50 57 L 50 43\"" stroke=\""black\"" transform=\""translate(0 -30) rotate(45 50 50)\""/>"",""<circle cx=\""50\"" cy=\""50\"" r=\""10\"" fill=\""none\"" transform=\""translate(26 -15)\"" stroke=\""magenta\"" />"",""<path d=\""M 50 57 L 50 43\"" stroke=\""black\"" transform=\""translate(26 -15) rotate(45 50 50)\""/>"",""</svg>""]","z","","","","VDACtest","red","2","h","true","low","","",""
"","html-keyboard-response","59","136323","0.0-4.0-0.0-2.2","wo2","[""green""]","null","<p style=""font-size:300%;""> + 10 points.</p><p style=""font-size:300%"">Total: 14 points.</p>","null","","","","","","","","","","14","",""
"","html-keyboard-response","60","137863","0.0-4.0-0.0-0.3","wo2","[""green""]","null","<svg viewBox=""0 0 100 100"" > <path d=""M 50 52 L 50 48"" stroke=""black"" stroke-width="".5""/> <path d=""M 52 50 L 48 50"" stroke=""black"" stroke-width="".5""/>","null","","","","","","","","","","","",""
"","html-keyboard-response","61","138301","0.0-4.0-0.0-1.3","wo2","[""green""]","435","[""<svg viewBox=\""0 0 100 100\"" >"",""<path d=\""M 50 52 L 50 48\"" stroke=\""black\"" stroke-width=\"".5\""/>"","" <path d=\""M 52 50 L 48 50\"" stroke=\""black\"" stroke-width=\"".5\""/>"",""<circle cx=\""50\"" cy=\""50\"" r=\""10\"" fill=\""none\"" transform=\""translate(26 15)\"" stroke=\""magenta\"" />"",""<path d=\""M 50 57 L 50 43\"" stroke=\""black\"" transform=\""translate(26 15) rotate(-45 50 50)\""/>"",""<circle cx=\""50\"" cy=\""50\"" r=\""10\"" fill=\""none\"" transform=\""translate(0 30)\"" stroke=\""blueviolet\"" />"",""<path d=\""M 50 57 L 50 43\"" stroke=\""black\"" transform=\""translate(0 30) rotate(45 50 50)\""/>"",""<circle cx=\""50\"" cy=\""50\"" r=\""10\"" fill=\""none\"" transform=\""translate(-26 15)\"" stroke=\""gold\"" />"",""<path d=\""M 50 57 L 50 43\"" stroke=\""black\"" transform=\""translate(-26 15) rotate(-45 50 50)\""/>"",""<circle cx=\""50\"" cy=\""50\"" r=\""10\"" fill=\""none\"" transform=\""translate(-26 -15)\"" stroke=\""green\"" />"",""<path d=\""M 50 57 L 50 43\"" stroke=\""black\"" transform=\""translate(-26 -15) rotate(0 50 50)\""/>"",""<circle cx=\""50\"" cy=\""50\"" r=\""10\"" fill=\""none\"" transform=\""translate(0 -30)\"" stroke=\""cyan\"" />"",""<path d=\""M 50 57 L 50 43\"" stroke=\""black\"" transform=\""translate(0 -30) rotate(-45 50 50)\""/>"",""<circle cx=\""50\"" cy=\""50\"" r=\""10\"" fill=\""none\"" transform=\""translate(26 -15)\"" stroke=\""black\"" />"",""<path d=\""M 50 57 L 50 43\"" stroke=\""black\"" transform=\""translate(26 -15) rotate(45 50 50)\""/>"",""</svg>""]","m","","","","VDACtest","green","3","v","true","high","","",""
"","html-keyboard-response","62","140804","0.0-4.0-0.0-2.3","wo2","[""green""]","null","<p style=""font-size:300%;""> + 10 points.</p><p style=""font-size:300%"">Total: 24 points.</p>","null","","","","","","","","","","24","",""
"","html-keyboard-response","63","144381","0.0-4.0-0.0-4.3-0.3","wo2","[""green""]","2574.199999988079","<p>You have finished block 2 of 4.<p>You responded correctly on 100% of the trials which has earned you 24 points.<p>On the next screen, you will be given a 30 second break. Press the <b>g</b> key to start your break.","g","","","","","","","","","","","",""
"","html-keyboard-response","64","145384","0.0-4.0-0.0-4.3-1.3-0.3","wo2","[""green""]","null","<p>The experiment will resume in 30 seconds. (press g to skip - Demo only)<p> Remember, press <b>z</b> if the line is horizontal or <b>m</b> if the line is vertical.","null","","","","","","","","","","","",""
"","html-keyboard-response","65","146385","0.0-4.0-0.0-4.3-1.3-1.3","wo2","[""green""]","null","<p>The experiment will resume in 29 seconds. (press g to skip - Demo only)<p> Remember, press <b>z</b> if the line is horizontal or <b>m</b> if the line is vertical.","null","","","","","","","","","","","",""
"","html-keyboard-response","66","146677","0.0-4.0-0.0-4.3-1.3-2.3","wo2","[""green""]","290","<p>The experiment will resume in 28 seconds. (press g to skip - Demo only)<p> Remember, press <b>z</b> if the line is horizontal or <b>m</b> if the line is vertical.","g","","","","","","","","","","","",""
"","html-keyboard-response","67","149679","0.0-4.0-0.0-4.3-2.3-0.3","wo2","[""green""]","null","<p>Place your fingers on the <b>z</b> and <b>m</b> keys.The experiment will begin shortly.</p> <p></p>","null","","","","","","","","","","","",""
"","html-keyboard-response","68","150681","0.0-4.0-0.0-4.3-2.3-1.3","wo2","[""green""]","null","<p>Place your fingers on the <b>z</b> and <b>m</b> keys.</b> keys. The experiment will begin shortly.</p><p>5</p>","null","","","","","","","","","","","",""
"","html-keyboard-response","69","151683","0.0-4.0-0.0-4.3-2.3-2.3","wo2","[""green""]","null","<p>Place your fingers on the <b>z</b> and <b>m</b> keys.</b> keys. The experiment will begin shortly.</p><p>4</p>","null","","","","","","","","","","","",""
"","html-keyboard-response","70","152684","0.0-4.0-0.0-4.3-2.3-3.3","wo2","[""green""]","null","<p>Place your fingers on the <b>z</b> and <b>m</b> keys.</b> keys. The experiment will begin shortly.</p><p>3</p>","null","","","","","","","","","","","",""
"","html-keyboard-response","71","153686","0.0-4.0-0.0-4.3-2.3-4.3","wo2","[""green""]","null","<p>Place your fingers on the <b>z</b> and <b>m</b> keys.</b> keys. The experiment will begin shortly.</p><p>2</p>","null","","","","","","","","","","","",""
"","html-keyboard-response","72","154688","0.0-4.0-0.0-4.3-2.3-5.3","wo2","[""green""]","null","<p>Place your fingers on the <b>z</b> and <b>m</b> keys.</b> keys. The experiment will begin shortly.</p><p>1</p>","null","","","","","","","","","","","",""
"","html-keyboard-response","73","155227","0.0-4.0-0.0-0.4","wo2","[""green""]","null","<svg viewBox=""0 0 100 100"" > <path d=""M 50 52 L 50 48"" stroke=""black"" stroke-width="".5""/> <path d=""M 52 50 L 48 50"" stroke=""black"" stroke-width="".5""/>","null","","","","","","","","","","","",""
"","html-keyboard-response","74","155661","0.0-4.0-0.0-1.4","wo2","[""green""]","430.19999998807907","[""<svg viewBox=\""0 0 100 100\"" >"",""<path d=\""M 50 52 L 50 48\"" stroke=\""black\"" stroke-width=\"".5\""/>"","" <path d=\""M 52 50 L 48 50\"" stroke=\""black\"" stroke-width=\"".5\""/>"",""<circle cx=\""50\"" cy=\""50\"" r=\""10\"" fill=\""none\"" transform=\""translate(26 15)\"" stroke=\""cyan\"" />"",""<path d=\""M 50 57 L 50 43\"" stroke=\""black\"" transform=\""translate(26 15) rotate(-45 50 50)\""/>"",""<circle cx=\""50\"" cy=\""50\"" r=\""10\"" fill=\""none\"" transform=\""translate(0 30)\"" stroke=\""black\"" />"",""<path d=\""M 50 57 L 50 43\"" stroke=\""black\"" transform=\""translate(0 30) rotate(-45 50 50)\""/>"",""<circle cx=\""50\"" cy=\""50\"" r=\""10\"" fill=\""none\"" transform=\""translate(-26 15)\"" stroke=\""gold\"" />"",""<path d=\""M 50 57 L 50 43\"" stroke=\""black\"" transform=\""translate(-26 15) rotate(-45 50 50)\""/>"",""<circle cx=\""50\"" cy=\""50\"" r=\""10\"" fill=\""none\"" transform=\""translate(-26 -15)\"" stroke=\""blueviolet\"" />"",""<path d=\""M 50 57 L 50 43\"" stroke=\""black\"" transform=\""translate(-26 -15) rotate(-45 50 50)\""/>"",""<circle cx=\""50\"" cy=\""50\"" r=\""10\"" fill=\""none\"" transform=\""translate(0 -30)\"" stroke=\""red\"" />"",""<path d=\""M 50 57 L 50 43\"" stroke=\""black\"" transform=\""translate(0 -30) rotate(0 50 50)\""/>"",""<circle cx=\""50\"" cy=\""50\"" r=\""10\"" fill=\""none\"" transform=\""translate(26 -15)\"" stroke=\""magenta\"" />"",""<path d=\""M 50 57 L 50 43\"" stroke=\""black\"" transform=\""translate(26 -15) rotate(45 50 50)\""/>"",""</svg>""]","z","","","","VDACtest","red","4","v","false","low","","",""
"","html-keyboard-response","75","158166","0.0-4.0-0.0-2.4","wo2","[""green""]","null","<p style=""font-size:300%;"">Miss.</p><p style=""font-size:300%"">Total: 24 points.</p>","null","","","","","","","","","","24","",""
"","html-keyboard-response","76","159706","0.0-4.0-0.0-0.5","wo2","[""green""]","null","<svg viewBox=""0 0 100 100"" > <path d=""M 50 52 L 50 48"" stroke=""black"" stroke-width="".5""/> <path d=""M 52 50 L 48 50"" stroke=""black"" stroke-width="".5""/>","null","","","","","","","","","","","",""
"","html-keyboard-response","77","160349","0.0-4.0-0.0-1.5","wo2","[""green""]","639.3000000119209","[""<svg viewBox=\""0 0 100 100\"" >"",""<path d=\""M 50 52 L 50 48\"" stroke=\""black\"" stroke-width=\"".5\""/>"","" <path d=\""M 52 50 L 48 50\"" stroke=\""black\"" stroke-width=\"".5\""/>"",""<circle cx=\""50\"" cy=\""50\"" r=\""10\"" fill=\""none\"" transform=\""translate(26 15)\"" stroke=\""magenta\"" />"",""<path d=\""M 50 57 L 50 43\"" stroke=\""black\"" transform=\""translate(26 15) rotate(-45 50 50)\""/>"",""<circle cx=\""50\"" cy=\""50\"" r=\""10\"" fill=\""none\"" transform=\""translate(0 30)\"" stroke=\""cyan\"" />"",""<path d=\""M 50 57 L 50 43\"" stroke=\""black\"" transform=\""translate(0 30) rotate(-45 50 50)\""/>"",""<circle cx=\""50\"" cy=\""50\"" r=\""10\"" fill=\""none\"" transform=\""translate(-26 15)\"" stroke=\""gold\"" />"",""<path d=\""M 50 57 L 50 43\"" stroke=\""black\"" transform=\""translate(-26 15) rotate(-45 50 50)\""/>"",""<circle cx=\""50\"" cy=\""50\"" r=\""10\"" fill=\""none\"" transform=\""translate(-26 -15)\"" stroke=\""black\"" />"",""<path d=\""M 50 57 L 50 43\"" stroke=\""black\"" transform=\""translate(-26 -15) rotate(45 50 50)\""/>"",""<circle cx=\""50\"" cy=\""50\"" r=\""10\"" fill=\""none\"" transform=\""translate(0 -30)\"" stroke=\""blueviolet\"" />"",""<path d=\""M 50 57 L 50 43\"" stroke=\""black\"" transform=\""translate(0 -30) rotate(-45 50 50)\""/>"",""<circle cx=\""50\"" cy=\""50\"" r=\""10\"" fill=\""none\"" transform=\""translate(26 -15)\"" stroke=\""green\"" />"",""<path d=\""M 50 57 L 50 43\"" stroke=\""black\"" transform=\""translate(26 -15) rotate(90 50 50)\""/>"",""</svg>""]","z","","","","VDACtest","green","5","h","true","high","","",""
"","html-keyboard-response","78","162851","0.0-4.0-0.0-2.5","wo2","[""green""]","null","<p style=""font-size:300%;""> + 2 points.</p><p style=""font-size:300%"">Total: 26 points.</p>","null","","","","","","","","","","26","",""
"","html-keyboard-response","79","166229","0.0-4.0-0.0-4.5-0.5","wo2","[""green""]","2371.7999999523163","<p>You have finished block 3 of 4.<p>You responded correctly on 83% of the trials which has earned you 26 points.<p>On the next screen, you will be given a 30 second break. Press the <b>g</b> key to start your break.","g","","","","","","","","","","","",""
"","html-keyboard-response","80","167231","0.0-4.0-0.0-4.5-1.5-0.5","wo2","[""green""]","null","<p>The experiment will resume in 30 seconds. (press g to skip - Demo only)<p> Remember, press <b>z</b> if the line is horizontal or <b>m</b> if the line is vertical.","null","","","","","","","","","","","",""
"","html-keyboard-response","81","167589","0.0-4.0-0.0-4.5-1.5-1.5","wo2","[""green""]","356","<p>The experiment will resume in 29 seconds. (press g to skip - Demo only)<p> Remember, press <b>z</b> if the line is horizontal or <b>m</b> if the line is vertical.","g","","","","","","","","","","","",""
"","html-keyboard-response","82","168196","0.0-4.0-0.0-4.5-2.5-0.5","wo2","[""green""]","606.9000000357628","<p>Place your fingers on the <b>z</b> and <b>m</b> keys.The experiment will begin shortly.</p> <p></p>","g","","","","","","","","","","","",""
"","html-keyboard-response","83","168413","0.0-4.0-0.0-4.5-2.5-1.5","wo2","[""green""]","214.9000000357628","<p>Place your fingers on the <b>z</b> and <b>m</b> keys.</b> keys. The experiment will begin shortly.</p><p>5</p>","m","","","","","","","","","","","",""
"","html-keyboard-response","84","168749","0.0-4.0-0.0-4.5-2.5-2.5","wo2","[""green""]","335","<p>Place your fingers on the <b>z</b> and <b>m</b> keys.</b> keys. The experiment will begin shortly.</p><p>4</p>","m","","","","","","","","","","","",""
"","html-keyboard-response","85","168996","0.0-4.0-0.0-4.5-2.5-3.5","wo2","[""green""]","246.69999998807907","<p>Place your fingers on the <b>z</b> and <b>m</b> keys.</b> keys. The experiment will begin shortly.</p><p>3</p>","z","","","","","","","","","","","",""
"","html-keyboard-response","86","169165","0.0-4.0-0.0-4.5-2.5-4.5","wo2","[""green""]","167.10000002384186","<p>Place your fingers on the <b>z</b> and <b>m</b> keys.</b> keys. The experiment will begin shortly.</p><p>2</p>","m","","","","","","","","","","","",""
"","html-keyboard-response","87","169365","0.0-4.0-0.0-4.5-2.5-5.5","wo2","[""green""]","198.9000000357628","<p>Place your fingers on the <b>z</b> and <b>m</b> keys.</b> keys. The experiment will begin shortly.</p><p>1</p>","z","","","","","","","","","","","",""
"","html-keyboard-response","88","169903","0.0-4.0-0.0-0.6","wo2","[""green""]","null","<svg viewBox=""0 0 100 100"" > <path d=""M 50 52 L 50 48"" stroke=""black"" stroke-width="".5""/> <path d=""M 52 50 L 48 50"" stroke=""black"" stroke-width="".5""/>","null","","","","","","","","","","","",""
"","html-keyboard-response","89","170141","0.0-4.0-0.0-1.6","wo2","[""green""]","233.80000001192093","[""<svg viewBox=\""0 0 100 100\"" >"",""<path d=\""M 50 52 L 50 48\"" stroke=\""black\"" stroke-width=\"".5\""/>"","" <path d=\""M 52 50 L 48 50\"" stroke=\""black\"" stroke-width=\"".5\""/>"",""<circle cx=\""50\"" cy=\""50\"" r=\""10\"" fill=\""none\"" transform=\""translate(26 15)\"" stroke=\""red\"" />"",""<path d=\""M 50 57 L 50 43\"" stroke=\""black\"" transform=\""translate(26 15) rotate(0 50 50)\""/>"",""<circle cx=\""50\"" cy=\""50\"" r=\""10\"" fill=\""none\"" transform=\""translate(0 30)\"" stroke=\""blueviolet\"" />"",""<path d=\""M 50 57 L 50 43\"" stroke=\""black\"" transform=\""translate(0 30) rotate(-45 50 50)\""/>"",""<circle cx=\""50\"" cy=\""50\"" r=\""10\"" fill=\""none\"" transform=\""translate(-26 15)\"" stroke=\""black\"" />"",""<path d=\""M 50 57 L 50 43\"" stroke=\""black\"" transform=\""translate(-26 15) rotate(45 50 50)\""/>"",""<circle cx=\""50\"" cy=\""50\"" r=\""10\"" fill=\""none\"" transform=\""translate(-26 -15)\"" stroke=\""cyan\"" />"",""<path d=\""M 50 57 L 50 43\"" stroke=\""black\"" transform=\""translate(-26 -15) rotate(-45 50 50)\""/>"",""<circle cx=\""50\"" cy=\""50\"" r=\""10\"" fill=\""none\"" transform=\""translate(0 -30)\"" stroke=\""gold\"" />"",""<path d=\""M 50 57 L 50 43\"" stroke=\""black\"" transform=\""translate(0 -30) rotate(45 50 50)\""/>"",""<circle cx=\""50\"" cy=\""50\"" r=\""10\"" fill=\""none\"" transform=\""translate(26 -15)\"" stroke=\""magenta\"" />"",""<path d=\""M 50 57 L 50 43\"" stroke=\""black\"" transform=\""translate(26 -15) rotate(45 50 50)\""/>"",""</svg>""]","m","","","","VDACtest","red","0","v","true","low","","",""
"","html-keyboard-response","90","172643","0.0-4.0-0.0-2.6","wo2","[""green""]","null","<p style=""font-size:300%;""> + 2 points.</p><p style=""font-size:300%"">Total: 28 points.</p>","null","","","","","","","","","","28","",""
"","html-keyboard-response","91","174184","0.0-4.0-0.0-0.7","wo2","[""green""]","null","<svg viewBox=""0 0 100 100"" > <path d=""M 50 52 L 50 48"" stroke=""black"" stroke-width="".5""/> <path d=""M 52 50 L 48 50"" stroke=""black"" stroke-width="".5""/>","null","","","","","","","","","","","",""
"","html-keyboard-response","92","174485","0.0-4.0-0.0-1.7","wo2","[""green""]","297.7000000476837","[""<svg viewBox=\""0 0 100 100\"" >"",""<path d=\""M 50 52 L 50 48\"" stroke=\""black\"" stroke-width=\"".5\""/>"","" <path d=\""M 52 50 L 48 50\"" stroke=\""black\"" stroke-width=\"".5\""/>"",""<circle cx=\""50\"" cy=\""50\"" r=\""10\"" fill=\""none\"" transform=\""translate(26 15)\"" stroke=\""blueviolet\"" />"",""<path d=\""M 50 57 L 50 43\"" stroke=\""black\"" transform=\""translate(26 15) rotate(45 50 50)\""/>"",""<circle cx=\""50\"" cy=\""50\"" r=\""10\"" fill=\""none\"" transform=\""translate(0 30)\"" stroke=\""green\"" />"",""<path d=\""M 50 57 L 50 43\"" stroke=\""black\"" transform=\""translate(0 30) rotate(90 50 50)\""/>"",""<circle cx=\""50\"" cy=\""50\"" r=\""10\"" fill=\""none\"" transform=\""translate(-26 15)\"" stroke=\""gold\"" />"",""<path d=\""M 50 57 L 50 43\"" stroke=\""black\"" transform=\""translate(-26 15) rotate(45 50 50)\""/>"",""<circle cx=\""50\"" cy=\""50\"" r=\""10\"" fill=\""none\"" transform=\""translate(-26 -15)\"" stroke=\""cyan\"" />"",""<path d=\""M 50 57 L 50 43\"" stroke=\""black\"" transform=\""translate(-26 -15) rotate(-45 50 50)\""/>"",""<circle cx=\""50\"" cy=\""50\"" r=\""10\"" fill=\""none\"" transform=\""translate(0 -30)\"" stroke=\""black\"" />"",""<path d=\""M 50 57 L 50 43\"" stroke=\""black\"" transform=\""translate(0 -30) rotate(-45 50 50)\""/>"",""<circle cx=\""50\"" cy=\""50\"" r=\""10\"" fill=\""none\"" transform=\""translate(26 -15)\"" stroke=\""magenta\"" />"",""<path d=\""M 50 57 L 50 43\"" stroke=\""black\"" transform=\""translate(26 -15) rotate(45 50 50)\""/>"",""</svg>""]","m","","","","VDACtest","green","1","h","false","high","","",""
"","html-keyboard-response","93","176988","0.0-4.0-0.0-2.7","wo2","[""green""]","null","<p style=""font-size:300%;"">Miss.</p><p style=""font-size:300%"">Total: 28 points.</p>","null","","","","","","","","","","28","",""
"","call-function","94","177990","0.0-5.0","wo2","[""green""]","","","","","","","","","","","","","","",""
"","instructions","95","185581","0.0-6.0-0.0","wo2","[""green""]","7589.199999988079","","","","","[{""page_index"":0,""viewing_time"":2925.199999988079},{""page_index"":1,""viewing_time"":2471.7000000476837},{""page_index"":2,""viewing_time"":1087.7999999523163},{""page_index"":3,""viewing_time"":1104.1000000238419}]","","","","","","","","",""
"","html-keyboard-response","96","186120","0.0-6.0-1.0-0.0","wo2","[""green""]","null","<svg viewBox=""0 0 100 100"" > <path d=""M 50 52 L 50 48"" stroke=""black"" stroke-width="".5""/> <path d=""M 52 50 L 48 50"" stroke=""black"" stroke-width="".5""/>","null","","","","","","","","","","","",""
"","html-keyboard-response","97","187123","0.0-6.0-1.0-1.0-0.0","wo2","[""green""]","null","[""<svg viewBox=\""0 0 100 100\"" >"",""<path d=\""M 50 52 L 50 48\"" stroke=\""black\"" stroke-width=\"".5\""/>"",""<path d=\""M 52 50 L 48 50\"" stroke=\""black\"" stroke-width=\"".5\""/>"",""text"",""<text dominant-baseline=\""middle\"" x=\""50\"" y=\""50\"" fill=red transform=\""translate(26 15)\"" class=\""bacs1\"">J</text>"",""<text dominant-baseline=\""middle\"" x=\""50\"" y=\""50\"" fill=black transform=\""translate(-26 15)\"" class=\""bacs2\"">b</text>"",""<text dominant-baseline=\""middle\"" x=\""50\"" y=\""50\"" fill=black transform=\""translate(0 -30)\"" class=\""bacs1\"">p</text>"",""</svg>""]","null","","","","","","","","","","","",""
"","html-keyboard-response","98","187626","0.0-6.0-1.0-1.0-1.0","wo2","[""green""]","null","[""<svg viewBox=\""0 0 100 100\"" >"",""<path d=\""M 50 52 L 50 48\"" stroke=\""black\"" stroke-width=\"".5\""/>"",""<path d=\""M 52 50 L 48 50\"" stroke=\""black\"" stroke-width=\"".5\""/>"",""<text dominant-baseline=\""middle\"" text-anchor= \""middle\"" x=\""50\"" y=\""50\"" fill=\""black\"" transform=\""translate(26 15)\"">X</text><text dominant-baseline=\""middle\"" text-anchor= \""middle\"" x=\""50\"" y=\""50\"" fill=\""black\"" transform=\""translate(31 15)\"">X</text><text dominant-baseline=\""middle\"" text-anchor= \""middle\"" x=\""50\"" y=\""50\"" fill=\""black\"" transform=\""translate(21 15)\"">X</text>"",""<text dominant-baseline=\""middle\"" text-anchor= \""middle\"" x=\""50\"" y=\""50\"" fill=\""black\"" transform=\""translate(-26 15)\"">X</text><text dominant-baseline=\""middle\"" text-anchor= \""middle\"" x=\""50\"" y=\""50\"" fill=\""black\"" transform=\""translate(-21 15)\"">X</text><text dominant-baseline=\""middle\"" text-anchor= \""middle\"" x=\""50\"" y=\""50\"" fill=\""black\"" transform=\""translate(-31 15)\"">X</text>"",""<text dominant-baseline=\""middle\"" text-anchor= \""middle\"" x=\""50\"" y=\""50\"" fill=\""black\"" transform=\""translate(0 -30)\"">X</text><text dominant-baseline=\""middle\"" text-anchor= \""middle\"" x=\""50\"" y=\""50\"" fill=\""black\"" transform=\""translate(5 -30)\"">X</text><text dominant-baseline=\""middle\"" text-anchor= \""middle\"" x=\""50\"" y=\""50\"" fill=\""black\"" transform=\""translate(-5 -30)\"">X</text>"",""</svg>""]","null","","","","","","","","","","","",""
"","html-keyboard-response","99","188627","0.0-6.0-1.0-1.0-2.0","wo2","[""green""]","null","<svg viewBox=""0 0 100 100"" > <path d=""M 50 52 L 50 48"" stroke=""black"" stroke-width="".5""/> <path d=""M 52 50 L 48 50"" stroke=""black"" stroke-width="".5""/>","null","","","","","","","","","","","",""
"","html-keyboard-response","100","189405","0.0-6.0-1.0-1.0-3.0","wo2","[""green""]","775.5","<svg viewBox=""0 0 100 100""><text dominant-baseline=""middle"" x=""50"" y=""50"" class=""bacs1"">J</text><text font-size=""10%"" text-anchor=""middle""  x=""50"" y=""75"">Press z for old or m for new</text>","z","","","","","","","","true","","","","1st"
"","html-keyboard-response","101","191906","0.0-6.0-1.0-2.0","wo2","[""green""]","null","<p style=""font-size:300%;"">Correct!</p>","null","","","","","","","","","","","",""
"","html-keyboard-response","102","193446","0.0-6.0-1.0-0.1","wo2","[""green""]","null","<svg viewBox=""0 0 100 100"" > <path d=""M 50 52 L 50 48"" stroke=""black"" stroke-width="".5""/> <path d=""M 52 50 L 48 50"" stroke=""black"" stroke-width="".5""/>","null","","","","","","","","","","","",""
"","html-keyboard-response","103","194450","0.0-6.0-1.0-1.1-0.1","wo2","[""green""]","null","[""<svg viewBox=\""0 0 100 100\"" >"",""<path d=\""M 50 52 L 50 48\"" stroke=\""black\"" stroke-width=\"".5\""/>"",""<path d=\""M 52 50 L 48 50\"" stroke=\""black\"" stroke-width=\"".5\""/>"",""text"",""<text dominant-baseline=\""middle\"" x=\""50\"" y=\""50\"" fill=black transform=\""translate(0 30)\"" class=\""bacs1\"">S</text>"",""<text dominant-baseline=\""middle\"" x=\""50\"" y=\""50\"" fill=green transform=\""translate(-26 -15)\"" class=\""bacs2\"">f</text>"",""<text dominant-baseline=\""middle\"" x=\""50\"" y=\""50\"" fill=black transform=\""translate(26 -15)\"" class=\""bacs1\"">I</text>"",""</svg>""]","null","","","","","","","","","","","",""
"","html-keyboard-response","104","194952","0.0-6.0-1.0-1.1-1.1","wo2","[""green""]","null","[""<svg viewBox=\""0 0 100 100\"" >"",""<path d=\""M 50 52 L 50 48\"" stroke=\""black\"" stroke-width=\"".5\""/>"",""<path d=\""M 52 50 L 48 50\"" stroke=\""black\"" stroke-width=\"".5\""/>"",""<text dominant-baseline=\""middle\"" text-anchor= \""middle\"" x=\""50\"" y=\""50\"" fill=\""black\"" transform=\""translate(0 30)\"">X</text><text dominant-baseline=\""middle\"" text-anchor= \""middle\"" x=\""50\"" y=\""50\"" fill=\""black\"" transform=\""translate(5 30)\"">X</text><text dominant-baseline=\""middle\"" text-anchor= \""middle\"" x=\""50\"" y=\""50\"" fill=\""black\"" transform=\""translate(-5 30)\"">X</text>"",""<text dominant-baseline=\""middle\"" text-anchor= \""middle\"" x=\""50\"" y=\""50\"" fill=\""black\"" transform=\""translate(-26 -15)\"">X</text><text dominant-baseline=\""middle\"" text-anchor= \""middle\"" x=\""50\"" y=\""50\"" fill=\""black\"" transform=\""translate(-21 -15)\"">X</text><text dominant-baseline=\""middle\"" text-anchor= \""middle\"" x=\""50\"" y=\""50\"" fill=\""black\"" transform=\""translate(-31 -15)\"">X</text>"",""<text dominant-baseline=\""middle\"" text-anchor= \""middle\"" x=\""50\"" y=\""50\"" fill=\""black\"" transform=\""translate(26 -15)\"">X</text><text dominant-baseline=\""middle\"" text-anchor= \""middle\"" x=\""50\"" y=\""50\"" fill=\""black\"" transform=\""translate(31 -15)\"">X</text><text dominant-baseline=\""middle\"" text-anchor= \""middle\"" x=\""50\"" y=\""50\"" fill=\""black\"" transform=\""translate(21 -15)\"">X</text>"",""</svg>""]","null","","","","","","","","","","","",""
"","html-keyboard-response","105","195953","0.0-6.0-1.0-1.1-2.1","wo2","[""green""]","null","<svg viewBox=""0 0 100 100"" > <path d=""M 50 52 L 50 48"" stroke=""black"" stroke-width="".5""/> <path d=""M 52 50 L 48 50"" stroke=""black"" stroke-width="".5""/>","null","","","","","","","","","","","",""
"","html-keyboard-response","106","197053","0.0-6.0-1.0-1.1-3.1","wo2","[""green""]","1097.199999988079","<svg viewBox=""0 0 100 100""><text dominant-baseline=""middle"" x=""50"" y=""50"" class=""bacs2"">f</text><text font-size=""10%"" text-anchor=""middle""  x=""50"" y=""75"">Press z for old or m for new</text>","m","","","","","","","","false","","","","1st"
"","html-keyboard-response","107","199555","0.0-6.0-1.0-2.1","wo2","[""green""]","null","<p style=""font-size:300%;"">Miss.</p> <p style=""font-size:300%;"">Wrong response.</p>","null","","","","","","","","","","","",""
"","html-keyboard-response","108","201096","0.0-6.0-1.0-0.2","wo2","[""green""]","null","<svg viewBox=""0 0 100 100"" > <path d=""M 50 52 L 50 48"" stroke=""black"" stroke-width="".5""/> <path d=""M 52 50 L 48 50"" stroke=""black"" stroke-width="".5""/>","null","","","","","","","","","","","",""
"","html-keyboard-response","109","202099","0.0-6.0-1.0-1.2-0.2","wo2","[""green""]","null","[""<svg viewBox=\""0 0 100 100\"" >"",""<path d=\""M 50 52 L 50 48\"" stroke=\""black\"" stroke-width=\"".5\""/>"",""<path d=\""M 52 50 L 48 50\"" stroke=\""black\"" stroke-width=\"".5\""/>"",""text"",""<text dominant-baseline=\""middle\"" x=\""50\"" y=\""50\"" fill=black transform=\""translate(26 15)\"" class=\""bacs1\"">l</text>"",""<text dominant-baseline=\""middle\"" x=\""50\"" y=\""50\"" fill=black transform=\""translate(-26 15)\"" class=\""bacs2\"">A</text>"",""<text dominant-baseline=\""middle\"" x=\""50\"" y=\""50\"" fill=green transform=\""translate(0 -30)\"" class=\""bacs2\"">E</text>"",""</svg>""]","null","","","","","","","","","","","",""
"","html-keyboard-response","110","202601","0.0-6.0-1.0-1.2-1.2","wo2","[""green""]","null","[""<svg viewBox=\""0 0 100 100\"" >"",""<path d=\""M 50 52 L 50 48\"" stroke=\""black\"" stroke-width=\"".5\""/>"",""<path d=\""M 52 50 L 48 50\"" stroke=\""black\"" stroke-width=\"".5\""/>"",""<text dominant-baseline=\""middle\"" text-anchor= \""middle\"" x=\""50\"" y=\""50\"" fill=\""black\"" transform=\""translate(26 15)\"">X</text><text dominant-baseline=\""middle\"" text-anchor= \""middle\"" x=\""50\"" y=\""50\"" fill=\""black\"" transform=\""translate(31 15)\"">X</text><text dominant-baseline=\""middle\"" text-anchor= \""middle\"" x=\""50\"" y=\""50\"" fill=\""black\"" transform=\""translate(21 15)\"">X</text>"",""<text dominant-baseline=\""middle\"" text-anchor= \""middle\"" x=\""50\"" y=\""50\"" fill=\""black\"" transform=\""translate(-26 15)\"">X</text><text dominant-baseline=\""middle\"" text-anchor= \""middle\"" x=\""50\"" y=\""50\"" fill=\""black\"" transform=\""translate(-21 15)\"">X</text><text dominant-baseline=\""middle\"" text-anchor= \""middle\"" x=\""50\"" y=\""50\"" fill=\""black\"" transform=\""translate(-31 15)\"">X</text>"",""<text dominant-baseline=\""middle\"" text-anchor= \""middle\"" x=\""50\"" y=\""50\"" fill=\""black\"" transform=\""translate(0 -30)\"">X</text><text dominant-baseline=\""middle\"" text-anchor= \""middle\"" x=\""50\"" y=\""50\"" fill=\""black\"" transform=\""translate(5 -30)\"">X</text><text dominant-baseline=\""middle\"" text-anchor= \""middle\"" x=\""50\"" y=\""50\"" fill=\""black\"" transform=\""translate(-5 -30)\"">X</text>"",""</svg>""]","null","","","","","","","","","","","",""
"","html-keyboard-response","111","203602","0.0-6.0-1.0-1.2-2.2","wo2","[""green""]","null","<svg viewBox=""0 0 100 100"" > <path d=""M 50 52 L 50 48"" stroke=""black"" stroke-width="".5""/> <path d=""M 52 50 L 48 50"" stroke=""black"" stroke-width="".5""/>","null","","","","","","","","","","","",""
"","html-keyboard-response","112","205325","0.0-6.0-1.0-1.2-3.2","wo2","[""green""]","1719.800000011921","<svg viewBox=""0 0 100 100""><text dominant-baseline=""middle"" x=""50"" y=""50"" class=""bacs1"">z</text><text font-size=""10%"" text-anchor=""middle""  x=""50"" y=""75"">Press z for old or m for new</text>","z","","","","","","","","false","","","","new"
"","html-keyboard-response","113","207827","0.0-6.0-1.0-2.2","wo2","[""green""]","null","<p style=""font-size:300%;"">Miss.</p> <p style=""font-size:300%;"">Wrong response.</p>","null","","","","","","","","","","","",""
"","html-keyboard-response","114","209366","0.0-6.0-1.0-0.3","wo2","[""green""]","null","<svg viewBox=""0 0 100 100"" > <path d=""M 50 52 L 50 48"" stroke=""black"" stroke-width="".5""/> <path d=""M 52 50 L 48 50"" stroke=""black"" stroke-width="".5""/>","null","","","","","","","","","","","",""
"","html-keyboard-response","115","210369","0.0-6.0-1.0-1.3-0.3","wo2","[""green""]","null","[""<svg viewBox=\""0 0 100 100\"" >"",""<path d=\""M 50 52 L 50 48\"" stroke=\""black\"" stroke-width=\"".5\""/>"",""<path d=\""M 52 50 L 48 50\"" stroke=\""black\"" stroke-width=\"".5\""/>"",""text"",""<text dominant-baseline=\""middle\"" x=\""50\"" y=\""50\"" fill=red transform=\""translate(0 30)\"" class=\""bacs2\"">B</text>"",""<text dominant-baseline=\""middle\"" x=\""50\"" y=\""50\"" fill=black transform=\""translate(-26 -15)\"" class=\""bacs1\"">c</text>"",""<text dominant-baseline=\""middle\"" x=\""50\"" y=\""50\"" fill=black transform=\""translate(26 -15)\"" class=\""bacs1\"">N</text>"",""</svg>""]","null","","","","","","","","","","","",""
"","html-keyboard-response","116","210871","0.0-6.0-1.0-1.3-1.3","wo2","[""green""]","null","[""<svg viewBox=\""0 0 100 100\"" >"",""<path d=\""M 50 52 L 50 48\"" stroke=\""black\"" stroke-width=\"".5\""/>"",""<path d=\""M 52 50 L 48 50\"" stroke=\""black\"" stroke-width=\"".5\""/>"",""<text dominant-baseline=\""middle\"" text-anchor= \""middle\"" x=\""50\"" y=\""50\"" fill=\""black\"" transform=\""translate(0 30)\"">X</text><text dominant-baseline=\""middle\"" text-anchor= \""middle\"" x=\""50\"" y=\""50\"" fill=\""black\"" transform=\""translate(5 30)\"">X</text><text dominant-baseline=\""middle\"" text-anchor= \""middle\"" x=\""50\"" y=\""50\"" fill=\""black\"" transform=\""translate(-5 30)\"">X</text>"",""<text dominant-baseline=\""middle\"" text-anchor= \""middle\"" x=\""50\"" y=\""50\"" fill=\""black\"" transform=\""translate(-26 -15)\"">X</text><text dominant-baseline=\""middle\"" text-anchor= \""middle\"" x=\""50\"" y=\""50\"" fill=\""black\"" transform=\""translate(-21 -15)\"">X</text><text dominant-baseline=\""middle\"" text-anchor= \""middle\"" x=\""50\"" y=\""50\"" fill=\""black\"" transform=\""translate(-31 -15)\"">X</text>"",""<text dominant-baseline=\""middle\"" text-anchor= \""middle\"" x=\""50\"" y=\""50\"" fill=\""black\"" transform=\""translate(26 -15)\"">X</text><text dominant-baseline=\""middle\"" text-anchor= \""middle\"" x=\""50\"" y=\""50\"" fill=\""black\"" transform=\""translate(31 -15)\"">X</text><text dominant-baseline=\""middle\"" text-anchor= \""middle\"" x=\""50\"" y=\""50\"" fill=\""black\"" transform=\""translate(21 -15)\"">X</text>"",""</svg>""]","null","","","","","","","","","","","",""
"","html-keyboard-response","117","211873","0.0-6.0-1.0-1.3-2.3","wo2","[""green""]","null","<svg viewBox=""0 0 100 100"" > <path d=""M 50 52 L 50 48"" stroke=""black"" stroke-width="".5""/> <path d=""M 52 50 L 48 50"" stroke=""black"" stroke-width="".5""/>","null","","","","","","","","","","","",""
"","html-keyboard-response","118","212733","0.0-6.0-1.0-1.3-3.3","wo2","[""green""]","858","<svg viewBox=""0 0 100 100""><text dominant-baseline=""middle"" x=""50"" y=""50"" class=""bacs2"">N</text><text font-size=""10%"" text-anchor=""middle""  x=""50"" y=""75"">Press z for old or m for new</text>","m","","","","","","","","true","","","","new"
"","html-keyboard-response","119","215236","0.0-6.0-1.0-2.3","wo2","[""green""]","null","<p style=""font-size:300%;"">Correct!</p>","null","","","","","","","","","","","",""
"","html-keyboard-response","120","216775","0.0-6.0-1.0-0.4","wo2","[""green""]","null","<svg viewBox=""0 0 100 100"" > <path d=""M 50 52 L 50 48"" stroke=""black"" stroke-width="".5""/> <path d=""M 52 50 L 48 50"" stroke=""black"" stroke-width="".5""/>","null","","","","","","","","","","","",""
"","html-keyboard-response","121","217777","0.0-6.0-1.0-1.4-0.4","wo2","[""green""]","null","[""<svg viewBox=\""0 0 100 100\"" >"",""<path d=\""M 50 52 L 50 48\"" stroke=\""black\"" stroke-width=\"".5\""/>"",""<path d=\""M 52 50 L 48 50\"" stroke=\""black\"" stroke-width=\"".5\""/>"",""text"",""<text dominant-baseline=\""middle\"" x=\""50\"" y=\""50\"" fill=black transform=\""translate(26 15)\"" class=\""bacs2\"">r</text>"",""<text dominant-baseline=\""middle\"" x=\""50\"" y=\""50\"" fill=black transform=\""translate(-26 15)\"" class=\""bacs2\"">E</text>"",""<text dominant-baseline=\""middle\"" x=\""50\"" y=\""50\"" fill=black transform=\""translate(0 -30)\"" class=\""bacs2\"">w</text>"",""</svg>""]","null","","","","","","","","","","","",""
"","html-keyboard-response","122","218280","0.0-6.0-1.0-1.4-1.4","wo2","[""green""]","null","[""<svg viewBox=\""0 0 100 100\"" >"",""<path d=\""M 50 52 L 50 48\"" stroke=\""black\"" stroke-width=\"".5\""/>"",""<path d=\""M 52 50 L 48 50\"" stroke=\""black\"" stroke-width=\"".5\""/>"",""<text dominant-baseline=\""middle\"" text-anchor= \""middle\"" x=\""50\"" y=\""50\"" fill=\""black\"" transform=\""translate(26 15)\"">X</text><text dominant-baseline=\""middle\"" text-anchor= \""middle\"" x=\""50\"" y=\""50\"" fill=\""black\"" transform=\""translate(31 15)\"">X</text><text dominant-baseline=\""middle\"" text-anchor= \""middle\"" x=\""50\"" y=\""50\"" fill=\""black\"" transform=\""translate(21 15)\"">X</text>"",""<text dominant-baseline=\""middle\"" text-anchor= \""middle\"" x=\""50\"" y=\""50\"" fill=\""black\"" transform=\""translate(-26 15)\"">X</text><text dominant-baseline=\""middle\"" text-anchor= \""middle\"" x=\""50\"" y=\""50\"" fill=\""black\"" transform=\""translate(-21 15)\"">X</text><text dominant-baseline=\""middle\"" text-anchor= \""middle\"" x=\""50\"" y=\""50\"" fill=\""black\"" transform=\""translate(-31 15)\"">X</text>"",""<text dominant-baseline=\""middle\"" text-anchor= \""middle\"" x=\""50\"" y=\""50\"" fill=\""black\"" transform=\""translate(0 -30)\"">X</text><text dominant-baseline=\""middle\"" text-anchor= \""middle\"" x=\""50\"" y=\""50\"" fill=\""black\"" transform=\""translate(5 -30)\"">X</text><text dominant-baseline=\""middle\"" text-anchor= \""middle\"" x=\""50\"" y=\""50\"" fill=\""black\"" transform=\""translate(-5 -30)\"">X</text>"",""</svg>""]","null","","","","","","","","","","","",""
"","html-keyboard-response","123","219282","0.0-6.0-1.0-1.4-2.4","wo2","[""green""]","null","<svg viewBox=""0 0 100 100"" > <path d=""M 50 52 L 50 48"" stroke=""black"" stroke-width="".5""/> <path d=""M 52 50 L 48 50"" stroke=""black"" stroke-width="".5""/>","null","","","","","","","","","","","",""
"","html-keyboard-response","124","220348","0.0-6.0-1.0-1.4-3.4","wo2","[""green""]","1064.300000011921","<svg viewBox=""0 0 100 100""><text dominant-baseline=""middle"" x=""50"" y=""50"" class=""bacs2"">w</text><text font-size=""10%"" text-anchor=""middle""  x=""50"" y=""75"">Press z for old or m for new</text>","z","","","","","","","","true","","","","1st"
"","html-keyboard-response","125","222850","0.0-6.0-1.0-2.4","wo2","[""green""]","null","<p style=""font-size:300%;"">Correct!</p>","null","","","","","","","","","","","",""
"","html-keyboard-response","126","224389","0.0-6.0-1.0-0.5","wo2","[""green""]","null","<svg viewBox=""0 0 100 100"" > <path d=""M 50 52 L 50 48"" stroke=""black"" stroke-width="".5""/> <path d=""M 52 50 L 48 50"" stroke=""black"" stroke-width="".5""/>","null","","","","","","","","","","","",""
"","html-keyboard-response","127","225392","0.0-6.0-1.0-1.5-0.5","wo2","[""green""]","null","[""<svg viewBox=\""0 0 100 100\"" >"",""<path d=\""M 50 52 L 50 48\"" stroke=\""black\"" stroke-width=\"".5\""/>"",""<path d=\""M 52 50 L 48 50\"" stroke=\""black\"" stroke-width=\"".5\""/>"",""text"",""<text dominant-baseline=\""middle\"" x=\""50\"" y=\""50\"" fill=black transform=\""translate(0 30)\"" class=\""bacs1\"">o</text>"",""<text dominant-baseline=\""middle\"" x=\""50\"" y=\""50\"" fill=black transform=\""translate(-26 -15)\"" class=\""bacs1\"">F</text>"",""<text dominant-baseline=\""middle\"" x=\""50\"" y=\""50\"" fill=black transform=\""translate(26 -15)\"" class=\""bacs2\"">q</text>"",""</svg>""]","null","","","","","","","","","","","",""
"","html-keyboard-response","128","225894","0.0-6.0-1.0-1.5-1.5","wo2","[""green""]","null","[""<svg viewBox=\""0 0 100 100\"" >"",""<path d=\""M 50 52 L 50 48\"" stroke=\""black\"" stroke-width=\"".5\""/>"",""<path d=\""M 52 50 L 48 50\"" stroke=\""black\"" stroke-width=\"".5\""/>"",""<text dominant-baseline=\""middle\"" text-anchor= \""middle\"" x=\""50\"" y=\""50\"" fill=\""black\"" transform=\""translate(0 30)\"">X</text><text dominant-baseline=\""middle\"" text-anchor= \""middle\"" x=\""50\"" y=\""50\"" fill=\""black\"" transform=\""translate(5 30)\"">X</text><text dominant-baseline=\""middle\"" text-anchor= \""middle\"" x=\""50\"" y=\""50\"" fill=\""black\"" transform=\""translate(-5 30)\"">X</text>"",""<text dominant-baseline=\""middle\"" text-anchor= \""middle\"" x=\""50\"" y=\""50\"" fill=\""black\"" transform=\""translate(-26 -15)\"">X</text><text dominant-baseline=\""middle\"" text-anchor= \""middle\"" x=\""50\"" y=\""50\"" fill=\""black\"" transform=\""translate(-21 -15)\"">X</text><text dominant-baseline=\""middle\"" text-anchor= \""middle\"" x=\""50\"" y=\""50\"" fill=\""black\"" transform=\""translate(-31 -15)\"">X</text>"",""<text dominant-baseline=\""middle\"" text-anchor= \""middle\"" x=\""50\"" y=\""50\"" fill=\""black\"" transform=\""translate(26 -15)\"">X</text><text dominant-baseline=\""middle\"" text-anchor= \""middle\"" x=\""50\"" y=\""50\"" fill=\""black\"" transform=\""translate(31 -15)\"">X</text><text dominant-baseline=\""middle\"" text-anchor= \""middle\"" x=\""50\"" y=\""50\"" fill=\""black\"" transform=\""translate(21 -15)\"">X</text>"",""</svg>""]","null","","","","","","","","","","","",""
"","html-keyboard-response","129","226896","0.0-6.0-1.0-1.5-2.5","wo2","[""green""]","null","<svg viewBox=""0 0 100 100"" > <path d=""M 50 52 L 50 48"" stroke=""black"" stroke-width="".5""/> <path d=""M 52 50 L 48 50"" stroke=""black"" stroke-width="".5""/>","null","","","","","","","","","","","",""
"","html-keyboard-response","130","227837","0.0-6.0-1.0-1.5-3.5","wo2","[""green""]","938.6000000238419","<svg viewBox=""0 0 100 100""><text dominant-baseline=""middle"" x=""50"" y=""50"" class=""bacs1"">Q</text><text font-size=""10%"" text-anchor=""middle""  x=""50"" y=""75"">Press z for old or m for new</text>","m","","","","","","","","true","","","","new"
"","html-keyboard-response","131","230339","0.0-6.0-1.0-2.5","wo2","[""green""]","null","<p style=""font-size:300%;"">Correct!</p>","null","","","","","","","","","","","",""
"","html-keyboard-response","132","233580","0.0-6.0-2.0","wo2","[""green""]","2239.400000035763","<p>You have now finished the training exercise. If you would like to repeat the instructions and training exercise, press <b>R</b>. If you are ready to continue to the task, press <b>C</b>. </p>","r","","","","","","","","","","","",""
"","instructions","133","240908","0.0-6.1-0.1","wo2","[""green""]","7325.900000035763","","","","","[{""page_index"":0,""viewing_time"":2381.5},{""page_index"":1,""viewing_time"":872.1999999880791},{""page_index"":2,""viewing_time"":1032.2000000476837},{""page_index"":3,""viewing_time"":3039.699999988079}]","","","","","","","","",""
"","html-keyboard-response","134","241447","0.0-6.1-1.1-0.6","wo2","[""green""]","null","<svg viewBox=""0 0 100 100"" > <path d=""M 50 52 L 50 48"" stroke=""black"" stroke-width="".5""/> <path d=""M 52 50 L 48 50"" stroke=""black"" stroke-width="".5""/>","null","","","","","","","","","","","",""
"","html-keyboard-response","135","242450","0.0-6.1-1.1-1.6-0.6","wo2","[""green""]","null","[""<svg viewBox=\""0 0 100 100\"" >"",""<path d=\""M 50 52 L 50 48\"" stroke=\""black\"" stroke-width=\"".5\""/>"",""<path d=\""M 52 50 L 48 50\"" stroke=\""black\"" stroke-width=\"".5\""/>"",""text"",""<text dominant-baseline=\""middle\"" x=\""50\"" y=\""50\"" fill=red transform=\""translate(26 15)\"" class=\""bacs1\"">J</text>"",""<text dominant-baseline=\""middle\"" x=\""50\"" y=\""50\"" fill=black transform=\""translate(-26 15)\"" class=\""bacs2\"">b</text>"",""<text dominant-baseline=\""middle\"" x=\""50\"" y=\""50\"" fill=black transform=\""translate(0 -30)\"" class=\""bacs1\"">p</text>"",""</svg>""]","null","","","","","","","","","","","",""
"","html-keyboard-response","136","242953","0.0-6.1-1.1-1.6-1.6","wo2","[""green""]","null","[""<svg viewBox=\""0 0 100 100\"" >"",""<path d=\""M 50 52 L 50 48\"" stroke=\""black\"" stroke-width=\"".5\""/>"",""<path d=\""M 52 50 L 48 50\"" stroke=\""black\"" stroke-width=\"".5\""/>"",""<text dominant-baseline=\""middle\"" text-anchor= \""middle\"" x=\""50\"" y=\""50\"" fill=\""black\"" transform=\""translate(26 15)\"">X</text><text dominant-baseline=\""middle\"" text-anchor= \""middle\"" x=\""50\"" y=\""50\"" fill=\""black\"" transform=\""translate(31 15)\"">X</text><text dominant-baseline=\""middle\"" text-anchor= \""middle\"" x=\""50\"" y=\""50\"" fill=\""black\"" transform=\""translate(21 15)\"">X</text>"",""<text dominant-baseline=\""middle\"" text-anchor= \""middle\"" x=\""50\"" y=\""50\"" fill=\""black\"" transform=\""translate(-26 15)\"">X</text><text dominant-baseline=\""middle\"" text-anchor= \""middle\"" x=\""50\"" y=\""50\"" fill=\""black\"" transform=\""translate(-21 15)\"">X</text><text dominant-baseline=\""middle\"" text-anchor= \""middle\"" x=\""50\"" y=\""50\"" fill=\""black\"" transform=\""translate(-31 15)\"">X</text>"",""<text dominant-baseline=\""middle\"" text-anchor= \""middle\"" x=\""50\"" y=\""50\"" fill=\""black\"" transform=\""translate(0 -30)\"">X</text><text dominant-baseline=\""middle\"" text-anchor= \""middle\"" x=\""50\"" y=\""50\"" fill=\""black\"" transform=\""translate(5 -30)\"">X</text><text dominant-baseline=\""middle\"" text-anchor= \""middle\"" x=\""50\"" y=\""50\"" fill=\""black\"" transform=\""translate(-5 -30)\"">X</text>"",""</svg>""]","null","","","","","","","","","","","",""
"","html-keyboard-response","137","243955","0.0-6.1-1.1-1.6-2.6","wo2","[""green""]","null","<svg viewBox=""0 0 100 100"" > <path d=""M 50 52 L 50 48"" stroke=""black"" stroke-width="".5""/> <path d=""M 52 50 L 48 50"" stroke=""black"" stroke-width="".5""/>","null","","","","","","","","","","","",""
"","html-keyboard-response","138","244940","0.0-6.1-1.1-1.6-3.6","wo2","[""green""]","983.5","<svg viewBox=""0 0 100 100""><text dominant-baseline=""middle"" x=""50"" y=""50"" class=""bacs1"">J</text><text font-size=""10%"" text-anchor=""middle""  x=""50"" y=""75"">Press z for old or m for new</text>","z","","","","","","","","true","","","","1st"
"","html-keyboard-response","139","247443","0.0-6.1-1.1-2.6","wo2","[""green""]","null","<p style=""font-size:300%;"">Correct!</p>","null","","","","","","","","","","","",""
"","html-keyboard-response","140","248982","0.0-6.1-1.1-0.7","wo2","[""green""]","null","<svg viewBox=""0 0 100 100"" > <path d=""M 50 52 L 50 48"" stroke=""black"" stroke-width="".5""/> <path d=""M 52 50 L 48 50"" stroke=""black"" stroke-width="".5""/>","null","","","","","","","","","","","",""
"","html-keyboard-response","141","249986","0.0-6.1-1.1-1.7-0.7","wo2","[""green""]","null","[""<svg viewBox=\""0 0 100 100\"" >"",""<path d=\""M 50 52 L 50 48\"" stroke=\""black\"" stroke-width=\"".5\""/>"",""<path d=\""M 52 50 L 48 50\"" stroke=\""black\"" stroke-width=\"".5\""/>"",""text"",""<text dominant-baseline=\""middle\"" x=\""50\"" y=\""50\"" fill=black transform=\""translate(0 30)\"" class=\""bacs1\"">S</text>"",""<text dominant-baseline=\""middle\"" x=\""50\"" y=\""50\"" fill=green transform=\""translate(-26 -15)\"" class=\""bacs2\"">f</text>"",""<text dominant-baseline=\""middle\"" x=\""50\"" y=\""50\"" fill=black transform=\""translate(26 -15)\"" class=\""bacs1\"">I</text>"",""</svg>""]","null","","","","","","","","","","","",""
"","html-keyboard-response","142","250488","0.0-6.1-1.1-1.7-1.7","wo2","[""green""]","null","[""<svg viewBox=\""0 0 100 100\"" >"",""<path d=\""M 50 52 L 50 48\"" stroke=\""black\"" stroke-width=\"".5\""/>"",""<path d=\""M 52 50 L 48 50\"" stroke=\""black\"" stroke-width=\"".5\""/>"",""<text dominant-baseline=\""middle\"" text-anchor= \""middle\"" x=\""50\"" y=\""50\"" fill=\""black\"" transform=\""translate(0 30)\"">X</text><text dominant-baseline=\""middle\"" text-anchor= \""middle\"" x=\""50\"" y=\""50\"" fill=\""black\"" transform=\""translate(5 30)\"">X</text><text dominant-baseline=\""middle\"" text-anchor= \""middle\"" x=\""50\"" y=\""50\"" fill=\""black\"" transform=\""translate(-5 30)\"">X</text>"",""<text dominant-baseline=\""middle\"" text-anchor= \""middle\"" x=\""50\"" y=\""50\"" fill=\""black\"" transform=\""translate(-26 -15)\"">X</text><text dominant-baseline=\""middle\"" text-anchor= \""middle\"" x=\""50\"" y=\""50\"" fill=\""black\"" transform=\""translate(-21 -15)\"">X</text><text dominant-baseline=\""middle\"" text-anchor= \""middle\"" x=\""50\"" y=\""50\"" fill=\""black\"" transform=\""translate(-31 -15)\"">X</text>"",""<text dominant-baseline=\""middle\"" text-anchor= \""middle\"" x=\""50\"" y=\""50\"" fill=\""black\"" transform=\""translate(26 -15)\"">X</text><text dominant-baseline=\""middle\"" text-anchor= \""middle\"" x=\""50\"" y=\""50\"" fill=\""black\"" transform=\""translate(31 -15)\"">X</text><text dominant-baseline=\""middle\"" text-anchor= \""middle\"" x=\""50\"" y=\""50\"" fill=\""black\"" transform=\""translate(21 -15)\"">X</text>"",""</svg>""]","null","","","","","","","","","","","",""
"","html-keyboard-response","143","251491","0.0-6.1-1.1-1.7-2.7","wo2","[""green""]","null","<svg viewBox=""0 0 100 100"" > <path d=""M 50 52 L 50 48"" stroke=""black"" stroke-width="".5""/> <path d=""M 52 50 L 48 50"" stroke=""black"" stroke-width="".5""/>","null","","","","","","","","","","","",""
"","html-keyboard-response","144","253061","0.0-6.1-1.1-1.7-3.7","wo2","[""green""]","1568.1000000238419","<svg viewBox=""0 0 100 100""><text dominant-baseline=""middle"" x=""50"" y=""50"" class=""bacs2"">f</text><text font-size=""10%"" text-anchor=""middle""  x=""50"" y=""75"">Press z for old or m for new</text>","z","","","","","","","","true","","","","1st"
"","html-keyboard-response","145","255563","0.0-6.1-1.1-2.7","wo2","[""green""]","null","<p style=""font-size:300%;"">Correct!</p>","null","","","","","","","","","","","",""
"","html-keyboard-response","146","257103","0.0-6.1-1.1-0.8","wo2","[""green""]","null","<svg viewBox=""0 0 100 100"" > <path d=""M 50 52 L 50 48"" stroke=""black"" stroke-width="".5""/> <path d=""M 52 50 L 48 50"" stroke=""black"" stroke-width="".5""/>","null","","","","","","","","","","","",""
"","html-keyboard-response","147","258106","0.0-6.1-1.1-1.8-0.8","wo2","[""green""]","null","[""<svg viewBox=\""0 0 100 100\"" >"",""<path d=\""M 50 52 L 50 48\"" stroke=\""black\"" stroke-width=\"".5\""/>"",""<path d=\""M 52 50 L 48 50\"" stroke=\""black\"" stroke-width=\"".5\""/>"",""text"",""<text dominant-baseline=\""middle\"" x=\""50\"" y=\""50\"" fill=black transform=\""translate(26 15)\"" class=\""bacs1\"">l</text>"",""<text dominant-baseline=\""middle\"" x=\""50\"" y=\""50\"" fill=black transform=\""translate(-26 15)\"" class=\""bacs2\"">A</text>"",""<text dominant-baseline=\""middle\"" x=\""50\"" y=\""50\"" fill=green transform=\""translate(0 -30)\"" class=\""bacs2\"">E</text>"",""</svg>""]","null","","","","","","","","","","","",""
"","html-keyboard-response","148","258609","0.0-6.1-1.1-1.8-1.8","wo2","[""green""]","null","[""<svg viewBox=\""0 0 100 100\"" >"",""<path d=\""M 50 52 L 50 48\"" stroke=\""black\"" stroke-width=\"".5\""/>"",""<path d=\""M 52 50 L 48 50\"" stroke=\""black\"" stroke-width=\"".5\""/>"",""<text dominant-baseline=\""middle\"" text-anchor= \""middle\"" x=\""50\"" y=\""50\"" fill=\""black\"" transform=\""translate(26 15)\"">X</text><text dominant-baseline=\""middle\"" text-anchor= \""middle\"" x=\""50\"" y=\""50\"" fill=\""black\"" transform=\""translate(31 15)\"">X</text><text dominant-baseline=\""middle\"" text-anchor= \""middle\"" x=\""50\"" y=\""50\"" fill=\""black\"" transform=\""translate(21 15)\"">X</text>"",""<text dominant-baseline=\""middle\"" text-anchor= \""middle\"" x=\""50\"" y=\""50\"" fill=\""black\"" transform=\""translate(-26 15)\"">X</text><text dominant-baseline=\""middle\"" text-anchor= \""middle\"" x=\""50\"" y=\""50\"" fill=\""black\"" transform=\""translate(-21 15)\"">X</text><text dominant-baseline=\""middle\"" text-anchor= \""middle\"" x=\""50\"" y=\""50\"" fill=\""black\"" transform=\""translate(-31 15)\"">X</text>"",""<text dominant-baseline=\""middle\"" text-anchor= \""middle\"" x=\""50\"" y=\""50\"" fill=\""black\"" transform=\""translate(0 -30)\"">X</text><text dominant-baseline=\""middle\"" text-anchor= \""middle\"" x=\""50\"" y=\""50\"" fill=\""black\"" transform=\""translate(5 -30)\"">X</text><text dominant-baseline=\""middle\"" text-anchor= \""middle\"" x=\""50\"" y=\""50\"" fill=\""black\"" transform=\""translate(-5 -30)\"">X</text>"",""</svg>""]","null","","","","","","","","","","","",""
"","html-keyboard-response","149","259611","0.0-6.1-1.1-1.8-2.8","wo2","[""green""]","null","<svg viewBox=""0 0 100 100"" > <path d=""M 50 52 L 50 48"" stroke=""black"" stroke-width="".5""/> <path d=""M 52 50 L 48 50"" stroke=""black"" stroke-width="".5""/>","null","","","","","","","","","","","",""
"","html-keyboard-response","150","260364","0.0-6.1-1.1-1.8-3.8","wo2","[""green""]","751.4000000357628","<svg viewBox=""0 0 100 100""><text dominant-baseline=""middle"" x=""50"" y=""50"" class=""bacs1"">z</text><text font-size=""10%"" text-anchor=""middle""  x=""50"" y=""75"">Press z for old or m for new</text>","m","","","","","","","","true","","","","new"
"","html-keyboard-response","151","262867","0.0-6.1-1.1-2.8","wo2","[""green""]","null","<p style=""font-size:300%;"">Correct!</p>","null","","","","","","","","","","","",""
"","html-keyboard-response","152","264406","0.0-6.1-1.1-0.9","wo2","[""green""]","null","<svg viewBox=""0 0 100 100"" > <path d=""M 50 52 L 50 48"" stroke=""black"" stroke-width="".5""/> <path d=""M 52 50 L 48 50"" stroke=""black"" stroke-width="".5""/>","null","","","","","","","","","","","",""
"","html-keyboard-response","153","265409","0.0-6.1-1.1-1.9-0.9","wo2","[""green""]","null","[""<svg viewBox=\""0 0 100 100\"" >"",""<path d=\""M 50 52 L 50 48\"" stroke=\""black\"" stroke-width=\"".5\""/>"",""<path d=\""M 52 50 L 48 50\"" stroke=\""black\"" stroke-width=\"".5\""/>"",""text"",""<text dominant-baseline=\""middle\"" x=\""50\"" y=\""50\"" fill=red transform=\""translate(0 30)\"" class=\""bacs2\"">B</text>"",""<text dominant-baseline=\""middle\"" x=\""50\"" y=\""50\"" fill=black transform=\""translate(-26 -15)\"" class=\""bacs1\"">c</text>"",""<text dominant-baseline=\""middle\"" x=\""50\"" y=\""50\"" fill=black transform=\""translate(26 -15)\"" class=\""bacs1\"">N</text>"",""</svg>""]","null","","","","","","","","","","","",""
"","html-keyboard-response","154","265911","0.0-6.1-1.1-1.9-1.9","wo2","[""green""]","null","[""<svg viewBox=\""0 0 100 100\"" >"",""<path d=\""M 50 52 L 50 48\"" stroke=\""black\"" stroke-width=\"".5\""/>"",""<path d=\""M 52 50 L 48 50\"" stroke=\""black\"" stroke-width=\"".5\""/>"",""<text dominant-baseline=\""middle\"" text-anchor= \""middle\"" x=\""50\"" y=\""50\"" fill=\""black\"" transform=\""translate(0 30)\"">X</text><text dominant-baseline=\""middle\"" text-anchor= \""middle\"" x=\""50\"" y=\""50\"" fill=\""black\"" transform=\""translate(5 30)\"">X</text><text dominant-baseline=\""middle\"" text-anchor= \""middle\"" x=\""50\"" y=\""50\"" fill=\""black\"" transform=\""translate(-5 30)\"">X</text>"",""<text dominant-baseline=\""middle\"" text-anchor= \""middle\"" x=\""50\"" y=\""50\"" fill=\""black\"" transform=\""translate(-26 -15)\"">X</text><text dominant-baseline=\""middle\"" text-anchor= \""middle\"" x=\""50\"" y=\""50\"" fill=\""black\"" transform=\""translate(-21 -15)\"">X</text><text dominant-baseline=\""middle\"" text-anchor= \""middle\"" x=\""50\"" y=\""50\"" fill=\""black\"" transform=\""translate(-31 -15)\"">X</text>"",""<text dominant-baseline=\""middle\"" text-anchor= \""middle\"" x=\""50\"" y=\""50\"" fill=\""black\"" transform=\""translate(26 -15)\"">X</text><text dominant-baseline=\""middle\"" text-anchor= \""middle\"" x=\""50\"" y=\""50\"" fill=\""black\"" transform=\""translate(31 -15)\"">X</text><text dominant-baseline=\""middle\"" text-anchor= \""middle\"" x=\""50\"" y=\""50\"" fill=\""black\"" transform=\""translate(21 -15)\"">X</text>"",""</svg>""]","null","","","","","","","","","","","",""
"","html-keyboard-response","155","266913","0.0-6.1-1.1-1.9-2.9","wo2","[""green""]","null","<svg viewBox=""0 0 100 100"" > <path d=""M 50 52 L 50 48"" stroke=""black"" stroke-width="".5""/> <path d=""M 52 50 L 48 50"" stroke=""black"" stroke-width="".5""/>","null","","","","","","","","","","","",""
"","html-keyboard-response","156","267933","0.0-6.1-1.1-1.9-3.9","wo2","[""green""]","1014.8000000119209","<svg viewBox=""0 0 100 100""><text dominant-baseline=""middle"" x=""50"" y=""50"" class=""bacs2"">N</text><text font-size=""10%"" text-anchor=""middle""  x=""50"" y=""75"">Press z for old or m for new</text>","m","","","","","","","","true","","","","new"
"","html-keyboard-response","157","270436","0.0-6.1-1.1-2.9","wo2","[""green""]","null","<p style=""font-size:300%;"">Correct!</p>","null","","","","","","","","","","","",""
"","html-keyboard-response","158","271976","0.0-6.1-1.1-0.10","wo2","[""green""]","null","<svg viewBox=""0 0 100 100"" > <path d=""M 50 52 L 50 48"" stroke=""black"" stroke-width="".5""/> <path d=""M 52 50 L 48 50"" stroke=""black"" stroke-width="".5""/>","null","","","","","","","","","","","",""
"","html-keyboard-response","159","272979","0.0-6.1-1.1-1.10-0.10","wo2","[""green""]","null","[""<svg viewBox=\""0 0 100 100\"" >"",""<path d=\""M 50 52 L 50 48\"" stroke=\""black\"" stroke-width=\"".5\""/>"",""<path d=\""M 52 50 L 48 50\"" stroke=\""black\"" stroke-width=\"".5\""/>"",""text"",""<text dominant-baseline=\""middle\"" x=\""50\"" y=\""50\"" fill=black transform=\""translate(26 15)\"" class=\""bacs2\"">r</text>"",""<text dominant-baseline=\""middle\"" x=\""50\"" y=\""50\"" fill=black transform=\""translate(-26 15)\"" class=\""bacs2\"">E</text>"",""<text dominant-baseline=\""middle\"" x=\""50\"" y=\""50\"" fill=black transform=\""translate(0 -30)\"" class=\""bacs2\"">w</text>"",""</svg>""]","null","","","","","","","","","","","",""
"","html-keyboard-response","160","273482","0.0-6.1-1.1-1.10-1.10","wo2","[""green""]","null","[""<svg viewBox=\""0 0 100 100\"" >"",""<path d=\""M 50 52 L 50 48\"" stroke=\""black\"" stroke-width=\"".5\""/>"",""<path d=\""M 52 50 L 48 50\"" stroke=\""black\"" stroke-width=\"".5\""/>"",""<text dominant-baseline=\""middle\"" text-anchor= \""middle\"" x=\""50\"" y=\""50\"" fill=\""black\"" transform=\""translate(26 15)\"">X</text><text dominant-baseline=\""middle\"" text-anchor= \""middle\"" x=\""50\"" y=\""50\"" fill=\""black\"" transform=\""translate(31 15)\"">X</text><text dominant-baseline=\""middle\"" text-anchor= \""middle\"" x=\""50\"" y=\""50\"" fill=\""black\"" transform=\""translate(21 15)\"">X</text>"",""<text dominant-baseline=\""middle\"" text-anchor= \""middle\"" x=\""50\"" y=\""50\"" fill=\""black\"" transform=\""translate(-26 15)\"">X</text><text dominant-baseline=\""middle\"" text-anchor= \""middle\"" x=\""50\"" y=\""50\"" fill=\""black\"" transform=\""translate(-21 15)\"">X</text><text dominant-baseline=\""middle\"" text-anchor= \""middle\"" x=\""50\"" y=\""50\"" fill=\""black\"" transform=\""translate(-31 15)\"">X</text>"",""<text dominant-baseline=\""middle\"" text-anchor= \""middle\"" x=\""50\"" y=\""50\"" fill=\""black\"" transform=\""translate(0 -30)\"">X</text><text dominant-baseline=\""middle\"" text-anchor= \""middle\"" x=\""50\"" y=\""50\"" fill=\""black\"" transform=\""translate(5 -30)\"">X</text><text dominant-baseline=\""middle\"" text-anchor= \""middle\"" x=\""50\"" y=\""50\"" fill=\""black\"" transform=\""translate(-5 -30)\"">X</text>"",""</svg>""]","null","","","","","","","","","","","",""
"","html-keyboard-response","161","274484","0.0-6.1-1.1-1.10-2.10","wo2","[""green""]","null","<svg viewBox=""0 0 100 100"" > <path d=""M 50 52 L 50 48"" stroke=""black"" stroke-width="".5""/> <path d=""M 52 50 L 48 50"" stroke=""black"" stroke-width="".5""/>","null","","","","","","","","","","","",""
"","html-keyboard-response","162","275164","0.0-6.1-1.1-1.10-3.10","wo2","[""green""]","678","<svg viewBox=""0 0 100 100""><text dominant-baseline=""middle"" x=""50"" y=""50"" class=""bacs2"">w</text><text font-size=""10%"" text-anchor=""middle""  x=""50"" y=""75"">Press z for old or m for new</text>","z","","","","","","","","true","","","","1st"
"","html-keyboard-response","163","277668","0.0-6.1-1.1-2.10","wo2","[""green""]","null","<p style=""font-size:300%;"">Correct!</p>","null","","","","","","","","","","","",""
"","html-keyboard-response","164","279206","0.0-6.1-1.1-0.11","wo2","[""green""]","null","<svg viewBox=""0 0 100 100"" > <path d=""M 50 52 L 50 48"" stroke=""black"" stroke-width="".5""/> <path d=""M 52 50 L 48 50"" stroke=""black"" stroke-width="".5""/>","null","","","","","","","","","","","",""
"","html-keyboard-response","165","280209","0.0-6.1-1.1-1.11-0.11","wo2","[""green""]","null","[""<svg viewBox=\""0 0 100 100\"" >"",""<path d=\""M 50 52 L 50 48\"" stroke=\""black\"" stroke-width=\"".5\""/>"",""<path d=\""M 52 50 L 48 50\"" stroke=\""black\"" stroke-width=\"".5\""/>"",""text"",""<text dominant-baseline=\""middle\"" x=\""50\"" y=\""50\"" fill=black transform=\""translate(0 30)\"" class=\""bacs1\"">o</text>"",""<text dominant-baseline=\""middle\"" x=\""50\"" y=\""50\"" fill=black transform=\""translate(-26 -15)\"" class=\""bacs1\"">F</text>"",""<text dominant-baseline=\""middle\"" x=\""50\"" y=\""50\"" fill=black transform=\""translate(26 -15)\"" class=\""bacs2\"">q</text>"",""</svg>""]","null","","","","","","","","","","","",""
"","html-keyboard-response","166","280711","0.0-6.1-1.1-1.11-1.11","wo2","[""green""]","null","[""<svg viewBox=\""0 0 100 100\"" >"",""<path d=\""M 50 52 L 50 48\"" stroke=\""black\"" stroke-width=\"".5\""/>"",""<path d=\""M 52 50 L 48 50\"" stroke=\""black\"" stroke-width=\"".5\""/>"",""<text dominant-baseline=\""middle\"" text-anchor= \""middle\"" x=\""50\"" y=\""50\"" fill=\""black\"" transform=\""translate(0 30)\"">X</text><text dominant-baseline=\""middle\"" text-anchor= \""middle\"" x=\""50\"" y=\""50\"" fill=\""black\"" transform=\""translate(5 30)\"">X</text><text dominant-baseline=\""middle\"" text-anchor= \""middle\"" x=\""50\"" y=\""50\"" fill=\""black\"" transform=\""translate(-5 30)\"">X</text>"",""<text dominant-baseline=\""middle\"" text-anchor= \""middle\"" x=\""50\"" y=\""50\"" fill=\""black\"" transform=\""translate(-26 -15)\"">X</text><text dominant-baseline=\""middle\"" text-anchor= \""middle\"" x=\""50\"" y=\""50\"" fill=\""black\"" transform=\""translate(-21 -15)\"">X</text><text dominant-baseline=\""middle\"" text-anchor= \""middle\"" x=\""50\"" y=\""50\"" fill=\""black\"" transform=\""translate(-31 -15)\"">X</text>"",""<text dominant-baseline=\""middle\"" text-anchor= \""middle\"" x=\""50\"" y=\""50\"" fill=\""black\"" transform=\""translate(26 -15)\"">X</text><text dominant-baseline=\""middle\"" text-anchor= \""middle\"" x=\""50\"" y=\""50\"" fill=\""black\"" transform=\""translate(31 -15)\"">X</text><text dominant-baseline=\""middle\"" text-anchor= \""middle\"" x=\""50\"" y=\""50\"" fill=\""black\"" transform=\""translate(21 -15)\"">X</text>"",""</svg>""]","null","","","","","","","","","","","",""
"","html-keyboard-response","167","281713","0.0-6.1-1.1-1.11-2.11","wo2","[""green""]","null","<svg viewBox=""0 0 100 100"" > <path d=""M 50 52 L 50 48"" stroke=""black"" stroke-width="".5""/> <path d=""M 52 50 L 48 50"" stroke=""black"" stroke-width="".5""/>","null","","","","","","","","","","","",""
"","html-keyboard-response","168","282652","0.0-6.1-1.1-1.11-3.11","wo2","[""green""]","937.7999999523163","<svg viewBox=""0 0 100 100""><text dominant-baseline=""middle"" x=""50"" y=""50"" class=""bacs1"">Q</text><text font-size=""10%"" text-anchor=""middle""  x=""50"" y=""75"">Press z for old or m for new</text>","m","","","","","","","","true","","","","new"
"","html-keyboard-response","169","285156","0.0-6.1-1.1-2.11","wo2","[""green""]","null","<p style=""font-size:300%;"">Correct!</p>","null","","","","","","","","","","","",""
"","html-keyboard-response","170","287684","0.0-6.1-2.1","wo2","[""green""]","1527.199999988079","<p>You have now finished the training exercise. If you would like to repeat the instructions and training exercise, press <b>R</b>. If you are ready to continue to the task, press <b>C</b>. </p>","c","","","","","","","","","","","",""
"","html-keyboard-response","171","290686","0.0-7.0-0.0","wo2","[""green""]","null","<p>Place your fingers on the <b>z</b> and <b>m</b> keys.The experiment will begin shortly.</p> <p></p>","null","","","","","","","","","","","",""
"","html-keyboard-response","172","291688","0.0-7.0-1.0","wo2","[""green""]","null","<p>Place your fingers on the <b>z</b> and <b>m</b> keys.</b> keys. The experiment will begin shortly.</p><p>5</p>","null","","","","","","","","","","","",""
"","html-keyboard-response","173","292690","0.0-7.0-2.0","wo2","[""green""]","null","<p>Place your fingers on the <b>z</b> and <b>m</b> keys.</b> keys. The experiment will begin shortly.</p><p>4</p>","null","","","","","","","","","","","",""
"","html-keyboard-response","174","293691","0.0-7.0-3.0","wo2","[""green""]","null","<p>Place your fingers on the <b>z</b> and <b>m</b> keys.</b> keys. The experiment will begin shortly.</p><p>3</p>","null","","","","","","","","","","","",""
"","html-keyboard-response","175","294693","0.0-7.0-4.0","wo2","[""green""]","null","<p>Place your fingers on the <b>z</b> and <b>m</b> keys.</b> keys. The experiment will begin shortly.</p><p>2</p>","null","","","","","","","","","","","",""
"","html-keyboard-response","176","295696","0.0-7.0-5.0","wo2","[""green""]","null","<p>Place your fingers on the <b>z</b> and <b>m</b> keys.</b> keys. The experiment will begin shortly.</p><p>1</p>","null","","","","","","","","","","","",""
"","html-keyboard-response","177","296236","0.0-8.0-0.0-0.0","wo2","[""green""]","null","<svg viewBox=""0 0 100 100"" > <path d=""M 50 52 L 50 48"" stroke=""black"" stroke-width="".5""/> <path d=""M 52 50 L 48 50"" stroke=""black"" stroke-width="".5""/>","null","","","","","","","","","","","",""
"","html-keyboard-response","178","297241","0.0-8.0-0.0-1.0-0.0","wo2","[""green""]","null","[""<svg viewBox=\""0 0 100 100\"" >"",""<path d=\""M 50 52 L 50 48\"" stroke=\""black\"" stroke-width=\"".5\""/>"",""<path d=\""M 52 50 L 48 50\"" stroke=\""black\"" stroke-width=\"".5\""/>"",""<text dominant-baseline=\""middle\"" x=\""50\"" y=\""50\"" fill=red transform=\""translate(26 15)\"" class=\""bacs1\"">c</text>"",""<text dominant-baseline=\""middle\"" x=\""50\"" y=\""50\"" fill=black transform=\""translate(-26 15)\"" class=\""bacs2\"">S</text>"",""<text dominant-baseline=\""middle\"" x=\""50\"" y=\""50\"" fill=black transform=\""translate(0 -30)\"" class=\""bacs2\"">P</text>"",""</svg>""]","null","","","","","","","","","","","",""
"","html-keyboard-response","179","297743","0.0-8.0-0.0-1.0-1.0","wo2","[""green""]","null","[""<svg viewBox=\""0 0 100 100\"" >"",""<path d=\""M 50 52 L 50 48\"" stroke=\""black\"" stroke-width=\"".5\""/>"",""<path d=\""M 52 50 L 48 50\"" stroke=\""black\"" stroke-width=\"".5\""/>"",""<text dominant-baseline=\""middle\"" text-anchor= \""middle\"" x=\""50\"" y=\""50\"" fill=\""black\"" transform=\""translate(26 15)\"">X</text><text dominant-baseline=\""middle\"" text-anchor= \""middle\"" x=\""50\"" y=\""50\"" fill=\""black\"" transform=\""translate(31 15)\"">X</text><text dominant-baseline=\""middle\"" text-anchor= \""middle\"" x=\""50\"" y=\""50\"" fill=\""black\"" transform=\""translate(21 15)\"">X</text>"",""<text dominant-baseline=\""middle\"" text-anchor= \""middle\"" x=\""50\"" y=\""50\"" fill=\""black\"" transform=\""translate(-26 15)\"">X</text><text dominant-baseline=\""middle\"" text-anchor= \""middle\"" x=\""50\"" y=\""50\"" fill=\""black\"" transform=\""translate(-21 15)\"">X</text><text dominant-baseline=\""middle\"" text-anchor= \""middle\"" x=\""50\"" y=\""50\"" fill=\""black\"" transform=\""translate(-31 15)\"">X</text>"",""<text dominant-baseline=\""middle\"" text-anchor= \""middle\"" x=\""50\"" y=\""50\"" fill=\""black\"" transform=\""translate(0 -30)\"">X</text><text dominant-baseline=\""middle\"" text-anchor= \""middle\"" x=\""50\"" y=\""50\"" fill=\""black\"" transform=\""translate(5 -30)\"">X</text><text dominant-baseline=\""middle\"" text-anchor= \""middle\"" x=\""50\"" y=\""50\"" fill=\""black\"" transform=\""translate(-5 -30)\"">X</text>"",""</svg>""]","null","","","","","","","","","","","",""
"","html-keyboard-response","180","298745","0.0-8.0-0.0-1.0-2.0","wo2","[""green""]","null","<svg viewBox=""0 0 100 100"" > <path d=""M 50 52 L 50 48"" stroke=""black"" stroke-width="".5""/> <path d=""M 52 50 L 48 50"" stroke=""black"" stroke-width="".5""/>","null","","","","","","","","","","","",""
"","html-keyboard-response","181","299405","0.0-8.0-0.0-1.0-3.0","wo2","[""green""]","658.1999999880791","<svg viewBox=""0 0 100 100""><text dominant-baseline=""middle"" x=""50"" y=""50"" class=""bacs1"">c</text></svg>","z","","","","RSVPtest","","","","true","","","","1st"
"","html-keyboard-response","182","301907","0.0-8.0-0.0-2.0","wo2","[""green""]","null","<p style=""font-size:300%;"">Correct!</p>","null","","","","","","","","","","","",""
"","html-keyboard-response","183","303446","0.0-8.0-0.0-0.1","wo2","[""green""]","null","<svg viewBox=""0 0 100 100"" > <path d=""M 50 52 L 50 48"" stroke=""black"" stroke-width="".5""/> <path d=""M 52 50 L 48 50"" stroke=""black"" stroke-width="".5""/>","null","","","","","","","","","","","",""
"","html-keyboard-response","184","304449","0.0-8.0-0.0-1.1-0.1","wo2","[""green""]","null","[""<svg viewBox=\""0 0 100 100\"" >"",""<path d=\""M 50 52 L 50 48\"" stroke=\""black\"" stroke-width=\"".5\""/>"",""<path d=\""M 52 50 L 48 50\"" stroke=\""black\"" stroke-width=\"".5\""/>"",""<text dominant-baseline=\""middle\"" x=\""50\"" y=\""50\"" fill=black transform=\""translate(0 30)\"" class=\""bacs1\"">O</text>"",""<text dominant-baseline=\""middle\"" x=\""50\"" y=\""50\"" fill=green transform=\""translate(-26 -15)\"" class=\""bacs2\"">S</text>"",""<text dominant-baseline=\""middle\"" x=\""50\"" y=\""50\"" fill=black transform=\""translate(26 -15)\"" class=\""bacs2\"">D</text>"",""</svg>""]","null","","","","","","","","","","","",""
"","html-keyboard-response","185","304952","0.0-8.0-0.0-1.1-1.1","wo2","[""green""]","null","[""<svg viewBox=\""0 0 100 100\"" >"",""<path d=\""M 50 52 L 50 48\"" stroke=\""black\"" stroke-width=\"".5\""/>"",""<path d=\""M 52 50 L 48 50\"" stroke=\""black\"" stroke-width=\"".5\""/>"",""<text dominant-baseline=\""middle\"" text-anchor= \""middle\"" x=\""50\"" y=\""50\"" fill=\""black\"" transform=\""translate(0 30)\"">X</text><text dominant-baseline=\""middle\"" text-anchor= \""middle\"" x=\""50\"" y=\""50\"" fill=\""black\"" transform=\""translate(5 30)\"">X</text><text dominant-baseline=\""middle\"" text-anchor= \""middle\"" x=\""50\"" y=\""50\"" fill=\""black\"" transform=\""translate(-5 30)\"">X</text>"",""<text dominant-baseline=\""middle\"" text-anchor= \""middle\"" x=\""50\"" y=\""50\"" fill=\""black\"" transform=\""translate(-26 -15)\"">X</text><text dominant-baseline=\""middle\"" text-anchor= \""middle\"" x=\""50\"" y=\""50\"" fill=\""black\"" transform=\""translate(-21 -15)\"">X</text><text dominant-baseline=\""middle\"" text-anchor= \""middle\"" x=\""50\"" y=\""50\"" fill=\""black\"" transform=\""translate(-31 -15)\"">X</text>"",""<text dominant-baseline=\""middle\"" text-anchor= \""middle\"" x=\""50\"" y=\""50\"" fill=\""black\"" transform=\""translate(26 -15)\"">X</text><text dominant-baseline=\""middle\"" text-anchor= \""middle\"" x=\""50\"" y=\""50\"" fill=\""black\"" transform=\""translate(31 -15)\"">X</text><text dominant-baseline=\""middle\"" text-anchor= \""middle\"" x=\""50\"" y=\""50\"" fill=\""black\"" transform=\""translate(21 -15)\"">X</text>"",""</svg>""]","null","","","","","","","","","","","",""
"","html-keyboard-response","186","305954","0.0-8.0-0.0-1.1-2.1","wo2","[""green""]","null","<svg viewBox=""0 0 100 100"" > <path d=""M 50 52 L 50 48"" stroke=""black"" stroke-width="".5""/> <path d=""M 52 50 L 48 50"" stroke=""black"" stroke-width="".5""/>","null","","","","","","","","","","","",""
"","html-keyboard-response","187","306652","0.0-8.0-0.0-1.1-3.1","wo2","[""green""]","696.5","<svg viewBox=""0 0 100 100""><text dominant-baseline=""middle"" x=""50"" y=""50"" class=""bacs2"">S</text></svg>","z","","","","RSVPtest","","","","true","","","","1st"
"","html-keyboard-response","188","309156","0.0-8.0-0.0-2.1","wo2","[""green""]","null","<p style=""font-size:300%;"">Correct!</p>","null","","","","","","","","","","","",""
"","html-keyboard-response","189","313404","0.0-8.0-0.0-4.1-0.1","wo2","[""green""]","3245.800000011921","<p>You have finished block 1 of 4.<p>You responded correctly on 100% of the trials.<p>On the next screen, you will be given a 30 second break. Press the <b>g</b> key to start your break.","g","","","","","","","","","","","",""
"","html-keyboard-response","190","314406","0.0-8.0-0.0-4.1-1.1-0.1","wo2","[""green""]","null","<p>The experiment will resume in 30 seconds. (press g to skip - Demo only)<p> Remember, press <b>z</b> if the symbol is old or <b>m</b> if the symbol is new.","null","","","","","","","","","","","",""
"","html-keyboard-response","191","315407","0.0-8.0-0.0-4.1-1.1-1.1","wo2","[""green""]","null","<p>The experiment will resume in 29 seconds. (press g to skip - Demo only)<p> Remember, press <b>z</b> if the symbol is old or <b>m</b> if the symbol is new.","null","","","","","","","","","","","",""
