"success","trial_type","trial_index","time_elapsed","internal_node_id","subject","condition","rt","url","responses","question_order","value","view_history","stimulus","key_press","trialType","color","tgtPosition","orientation","correct","rewardType","reward","colorPosition"
"true","fullscreen","0","2169","0.0-0.0-0.0","phdnjr9g08","green","","","","","","","","","","","","","","","",""
"","external-html","1","22172","0.0-0.0-1.0","phdnjr9g08","green","19989","http://labs.psychology.illinois.edu/~jy57/memory_capture/supportFiles/Consent.html","","","","","","","","","","","","","",""
"","survey-text","2","29119","0.0-1.0-0.0","phdnjr9g08","green","6943","","{""Q0"":""24"",""Q1"":""4""}","","","","","","","","","","","","",""
"","survey-multi-select","3","32235","0.0-1.0-1.0","phdnjr9g08","green","3114","","{""Q0"":[""Asian""]}","[0]","","","","","","","","","","","",""
"","survey-multi-choice","4","39245","0.0-1.0-2.0","phdnjr9g08","green","7008","","{""Q0"":""Male"",""Q1"":""No"",""Q2"":""Somewhat better than average""}","[0,1,2]","","","","","","","","","","","",""
"","call-function","5","39246","0.0-1.0-3.0","phdnjr9g08","green","","","","","","","","","","","","","","","",""
"","instructions","6","78277","0.0-2.0-0.0","phdnjr9g08","green","39031","","","","","[{""page_index"":0,""viewing_time"":26586},{""page_index"":1,""viewing_time"":4670},{""page_index"":2,""viewing_time"":1389},{""page_index"":3,""viewing_time"":4828},{""page_index"":2,""viewing_time"":547},{""page_index"":3,""viewing_time"":1011}]","","","","","","","","","",""
"","html-keyboard-response","7","80285","0.0-2.0-1.0-0.0","phdnjr9g08","green","null","","","","","","<p>Place your fingers on the z and m keys. The experiment will continue shortly.</p><p>&nbsp</p>","null","","","","","","","",""
"","html-keyboard-response","8","81299","0.0-2.0-1.0-1.0","phdnjr9g08","green","null","","","","","","<p>Place your fingers on the z and m keys. The experiment will continue shortly.</p><p>3</p>","null","","","","","","","",""
"","html-keyboard-response","9","82315","0.0-2.0-1.0-2.0","phdnjr9g08","green","null","","","","","","<p>Place your fingers on the z and m keys. The experiment will continue shortly.</p><p>2</p>","null","","","","","","","",""
"","html-keyboard-response","10","83316","0.0-2.0-1.0-3.0","phdnjr9g08","green","null","","","","","","<p>Place your fingers on the z and m keys. The experiment will continue shortly.</p><p>1</p>","null","","","","","","","",""
"","html-keyboard-response","11","83913","0.0-2.0-2.0-0.0","phdnjr9g08","green","null","","","","","","<svg viewBox=""0 0 100 100"" > <path d=""M 50 52 L 50 48"" stroke=""black"" stroke-width="".5""/> <path d=""M 52 50 L 48 50"" stroke=""black"" stroke-width="".5""/>","null","","","","","","","",""
"","html-keyboard-response","12","84927","0.0-2.0-2.0-1.0","phdnjr9g08","green","null","","","","","","<svg viewBox=""0 0 100 100"" ><text font-size=""10%"" text-anchor=""middle""  x=""50"" y=""98"">Press z for horizontal or m for vertical</text><circle cx=""50"" cy=""50"" r=""10"" fill=""none"" transform=""translate( 26  15)"" stroke=""blueviolet"" /><circle cx=""50"" cy=""50"" r=""10"" fill=""none"" transform=""translate(  0  30)"" stroke=""red"" /><circle cx=""50"" cy=""50"" r=""10"" fill=""none"" transform=""translate(-26  15)"" stroke=""cyan"" /><circle cx=""50"" cy=""50"" r=""10"" fill=""none"" transform=""translate(-26 -15)"" stroke=""black"" /><circle cx=""50"" cy=""50"" r=""10"" fill=""none"" transform=""translate(  0 -30)"" stroke=""gold"" /><circle cx=""50"" cy=""50"" r=""10"" fill=""none"" transform=""translate( 26 -15)"" stroke=""magenta"" /><path d=""M 50 57 L 50 43"" stroke=""black"" transform=""translate( 26  15) rotate(-45 50 50)""/><path d=""M 50 57 L 50 43"" stroke=""black"" transform=""translate(  0  30) rotate(0 50 50)""/><path d=""M 50 57 L 50 43"" stroke=""black"" transform=""translate(-26  15) rotate(45 50 50)""/><path d=""M 50 57 L 50 43"" stroke=""black"" transform=""translate(-26 -15) rotate(45 50 50)""/><path d=""M 50 57 L 50 43"" stroke=""black"" transform=""translate(  0 -30) rotate(-45 50 50)""/><path d=""M 50 57 L 50 43"" stroke=""black"" transform=""translate( 26 -15) rotate(45 50 50)""/><path d=""M 50 52 L 50 48"" stroke=""black"" stroke-width="".5""/> <path d=""M 52 50 L 48 50"" stroke=""black"" stroke-width="".5""/></svg>","null","VDACtraining","red","1","vertical","null","","",""
"","html-keyboard-response","13","87456","0.0-2.0-2.0-2.0","phdnjr9g08","green","null","","","","","","<p style=""font-size:300%;"">Miss.</p> <p style=""font-size:300%;"">Too slow.</p>","null","","","","","","","",""
"","html-keyboard-response","14","89065","0.0-2.0-2.0-0.1","phdnjr9g08","green","null","","","","","","<svg viewBox=""0 0 100 100"" > <path d=""M 50 52 L 50 48"" stroke=""black"" stroke-width="".5""/> <path d=""M 52 50 L 48 50"" stroke=""black"" stroke-width="".5""/>","null","","","","","","","",""
"","html-keyboard-response","15","89795","0.0-2.0-2.0-1.1","phdnjr9g08","green","729","","","","","","<svg viewBox=""0 0 100 100"" ><text font-size=""10%"" text-anchor=""middle""  x=""50"" y=""98"">Press z for horizontal or m for vertical</text><circle cx=""50"" cy=""50"" r=""10"" fill=""none"" transform=""translate( 26  15)"" stroke=""black"" /><circle cx=""50"" cy=""50"" r=""10"" fill=""none"" transform=""translate(  0  30)"" stroke=""cyan"" /><circle cx=""50"" cy=""50"" r=""10"" fill=""none"" transform=""translate(-26  15)"" stroke=""green"" /><circle cx=""50"" cy=""50"" r=""10"" fill=""none"" transform=""translate(-26 -15)"" stroke=""magenta"" /><circle cx=""50"" cy=""50"" r=""10"" fill=""none"" transform=""translate(  0 -30)"" stroke=""gold"" /><circle cx=""50"" cy=""50"" r=""10"" fill=""none"" transform=""translate( 26 -15)"" stroke=""blueviolet"" /><path d=""M 50 57 L 50 43"" stroke=""black"" transform=""translate( 26  15) rotate(-45 50 50)""/><path d=""M 50 57 L 50 43"" stroke=""black"" transform=""translate(  0  30) rotate(-45 50 50)""/><path d=""M 50 57 L 50 43"" stroke=""black"" transform=""translate(-26  15) rotate(0 50 50)""/><path d=""M 50 57 L 50 43"" stroke=""black"" transform=""translate(-26 -15) rotate(-45 50 50)""/><path d=""M 50 57 L 50 43"" stroke=""black"" transform=""translate(  0 -30) rotate(-45 50 50)""/><path d=""M 50 57 L 50 43"" stroke=""black"" transform=""translate( 26 -15) rotate(45 50 50)""/><path d=""M 50 52 L 50 48"" stroke=""black"" stroke-width="".5""/> <path d=""M 52 50 L 48 50"" stroke=""black"" stroke-width="".5""/></svg>","77","VDACtraining","green","2","vertical","true","","",""
"","html-keyboard-response","16","92309","0.0-2.0-2.0-2.1","phdnjr9g08","green","null","","","","","","<p style=""font-size:300%;"">Correct!</p>","null","","","","","","","",""
"","html-keyboard-response","17","93920","0.0-2.0-2.0-0.2","phdnjr9g08","green","null","","","","","","<svg viewBox=""0 0 100 100"" > <path d=""M 50 52 L 50 48"" stroke=""black"" stroke-width="".5""/> <path d=""M 52 50 L 48 50"" stroke=""black"" stroke-width="".5""/>","null","","","","","","","",""
"","html-keyboard-response","18","94633","0.0-2.0-2.0-1.2","phdnjr9g08","green","713","","","","","","<svg viewBox=""0 0 100 100"" ><text font-size=""10%"" text-anchor=""middle""  x=""50"" y=""98"">Press z for horizontal or m for vertical</text><circle cx=""50"" cy=""50"" r=""10"" fill=""none"" transform=""translate( 26  15)"" stroke=""gold"" /><circle cx=""50"" cy=""50"" r=""10"" fill=""none"" transform=""translate(  0  30)"" stroke=""blueviolet"" /><circle cx=""50"" cy=""50"" r=""10"" fill=""none"" transform=""translate(-26  15)"" stroke=""cyan"" /><circle cx=""50"" cy=""50"" r=""10"" fill=""none"" transform=""translate(-26 -15)"" stroke=""green"" /><circle cx=""50"" cy=""50"" r=""10"" fill=""none"" transform=""translate(  0 -30)"" stroke=""black"" /><circle cx=""50"" cy=""50"" r=""10"" fill=""none"" transform=""translate( 26 -15)"" stroke=""magenta"" /><path d=""M 50 57 L 50 43"" stroke=""black"" transform=""translate( 26  15) rotate(-45 50 50)""/><path d=""M 50 57 L 50 43"" stroke=""black"" transform=""translate(  0  30) rotate(-45 50 50)""/><path d=""M 50 57 L 50 43"" stroke=""black"" transform=""translate(-26  15) rotate(45 50 50)""/><path d=""M 50 57 L 50 43"" stroke=""black"" transform=""translate(-26 -15) rotate(90 50 50)""/><path d=""M 50 57 L 50 43"" stroke=""black"" transform=""translate(  0 -30) rotate(-45 50 50)""/><path d=""M 50 57 L 50 43"" stroke=""black"" transform=""translate( 26 -15) rotate(-45 50 50)""/><path d=""M 50 52 L 50 48"" stroke=""black"" stroke-width="".5""/> <path d=""M 52 50 L 48 50"" stroke=""black"" stroke-width="".5""/></svg>","77","VDACtraining","green","3","horizontal","false","","",""
"","html-keyboard-response","19","97149","0.0-2.0-2.0-2.2","phdnjr9g08","green","null","","","","","","<p style=""font-size:300%;"">Miss.</p> <p style=""font-size:300%;"">Wrong response.</p>","null","","","","","","","",""
"","html-keyboard-response","20","98761","0.0-2.0-2.0-0.3","phdnjr9g08","green","null","","","","","","<svg viewBox=""0 0 100 100"" > <path d=""M 50 52 L 50 48"" stroke=""black"" stroke-width="".5""/> <path d=""M 52 50 L 48 50"" stroke=""black"" stroke-width="".5""/>","null","","","","","","","",""
"","html-keyboard-response","21","99465","0.0-2.0-2.0-1.3","phdnjr9g08","green","705","","","","","","<svg viewBox=""0 0 100 100"" ><text font-size=""10%"" text-anchor=""middle""  x=""50"" y=""98"">Press z for horizontal or m for vertical</text><circle cx=""50"" cy=""50"" r=""10"" fill=""none"" transform=""translate( 26  15)"" stroke=""green"" /><circle cx=""50"" cy=""50"" r=""10"" fill=""none"" transform=""translate(  0  30)"" stroke=""black"" /><circle cx=""50"" cy=""50"" r=""10"" fill=""none"" transform=""translate(-26  15)"" stroke=""cyan"" /><circle cx=""50"" cy=""50"" r=""10"" fill=""none"" transform=""translate(-26 -15)"" stroke=""gold"" /><circle cx=""50"" cy=""50"" r=""10"" fill=""none"" transform=""translate(  0 -30)"" stroke=""magenta"" /><circle cx=""50"" cy=""50"" r=""10"" fill=""none"" transform=""translate( 26 -15)"" stroke=""blueviolet"" /><path d=""M 50 57 L 50 43"" stroke=""black"" transform=""translate( 26  15) rotate(0 50 50)""/><path d=""M 50 57 L 50 43"" stroke=""black"" transform=""translate(  0  30) rotate(-45 50 50)""/><path d=""M 50 57 L 50 43"" stroke=""black"" transform=""translate(-26  15) rotate(45 50 50)""/><path d=""M 50 57 L 50 43"" stroke=""black"" transform=""translate(-26 -15) rotate(45 50 50)""/><path d=""M 50 57 L 50 43"" stroke=""black"" transform=""translate(  0 -30) rotate(45 50 50)""/><path d=""M 50 57 L 50 43"" stroke=""black"" transform=""translate( 26 -15) rotate(45 50 50)""/><path d=""M 50 52 L 50 48"" stroke=""black"" stroke-width="".5""/> <path d=""M 52 50 L 48 50"" stroke=""black"" stroke-width="".5""/></svg>","90","VDACtraining","green","0","vertical","false","","",""
"","html-keyboard-response","22","101978","0.0-2.0-2.0-2.3","phdnjr9g08","green","null","","","","","","<p style=""font-size:300%;"">Miss.</p> <p style=""font-size:300%;"">Wrong response.</p>","null","","","","","","","",""
"","html-keyboard-response","23","103579","0.0-2.0-2.0-0.4","phdnjr9g08","green","null","","","","","","<svg viewBox=""0 0 100 100"" > <path d=""M 50 52 L 50 48"" stroke=""black"" stroke-width="".5""/> <path d=""M 52 50 L 48 50"" stroke=""black"" stroke-width="".5""/>","null","","","","","","","",""
"","html-keyboard-response","24","104388","0.0-2.0-2.0-1.4","phdnjr9g08","green","808","","","","","","<svg viewBox=""0 0 100 100"" ><text font-size=""10%"" text-anchor=""middle""  x=""50"" y=""98"">Press z for horizontal or m for vertical</text><circle cx=""50"" cy=""50"" r=""10"" fill=""none"" transform=""translate( 26  15)"" stroke=""cyan"" /><circle cx=""50"" cy=""50"" r=""10"" fill=""none"" transform=""translate(  0  30)"" stroke=""blueviolet"" /><circle cx=""50"" cy=""50"" r=""10"" fill=""none"" transform=""translate(-26  15)"" stroke=""gold"" /><circle cx=""50"" cy=""50"" r=""10"" fill=""none"" transform=""translate(-26 -15)"" stroke=""magenta"" /><circle cx=""50"" cy=""50"" r=""10"" fill=""none"" transform=""translate(  0 -30)"" stroke=""red"" /><circle cx=""50"" cy=""50"" r=""10"" fill=""none"" transform=""translate( 26 -15)"" stroke=""black"" /><path d=""M 50 57 L 50 43"" stroke=""black"" transform=""translate( 26  15) rotate(45 50 50)""/><path d=""M 50 57 L 50 43"" stroke=""black"" transform=""translate(  0  30) rotate(45 50 50)""/><path d=""M 50 57 L 50 43"" stroke=""black"" transform=""translate(-26  15) rotate(-45 50 50)""/><path d=""M 50 57 L 50 43"" stroke=""black"" transform=""translate(-26 -15) rotate(45 50 50)""/><path d=""M 50 57 L 50 43"" stroke=""black"" transform=""translate(  0 -30) rotate(90 50 50)""/><path d=""M 50 57 L 50 43"" stroke=""black"" transform=""translate( 26 -15) rotate(45 50 50)""/><path d=""M 50 52 L 50 48"" stroke=""black"" stroke-width="".5""/> <path d=""M 52 50 L 48 50"" stroke=""black"" stroke-width="".5""/></svg>","90","VDACtraining","red","4","horizontal","true","","",""
"","html-keyboard-response","25","106898","0.0-2.0-2.0-2.4","phdnjr9g08","green","null","","","","","","<p style=""font-size:300%;"">Correct!</p>","null","","","","","","","",""
"","html-keyboard-response","26","108502","0.0-2.0-2.0-0.5","phdnjr9g08","green","null","","","","","","<svg viewBox=""0 0 100 100"" > <path d=""M 50 52 L 50 48"" stroke=""black"" stroke-width="".5""/> <path d=""M 52 50 L 48 50"" stroke=""black"" stroke-width="".5""/>","null","","","","","","","",""
"","html-keyboard-response","27","109156","0.0-2.0-2.0-1.5","phdnjr9g08","green","654","","","","","","<svg viewBox=""0 0 100 100"" ><text font-size=""10%"" text-anchor=""middle""  x=""50"" y=""98"">Press z for horizontal or m for vertical</text><circle cx=""50"" cy=""50"" r=""10"" fill=""none"" transform=""translate( 26  15)"" stroke=""gold"" /><circle cx=""50"" cy=""50"" r=""10"" fill=""none"" transform=""translate(  0  30)"" stroke=""cyan"" /><circle cx=""50"" cy=""50"" r=""10"" fill=""none"" transform=""translate(-26  15)"" stroke=""magenta"" /><circle cx=""50"" cy=""50"" r=""10"" fill=""none"" transform=""translate(-26 -15)"" stroke=""blueviolet"" /><circle cx=""50"" cy=""50"" r=""10"" fill=""none"" transform=""translate(  0 -30)"" stroke=""black"" /><circle cx=""50"" cy=""50"" r=""10"" fill=""none"" transform=""translate( 26 -15)"" stroke=""green"" /><path d=""M 50 57 L 50 43"" stroke=""black"" transform=""translate( 26  15) rotate(45 50 50)""/><path d=""M 50 57 L 50 43"" stroke=""black"" transform=""translate(  0  30) rotate(45 50 50)""/><path d=""M 50 57 L 50 43"" stroke=""black"" transform=""translate(-26  15) rotate(-45 50 50)""/><path d=""M 50 57 L 50 43"" stroke=""black"" transform=""translate(-26 -15) rotate(45 50 50)""/><path d=""M 50 57 L 50 43"" stroke=""black"" transform=""translate(  0 -30) rotate(-45 50 50)""/><path d=""M 50 57 L 50 43"" stroke=""black"" transform=""translate( 26 -15) rotate(90 50 50)""/><path d=""M 50 52 L 50 48"" stroke=""black"" stroke-width="".5""/> <path d=""M 52 50 L 48 50"" stroke=""black"" stroke-width="".5""/></svg>","90","VDACtraining","green","5","horizontal","true","","",""
"","html-keyboard-response","28","111671","0.0-2.0-2.0-2.5","phdnjr9g08","green","null","","","","","","<p style=""font-size:300%;"">Correct!</p>","null","","","","","","","",""
"","html-keyboard-response","29","113276","0.0-2.0-2.0-0.6","phdnjr9g08","green","null","","","","","","<svg viewBox=""0 0 100 100"" > <path d=""M 50 52 L 50 48"" stroke=""black"" stroke-width="".5""/> <path d=""M 52 50 L 48 50"" stroke=""black"" stroke-width="".5""/>","null","","","","","","","",""
"","html-keyboard-response","30","113855","0.0-2.0-2.0-1.6","phdnjr9g08","green","578","","","","","","<svg viewBox=""0 0 100 100"" ><text font-size=""10%"" text-anchor=""middle""  x=""50"" y=""98"">Press z for horizontal or m for vertical</text><circle cx=""50"" cy=""50"" r=""10"" fill=""none"" transform=""translate( 26  15)"" stroke=""cyan"" /><circle cx=""50"" cy=""50"" r=""10"" fill=""none"" transform=""translate(  0  30)"" stroke=""green"" /><circle cx=""50"" cy=""50"" r=""10"" fill=""none"" transform=""translate(-26  15)"" stroke=""gold"" /><circle cx=""50"" cy=""50"" r=""10"" fill=""none"" transform=""translate(-26 -15)"" stroke=""black"" /><circle cx=""50"" cy=""50"" r=""10"" fill=""none"" transform=""translate(  0 -30)"" stroke=""magenta"" /><circle cx=""50"" cy=""50"" r=""10"" fill=""none"" transform=""translate( 26 -15)"" stroke=""blueviolet"" /><path d=""M 50 57 L 50 43"" stroke=""black"" transform=""translate( 26  15) rotate(-45 50 50)""/><path d=""M 50 57 L 50 43"" stroke=""black"" transform=""translate(  0  30) rotate(90 50 50)""/><path d=""M 50 57 L 50 43"" stroke=""black"" transform=""translate(-26  15) rotate(45 50 50)""/><path d=""M 50 57 L 50 43"" stroke=""black"" transform=""translate(-26 -15) rotate(45 50 50)""/><path d=""M 50 57 L 50 43"" stroke=""black"" transform=""translate(  0 -30) rotate(-45 50 50)""/><path d=""M 50 57 L 50 43"" stroke=""black"" transform=""translate( 26 -15) rotate(-45 50 50)""/><path d=""M 50 52 L 50 48"" stroke=""black"" stroke-width="".5""/> <path d=""M 52 50 L 48 50"" stroke=""black"" stroke-width="".5""/></svg>","90","VDACtraining","green","1","horizontal","true","","",""
"","html-keyboard-response","31","116360","0.0-2.0-2.0-2.6","phdnjr9g08","green","null","","","","","","<p style=""font-size:300%;"">Correct!</p>","null","","","","","","","",""
"","html-keyboard-response","32","117961","0.0-2.0-2.0-0.7","phdnjr9g08","green","null","","","","","","<svg viewBox=""0 0 100 100"" > <path d=""M 50 52 L 50 48"" stroke=""black"" stroke-width="".5""/> <path d=""M 52 50 L 48 50"" stroke=""black"" stroke-width="".5""/>","null","","","","","","","",""
"","html-keyboard-response","33","118528","0.0-2.0-2.0-1.7","phdnjr9g08","green","566","","","","","","<svg viewBox=""0 0 100 100"" ><text font-size=""10%"" text-anchor=""middle""  x=""50"" y=""98"">Press z for horizontal or m for vertical</text><circle cx=""50"" cy=""50"" r=""10"" fill=""none"" transform=""translate( 26  15)"" stroke=""gold"" /><circle cx=""50"" cy=""50"" r=""10"" fill=""none"" transform=""translate(  0  30)"" stroke=""black"" /><circle cx=""50"" cy=""50"" r=""10"" fill=""none"" transform=""translate(-26  15)"" stroke=""cyan"" /><circle cx=""50"" cy=""50"" r=""10"" fill=""none"" transform=""translate(-26 -15)"" stroke=""red"" /><circle cx=""50"" cy=""50"" r=""10"" fill=""none"" transform=""translate(  0 -30)"" stroke=""magenta"" /><circle cx=""50"" cy=""50"" r=""10"" fill=""none"" transform=""translate( 26 -15)"" stroke=""blueviolet"" /><path d=""M 50 57 L 50 43"" stroke=""black"" transform=""translate( 26  15) rotate(45 50 50)""/><path d=""M 50 57 L 50 43"" stroke=""black"" transform=""translate(  0  30) rotate(45 50 50)""/><path d=""M 50 57 L 50 43"" stroke=""black"" transform=""translate(-26  15) rotate(-45 50 50)""/><path d=""M 50 57 L 50 43"" stroke=""black"" transform=""translate(-26 -15) rotate(0 50 50)""/><path d=""M 50 57 L 50 43"" stroke=""black"" transform=""translate(  0 -30) rotate(45 50 50)""/><path d=""M 50 57 L 50 43"" stroke=""black"" transform=""translate( 26 -15) rotate(45 50 50)""/><path d=""M 50 52 L 50 48"" stroke=""black"" stroke-width="".5""/> <path d=""M 52 50 L 48 50"" stroke=""black"" stroke-width="".5""/></svg>","77","VDACtraining","red","3","vertical","true","","",""
"","html-keyboard-response","34","121044","0.0-2.0-2.0-2.7","phdnjr9g08","green","null","","","","","","<p style=""font-size:300%;"">Correct!</p>","null","","","","","","","",""
"","html-keyboard-response","35","122646","0.0-2.0-2.0-0.8","phdnjr9g08","green","null","","","","","","<svg viewBox=""0 0 100 100"" > <path d=""M 50 52 L 50 48"" stroke=""black"" stroke-width="".5""/> <path d=""M 52 50 L 48 50"" stroke=""black"" stroke-width="".5""/>","null","","","","","","","",""
"","html-keyboard-response","36","123647","0.0-2.0-2.0-1.8","phdnjr9g08","green","null","","","","","","<svg viewBox=""0 0 100 100"" ><text font-size=""10%"" text-anchor=""middle""  x=""50"" y=""98"">Press z for horizontal or m for vertical</text><circle cx=""50"" cy=""50"" r=""10"" fill=""none"" transform=""translate( 26  15)"" stroke=""black"" /><circle cx=""50"" cy=""50"" r=""10"" fill=""none"" transform=""translate(  0  30)"" stroke=""blueviolet"" /><circle cx=""50"" cy=""50"" r=""10"" fill=""none"" transform=""translate(-26  15)"" stroke=""magenta"" /><circle cx=""50"" cy=""50"" r=""10"" fill=""none"" transform=""translate(-26 -15)"" stroke=""gold"" /><circle cx=""50"" cy=""50"" r=""10"" fill=""none"" transform=""translate(  0 -30)"" stroke=""cyan"" /><circle cx=""50"" cy=""50"" r=""10"" fill=""none"" transform=""translate( 26 -15)"" stroke=""red"" /><path d=""M 50 57 L 50 43"" stroke=""black"" transform=""translate( 26  15) rotate(-45 50 50)""/><path d=""M 50 57 L 50 43"" stroke=""black"" transform=""translate(  0  30) rotate(45 50 50)""/><path d=""M 50 57 L 50 43"" stroke=""black"" transform=""translate(-26  15) rotate(45 50 50)""/><path d=""M 50 57 L 50 43"" stroke=""black"" transform=""translate(-26 -15) rotate(-45 50 50)""/><path d=""M 50 57 L 50 43"" stroke=""black"" transform=""translate(  0 -30) rotate(45 50 50)""/><path d=""M 50 57 L 50 43"" stroke=""black"" transform=""translate( 26 -15) rotate(0 50 50)""/><path d=""M 50 52 L 50 48"" stroke=""black"" stroke-width="".5""/> <path d=""M 52 50 L 48 50"" stroke=""black"" stroke-width="".5""/></svg>","null","VDACtraining","red","5","vertical","null","","",""
"","html-keyboard-response","37","126159","0.0-2.0-2.0-2.8","phdnjr9g08","green","null","","","","","","<p style=""font-size:300%;"">Miss.</p> <p style=""font-size:300%;"">Too slow.</p>","null","","","","","","","",""
"","html-keyboard-response","38","127766","0.0-2.0-2.0-0.9","phdnjr9g08","green","null","","","","","","<svg viewBox=""0 0 100 100"" > <path d=""M 50 52 L 50 48"" stroke=""black"" stroke-width="".5""/> <path d=""M 52 50 L 48 50"" stroke=""black"" stroke-width="".5""/>","null","","","","","","","",""
"","html-keyboard-response","39","128309","0.0-2.0-2.0-1.9","phdnjr9g08","green","541","","","","","","<svg viewBox=""0 0 100 100"" ><text font-size=""10%"" text-anchor=""middle""  x=""50"" y=""98"">Press z for horizontal or m for vertical</text><circle cx=""50"" cy=""50"" r=""10"" fill=""none"" transform=""translate( 26  15)"" stroke=""black"" /><circle cx=""50"" cy=""50"" r=""10"" fill=""none"" transform=""translate(  0  30)"" stroke=""blueviolet"" /><circle cx=""50"" cy=""50"" r=""10"" fill=""none"" transform=""translate(-26  15)"" stroke=""red"" /><circle cx=""50"" cy=""50"" r=""10"" fill=""none"" transform=""translate(-26 -15)"" stroke=""cyan"" /><circle cx=""50"" cy=""50"" r=""10"" fill=""none"" transform=""translate(  0 -30)"" stroke=""gold"" /><circle cx=""50"" cy=""50"" r=""10"" fill=""none"" transform=""translate( 26 -15)"" stroke=""magenta"" /><path d=""M 50 57 L 50 43"" stroke=""black"" transform=""translate( 26  15) rotate(-45 50 50)""/><path d=""M 50 57 L 50 43"" stroke=""black"" transform=""translate(  0  30) rotate(-45 50 50)""/><path d=""M 50 57 L 50 43"" stroke=""black"" transform=""translate(-26  15) rotate(90 50 50)""/><path d=""M 50 57 L 50 43"" stroke=""black"" transform=""translate(-26 -15) rotate(-45 50 50)""/><path d=""M 50 57 L 50 43"" stroke=""black"" transform=""translate(  0 -30) rotate(-45 50 50)""/><path d=""M 50 57 L 50 43"" stroke=""black"" transform=""translate( 26 -15) rotate(45 50 50)""/><path d=""M 50 52 L 50 48"" stroke=""black"" stroke-width="".5""/> <path d=""M 52 50 L 48 50"" stroke=""black"" stroke-width="".5""/></svg>","77","VDACtraining","red","2","horizontal","false","","",""
"","html-keyboard-response","40","130831","0.0-2.0-2.0-2.9","phdnjr9g08","green","null","","","","","","<p style=""font-size:300%;"">Miss.</p> <p style=""font-size:300%;"">Wrong response.</p>","null","","","","","","","",""
"","html-keyboard-response","41","137369","0.0-2.0-3.0","phdnjr9g08","green","5530","","","","","","<p>You have now finished the training exercise. If you would like to repeat the instructions and training exercise, press r to repeat this trial or press c if you would like to continue.</p>","67","","","","","","","",""
"","html-keyboard-response","42","139373","0.0-3.0-0.0","phdnjr9g08","green","null","","","","","","<p>Place your fingers on the z and m keys. The experiment will continue shortly.</p><p>&nbsp</p>","null","","","","","","","",""
"","html-keyboard-response","43","140377","0.0-3.0-1.0","phdnjr9g08","green","null","","","","","","<p>Place your fingers on the z and m keys. The experiment will continue shortly.</p><p>3</p>","null","","","","","","","",""
"","html-keyboard-response","44","141390","0.0-3.0-2.0","phdnjr9g08","green","null","","","","","","<p>Place your fingers on the z and m keys. The experiment will continue shortly.</p><p>2</p>","null","","","","","","","",""
"","html-keyboard-response","45","142390","0.0-3.0-3.0","phdnjr9g08","green","null","","","","","","<p>Place your fingers on the z and m keys. The experiment will continue shortly.</p><p>1</p>","null","","","","","","","",""
"","html-keyboard-response","46","142993","0.0-4.0-0.0-0.0","phdnjr9g08","green","null","","","","","","<svg viewBox=""0 0 100 100"" > <path d=""M 50 52 L 50 48"" stroke=""black"" stroke-width="".5""/> <path d=""M 52 50 L 48 50"" stroke=""black"" stroke-width="".5""/>","null","","","","","","","",""
"","html-keyboard-response","47","143624","0.0-4.0-0.0-1.0","phdnjr9g08","green","631","","","","","","<svg viewBox=""0 0 100 100"" ><circle cx=""50"" cy=""50"" r=""10"" fill=""none"" transform=""translate( 26  15)"" stroke=""blueviolet"" /><circle cx=""50"" cy=""50"" r=""10"" fill=""none"" transform=""translate(  0  30)"" stroke=""gold"" /><circle cx=""50"" cy=""50"" r=""10"" fill=""none"" transform=""translate(-26  15)"" stroke=""magenta"" /><circle cx=""50"" cy=""50"" r=""10"" fill=""none"" transform=""translate(-26 -15)"" stroke=""black"" /><circle cx=""50"" cy=""50"" r=""10"" fill=""none"" transform=""translate(  0 -30)"" stroke=""red"" /><circle cx=""50"" cy=""50"" r=""10"" fill=""none"" transform=""translate( 26 -15)"" stroke=""cyan"" /><path d=""M 50 57 L 50 43"" stroke=""black"" transform=""translate( 26  15) rotate(-45 50 50)""/><path d=""M 50 57 L 50 43"" stroke=""black"" transform=""translate(  0  30) rotate(-45 50 50)""/><path d=""M 50 57 L 50 43"" stroke=""black"" transform=""translate(-26  15) rotate(-45 50 50)""/><path d=""M 50 57 L 50 43"" stroke=""black"" transform=""translate(-26 -15) rotate(45 50 50)""/><path d=""M 50 57 L 50 43"" stroke=""black"" transform=""translate(  0 -30) rotate(90 50 50)""/><path d=""M 50 57 L 50 43"" stroke=""black"" transform=""translate( 26 -15) rotate(-45 50 50)""/><path d=""M 50 52 L 50 48"" stroke=""black"" stroke-width="".5""/> <path d=""M 52 50 L 48 50"" stroke=""black"" stroke-width="".5""/></svg>","90","VDACtest","red","5th","horizontal","true","low","",""
"","html-keyboard-response","48","146137","0.0-4.0-0.0-2.0","phdnjr9g08","green","null","","","","","","<p style=""font-size:300%;""> + 2 points.</p><p style=""font-size:300%"">Total: 2 points.</p>","null","","","","","","","2",""
"","html-keyboard-response","49","147751","0.0-4.0-0.0-0.1","phdnjr9g08","green","null","","","","","","<svg viewBox=""0 0 100 100"" > <path d=""M 50 52 L 50 48"" stroke=""black"" stroke-width="".5""/> <path d=""M 52 50 L 48 50"" stroke=""black"" stroke-width="".5""/>","null","","","","","","","",""
"","html-keyboard-response","50","148332","0.0-4.0-0.0-1.1","phdnjr9g08","green","580","","","","","","<svg viewBox=""0 0 100 100"" ><circle cx=""50"" cy=""50"" r=""10"" fill=""none"" transform=""translate( 26  15)"" stroke=""black"" /><circle cx=""50"" cy=""50"" r=""10"" fill=""none"" transform=""translate(  0  30)"" stroke=""gold"" /><circle cx=""50"" cy=""50"" r=""10"" fill=""none"" transform=""translate(-26  15)"" stroke=""blueviolet"" /><circle cx=""50"" cy=""50"" r=""10"" fill=""none"" transform=""translate(-26 -15)"" stroke=""magenta"" /><circle cx=""50"" cy=""50"" r=""10"" fill=""none"" transform=""translate(  0 -30)"" stroke=""cyan"" /><circle cx=""50"" cy=""50"" r=""10"" fill=""none"" transform=""translate( 26 -15)"" stroke=""green"" /><path d=""M 50 57 L 50 43"" stroke=""black"" transform=""translate( 26  15) rotate(-45 50 50)""/><path d=""M 50 57 L 50 43"" stroke=""black"" transform=""translate(  0  30) rotate(45 50 50)""/><path d=""M 50 57 L 50 43"" stroke=""black"" transform=""translate(-26  15) rotate(-45 50 50)""/><path d=""M 50 57 L 50 43"" stroke=""black"" transform=""translate(-26 -15) rotate(45 50 50)""/><path d=""M 50 57 L 50 43"" stroke=""black"" transform=""translate(  0 -30) rotate(45 50 50)""/><path d=""M 50 57 L 50 43"" stroke=""black"" transform=""translate( 26 -15) rotate(90 50 50)""/><path d=""M 50 52 L 50 48"" stroke=""black"" stroke-width="".5""/> <path d=""M 52 50 L 48 50"" stroke=""black"" stroke-width="".5""/></svg>","90","VDACtest","green","6th","horizontal","true","high","",""
"","html-keyboard-response","51","150857","0.0-4.0-0.0-2.1","phdnjr9g08","green","null","","","","","","<p style=""font-size:300%;""> + 10 points.</p><p style=""font-size:300%"">Total: 12 points.</p>","null","","","","","","","12",""
"","html-keyboard-response","52","152457","0.0-4.0-0.0-0.2","phdnjr9g08","green","null","","","","","","<svg viewBox=""0 0 100 100"" > <path d=""M 50 52 L 50 48"" stroke=""black"" stroke-width="".5""/> <path d=""M 52 50 L 48 50"" stroke=""black"" stroke-width="".5""/>","null","","","","","","","",""
"","html-keyboard-response","53","153169","0.0-4.0-0.0-1.2","phdnjr9g08","green","712","","","","","","<svg viewBox=""0 0 100 100"" ><circle cx=""50"" cy=""50"" r=""10"" fill=""none"" transform=""translate( 26  15)"" stroke=""black"" /><circle cx=""50"" cy=""50"" r=""10"" fill=""none"" transform=""translate(  0  30)"" stroke=""blueviolet"" /><circle cx=""50"" cy=""50"" r=""10"" fill=""none"" transform=""translate(-26  15)"" stroke=""cyan"" /><circle cx=""50"" cy=""50"" r=""10"" fill=""none"" transform=""translate(-26 -15)"" stroke=""magenta"" /><circle cx=""50"" cy=""50"" r=""10"" fill=""none"" transform=""translate(  0 -30)"" stroke=""red"" /><circle cx=""50"" cy=""50"" r=""10"" fill=""none"" transform=""translate( 26 -15)"" stroke=""gold"" /><path d=""M 50 57 L 50 43"" stroke=""black"" transform=""translate( 26  15) rotate(-45 50 50)""/><path d=""M 50 57 L 50 43"" stroke=""black"" transform=""translate(  0  30) rotate(45 50 50)""/><path d=""M 50 57 L 50 43"" stroke=""black"" transform=""translate(-26  15) rotate(45 50 50)""/><path d=""M 50 57 L 50 43"" stroke=""black"" transform=""translate(-26 -15) rotate(45 50 50)""/><path d=""M 50 57 L 50 43"" stroke=""black"" transform=""translate(  0 -30) rotate(0 50 50)""/><path d=""M 50 57 L 50 43"" stroke=""black"" transform=""translate( 26 -15) rotate(-45 50 50)""/><path d=""M 50 52 L 50 48"" stroke=""black"" stroke-width="".5""/> <path d=""M 52 50 L 48 50"" stroke=""black"" stroke-width="".5""/></svg>","77","VDACtest","red","5th","vertical","true","low","",""
"","html-keyboard-response","54","155676","0.0-4.0-0.0-2.2","phdnjr9g08","green","null","","","","","","<p style=""font-size:300%;""> + 2 points.</p><p style=""font-size:300%"">Total: 14 points.</p>","null","","","","","","","14",""
"","html-keyboard-response","55","157277","0.0-4.0-0.0-0.3","phdnjr9g08","green","null","","","","","","<svg viewBox=""0 0 100 100"" > <path d=""M 50 52 L 50 48"" stroke=""black"" stroke-width="".5""/> <path d=""M 52 50 L 48 50"" stroke=""black"" stroke-width="".5""/>","null","","","","","","","",""
"","html-keyboard-response","56","157876","0.0-4.0-0.0-1.3","phdnjr9g08","green","598","","","","","","<svg viewBox=""0 0 100 100"" ><circle cx=""50"" cy=""50"" r=""10"" fill=""none"" transform=""translate( 26  15)"" stroke=""red"" /><circle cx=""50"" cy=""50"" r=""10"" fill=""none"" transform=""translate(  0  30)"" stroke=""gold"" /><circle cx=""50"" cy=""50"" r=""10"" fill=""none"" transform=""translate(-26  15)"" stroke=""black"" /><circle cx=""50"" cy=""50"" r=""10"" fill=""none"" transform=""translate(-26 -15)"" stroke=""magenta"" /><circle cx=""50"" cy=""50"" r=""10"" fill=""none"" transform=""translate(  0 -30)"" stroke=""cyan"" /><circle cx=""50"" cy=""50"" r=""10"" fill=""none"" transform=""translate( 26 -15)"" stroke=""blueviolet"" /><path d=""M 50 57 L 50 43"" stroke=""black"" transform=""translate( 26  15) rotate(0 50 50)""/><path d=""M 50 57 L 50 43"" stroke=""black"" transform=""translate(  0  30) rotate(-45 50 50)""/><path d=""M 50 57 L 50 43"" stroke=""black"" transform=""translate(-26  15) rotate(45 50 50)""/><path d=""M 50 57 L 50 43"" stroke=""black"" transform=""translate(-26 -15) rotate(-45 50 50)""/><path d=""M 50 57 L 50 43"" stroke=""black"" transform=""translate(  0 -30) rotate(45 50 50)""/><path d=""M 50 57 L 50 43"" stroke=""black"" transform=""translate( 26 -15) rotate(45 50 50)""/><path d=""M 50 52 L 50 48"" stroke=""black"" stroke-width="".5""/> <path d=""M 52 50 L 48 50"" stroke=""black"" stroke-width="".5""/></svg>","77","VDACtest","red","1st","vertical","true","low","",""
"","html-keyboard-response","57","160388","0.0-4.0-0.0-2.3","phdnjr9g08","green","null","","","","","","<p style=""font-size:300%;""> + 2 points.</p><p style=""font-size:300%"">Total: 16 points.</p>","null","","","","","","","16",""
"","html-keyboard-response","58","161996","0.0-4.0-0.0-0.4","phdnjr9g08","green","null","","","","","","<svg viewBox=""0 0 100 100"" > <path d=""M 50 52 L 50 48"" stroke=""black"" stroke-width="".5""/> <path d=""M 52 50 L 48 50"" stroke=""black"" stroke-width="".5""/>","null","","","","","","","",""
"","html-keyboard-response","59","162641","0.0-4.0-0.0-1.4","phdnjr9g08","green","645","","","","","","<svg viewBox=""0 0 100 100"" ><circle cx=""50"" cy=""50"" r=""10"" fill=""none"" transform=""translate( 26  15)"" stroke=""black"" /><circle cx=""50"" cy=""50"" r=""10"" fill=""none"" transform=""translate(  0  30)"" stroke=""cyan"" /><circle cx=""50"" cy=""50"" r=""10"" fill=""none"" transform=""translate(-26  15)"" stroke=""blueviolet"" /><circle cx=""50"" cy=""50"" r=""10"" fill=""none"" transform=""translate(-26 -15)"" stroke=""red"" /><circle cx=""50"" cy=""50"" r=""10"" fill=""none"" transform=""translate(  0 -30)"" stroke=""magenta"" /><circle cx=""50"" cy=""50"" r=""10"" fill=""none"" transform=""translate( 26 -15)"" stroke=""gold"" /><path d=""M 50 57 L 50 43"" stroke=""black"" transform=""translate( 26  15) rotate(45 50 50)""/><path d=""M 50 57 L 50 43"" stroke=""black"" transform=""translate(  0  30) rotate(45 50 50)""/><path d=""M 50 57 L 50 43"" stroke=""black"" transform=""translate(-26  15) rotate(45 50 50)""/><path d=""M 50 57 L 50 43"" stroke=""black"" transform=""translate(-26 -15) rotate(90 50 50)""/><path d=""M 50 57 L 50 43"" stroke=""black"" transform=""translate(  0 -30) rotate(45 50 50)""/><path d=""M 50 57 L 50 43"" stroke=""black"" transform=""translate( 26 -15) rotate(45 50 50)""/><path d=""M 50 52 L 50 48"" stroke=""black"" stroke-width="".5""/> <path d=""M 52 50 L 48 50"" stroke=""black"" stroke-width="".5""/></svg>","90","VDACtest","red","4th","horizontal","true","low","",""
"","html-keyboard-response","60","165156","0.0-4.0-0.0-2.4","phdnjr9g08","green","null","","","","","","<p style=""font-size:300%;""> + 2 points.</p><p style=""font-size:300%"">Total: 18 points.</p>","null","","","","","","","18",""
"","html-keyboard-response","61","196175","0.0-4.0-0.0-4.4-0.4","phdnjr9g08","green","null","","","","","","<p>You may now take a 30 second break. If you wish to continue with the experiment now, press any key to start.</p>","null","","","","","","","",""
"","html-keyboard-response","62","198185","0.0-4.0-0.0-4.4-1.4-0.4","phdnjr9g08","green","null","","","","","","<p>Place your fingers on the z and m keys. The experiment will continue shortly.</p><p>&nbsp</p>","null","","","","","","","",""
"","html-keyboard-response","63","199185","0.0-4.0-0.0-4.4-1.4-1.4","phdnjr9g08","green","null","","","","","","<p>Place your fingers on the z and m keys. The experiment will continue shortly.</p><p>3</p>","null","","","","","","","",""
"","html-keyboard-response","64","200194","0.0-4.0-0.0-4.4-1.4-2.4","phdnjr9g08","green","null","","","","","","<p>Place your fingers on the z and m keys. The experiment will continue shortly.</p><p>2</p>","null","","","","","","","",""
"","html-keyboard-response","65","201197","0.0-4.0-0.0-4.4-1.4-3.4","phdnjr9g08","green","null","","","","","","<p>Place your fingers on the z and m keys. The experiment will continue shortly.</p><p>1</p>","null","","","","","","","",""
"","html-keyboard-response","66","201800","0.0-4.0-0.0-0.5","phdnjr9g08","green","null","","","","","","<svg viewBox=""0 0 100 100"" > <path d=""M 50 52 L 50 48"" stroke=""black"" stroke-width="".5""/> <path d=""M 52 50 L 48 50"" stroke=""black"" stroke-width="".5""/>","null","","","","","","","",""
"","html-keyboard-response","67","202462","0.0-4.0-0.0-1.5","phdnjr9g08","green","660","","","","","","<svg viewBox=""0 0 100 100"" ><circle cx=""50"" cy=""50"" r=""10"" fill=""none"" transform=""translate( 26  15)"" stroke=""magenta"" /><circle cx=""50"" cy=""50"" r=""10"" fill=""none"" transform=""translate(  0  30)"" stroke=""green"" /><circle cx=""50"" cy=""50"" r=""10"" fill=""none"" transform=""translate(-26  15)"" stroke=""blueviolet"" /><circle cx=""50"" cy=""50"" r=""10"" fill=""none"" transform=""translate(-26 -15)"" stroke=""cyan"" /><circle cx=""50"" cy=""50"" r=""10"" fill=""none"" transform=""translate(  0 -30)"" stroke=""black"" /><circle cx=""50"" cy=""50"" r=""10"" fill=""none"" transform=""translate( 26 -15)"" stroke=""gold"" /><path d=""M 50 57 L 50 43"" stroke=""black"" transform=""translate( 26  15) rotate(-45 50 50)""/><path d=""M 50 57 L 50 43"" stroke=""black"" transform=""translate(  0  30) rotate(90 50 50)""/><path d=""M 50 57 L 50 43"" stroke=""black"" transform=""translate(-26  15) rotate(-45 50 50)""/><path d=""M 50 57 L 50 43"" stroke=""black"" transform=""translate(-26 -15) rotate(-45 50 50)""/><path d=""M 50 57 L 50 43"" stroke=""black"" transform=""translate(  0 -30) rotate(-45 50 50)""/><path d=""M 50 57 L 50 43"" stroke=""black"" transform=""translate( 26 -15) rotate(-45 50 50)""/><path d=""M 50 52 L 50 48"" stroke=""black"" stroke-width="".5""/> <path d=""M 52 50 L 48 50"" stroke=""black"" stroke-width="".5""/></svg>","90","VDACtest","green","2nd","horizontal","true","high","",""
"","html-keyboard-response","68","204968","0.0-4.0-0.0-2.5","phdnjr9g08","green","null","","","","","","<p style=""font-size:300%;""> + 10 points.</p><p style=""font-size:300%"">Total: 28 points.</p>","null","","","","","","","28",""
"","html-keyboard-response","69","206575","0.0-4.0-0.0-0.6","phdnjr9g08","green","null","","","","","","<svg viewBox=""0 0 100 100"" > <path d=""M 50 52 L 50 48"" stroke=""black"" stroke-width="".5""/> <path d=""M 52 50 L 48 50"" stroke=""black"" stroke-width="".5""/>","null","","","","","","","",""
"","html-keyboard-response","70","207380","0.0-4.0-0.0-1.6","phdnjr9g08","green","806","","","","","","<svg viewBox=""0 0 100 100"" ><circle cx=""50"" cy=""50"" r=""10"" fill=""none"" transform=""translate( 26  15)"" stroke=""cyan"" /><circle cx=""50"" cy=""50"" r=""10"" fill=""none"" transform=""translate(  0  30)"" stroke=""blueviolet"" /><circle cx=""50"" cy=""50"" r=""10"" fill=""none"" transform=""translate(-26  15)"" stroke=""gold"" /><circle cx=""50"" cy=""50"" r=""10"" fill=""none"" transform=""translate(-26 -15)"" stroke=""green"" /><circle cx=""50"" cy=""50"" r=""10"" fill=""none"" transform=""translate(  0 -30)"" stroke=""black"" /><circle cx=""50"" cy=""50"" r=""10"" fill=""none"" transform=""translate( 26 -15)"" stroke=""magenta"" /><path d=""M 50 57 L 50 43"" stroke=""black"" transform=""translate( 26  15) rotate(-45 50 50)""/><path d=""M 50 57 L 50 43"" stroke=""black"" transform=""translate(  0  30) rotate(-45 50 50)""/><path d=""M 50 57 L 50 43"" stroke=""black"" transform=""translate(-26  15) rotate(45 50 50)""/><path d=""M 50 57 L 50 43"" stroke=""black"" transform=""translate(-26 -15) rotate(0 50 50)""/><path d=""M 50 57 L 50 43"" stroke=""black"" transform=""translate(  0 -30) rotate(45 50 50)""/><path d=""M 50 57 L 50 43"" stroke=""black"" transform=""translate( 26 -15) rotate(45 50 50)""/><path d=""M 50 52 L 50 48"" stroke=""black"" stroke-width="".5""/> <path d=""M 52 50 L 48 50"" stroke=""black"" stroke-width="".5""/></svg>","90","VDACtest","green","4th","vertical","false","high","",""
"","html-keyboard-response","71","209894","0.0-4.0-0.0-2.6","phdnjr9g08","green","null","","","","","","<p style=""font-size:300%;"">Miss.</p><p style=""font-size:300%"">Total: 28 points.</p>","null","","","","","","","28",""
"","html-keyboard-response","72","211508","0.0-4.0-0.0-0.7","phdnjr9g08","green","null","","","","","","<svg viewBox=""0 0 100 100"" > <path d=""M 50 52 L 50 48"" stroke=""black"" stroke-width="".5""/> <path d=""M 52 50 L 48 50"" stroke=""black"" stroke-width="".5""/>","null","","","","","","","",""
"","html-keyboard-response","73","212523","0.0-4.0-0.0-1.7","phdnjr9g08","green","null","","","","","","<svg viewBox=""0 0 100 100"" ><circle cx=""50"" cy=""50"" r=""10"" fill=""none"" transform=""translate( 26  15)"" stroke=""gold"" /><circle cx=""50"" cy=""50"" r=""10"" fill=""none"" transform=""translate(  0  30)"" stroke=""red"" /><circle cx=""50"" cy=""50"" r=""10"" fill=""none"" transform=""translate(-26  15)"" stroke=""blueviolet"" /><circle cx=""50"" cy=""50"" r=""10"" fill=""none"" transform=""translate(-26 -15)"" stroke=""cyan"" /><circle cx=""50"" cy=""50"" r=""10"" fill=""none"" transform=""translate(  0 -30)"" stroke=""magenta"" /><circle cx=""50"" cy=""50"" r=""10"" fill=""none"" transform=""translate( 26 -15)"" stroke=""black"" /><path d=""M 50 57 L 50 43"" stroke=""black"" transform=""translate( 26  15) rotate(45 50 50)""/><path d=""M 50 57 L 50 43"" stroke=""black"" transform=""translate(  0  30) rotate(90 50 50)""/><path d=""M 50 57 L 50 43"" stroke=""black"" transform=""translate(-26  15) rotate(45 50 50)""/><path d=""M 50 57 L 50 43"" stroke=""black"" transform=""translate(-26 -15) rotate(45 50 50)""/><path d=""M 50 57 L 50 43"" stroke=""black"" transform=""translate(  0 -30) rotate(45 50 50)""/><path d=""M 50 57 L 50 43"" stroke=""black"" transform=""translate( 26 -15) rotate(-45 50 50)""/><path d=""M 50 52 L 50 48"" stroke=""black"" stroke-width="".5""/> <path d=""M 52 50 L 48 50"" stroke=""black"" stroke-width="".5""/></svg>","null","VDACtest","red","2nd","horizontal","null","low","",""
"","html-keyboard-response","74","215041","0.0-4.0-0.0-2.7","phdnjr9g08","green","null","","","","","","<p style=""font-size:300%;"">Miss.</p><p style=""font-size:300%"">Total: 28 points.</p>","null","","","","","","","28",""
"","html-keyboard-response","75","216650","0.0-4.0-0.0-0.8","phdnjr9g08","green","null","","","","","","<svg viewBox=""0 0 100 100"" > <path d=""M 50 52 L 50 48"" stroke=""black"" stroke-width="".5""/> <path d=""M 52 50 L 48 50"" stroke=""black"" stroke-width="".5""/>","null","","","","","","","",""
"","html-keyboard-response","76","217215","0.0-4.0-0.0-1.8","phdnjr9g08","green","565","","","","","","<svg viewBox=""0 0 100 100"" ><circle cx=""50"" cy=""50"" r=""10"" fill=""none"" transform=""translate( 26  15)"" stroke=""green"" /><circle cx=""50"" cy=""50"" r=""10"" fill=""none"" transform=""translate(  0  30)"" stroke=""blueviolet"" /><circle cx=""50"" cy=""50"" r=""10"" fill=""none"" transform=""translate(-26  15)"" stroke=""magenta"" /><circle cx=""50"" cy=""50"" r=""10"" fill=""none"" transform=""translate(-26 -15)"" stroke=""cyan"" /><circle cx=""50"" cy=""50"" r=""10"" fill=""none"" transform=""translate(  0 -30)"" stroke=""black"" /><circle cx=""50"" cy=""50"" r=""10"" fill=""none"" transform=""translate( 26 -15)"" stroke=""gold"" /><path d=""M 50 57 L 50 43"" stroke=""black"" transform=""translate( 26  15) rotate(90 50 50)""/><path d=""M 50 57 L 50 43"" stroke=""black"" transform=""translate(  0  30) rotate(45 50 50)""/><path d=""M 50 57 L 50 43"" stroke=""black"" transform=""translate(-26  15) rotate(45 50 50)""/><path d=""M 50 57 L 50 43"" stroke=""black"" transform=""translate(-26 -15) rotate(-45 50 50)""/><path d=""M 50 57 L 50 43"" stroke=""black"" transform=""translate(  0 -30) rotate(45 50 50)""/><path d=""M 50 57 L 50 43"" stroke=""black"" transform=""translate( 26 -15) rotate(45 50 50)""/><path d=""M 50 52 L 50 48"" stroke=""black"" stroke-width="".5""/> <path d=""M 52 50 L 48 50"" stroke=""black"" stroke-width="".5""/></svg>","90","VDACtest","green","1st","horizontal","true","high","",""
"","html-keyboard-response","77","219738","0.0-4.0-0.0-2.8","phdnjr9g08","green","null","","","","","","<p style=""font-size:300%;""> + 10 points.</p><p style=""font-size:300%"">Total: 38 points.</p>","null","","","","","","","38",""
"","html-keyboard-response","78","221349","0.0-4.0-0.0-0.9","phdnjr9g08","green","null","","","","","","<svg viewBox=""0 0 100 100"" > <path d=""M 50 52 L 50 48"" stroke=""black"" stroke-width="".5""/> <path d=""M 52 50 L 48 50"" stroke=""black"" stroke-width="".5""/>","null","","","","","","","",""
"","html-keyboard-response","79","221827","0.0-4.0-0.0-1.9","phdnjr9g08","green","477","","","","","","<svg viewBox=""0 0 100 100"" ><circle cx=""50"" cy=""50"" r=""10"" fill=""none"" transform=""translate( 26  15)"" stroke=""black"" /><circle cx=""50"" cy=""50"" r=""10"" fill=""none"" transform=""translate(  0  30)"" stroke=""cyan"" /><circle cx=""50"" cy=""50"" r=""10"" fill=""none"" transform=""translate(-26  15)"" stroke=""blueviolet"" /><circle cx=""50"" cy=""50"" r=""10"" fill=""none"" transform=""translate(-26 -15)"" stroke=""magenta"" /><circle cx=""50"" cy=""50"" r=""10"" fill=""none"" transform=""translate(  0 -30)"" stroke=""gold"" /><circle cx=""50"" cy=""50"" r=""10"" fill=""none"" transform=""translate( 26 -15)"" stroke=""red"" /><path d=""M 50 57 L 50 43"" stroke=""black"" transform=""translate( 26  15) rotate(-45 50 50)""/><path d=""M 50 57 L 50 43"" stroke=""black"" transform=""translate(  0  30) rotate(-45 50 50)""/><path d=""M 50 57 L 50 43"" stroke=""black"" transform=""translate(-26  15) rotate(45 50 50)""/><path d=""M 50 57 L 50 43"" stroke=""black"" transform=""translate(-26 -15) rotate(45 50 50)""/><path d=""M 50 57 L 50 43"" stroke=""black"" transform=""translate(  0 -30) rotate(-45 50 50)""/><path d=""M 50 57 L 50 43"" stroke=""black"" transform=""translate( 26 -15) rotate(90 50 50)""/><path d=""M 50 52 L 50 48"" stroke=""black"" stroke-width="".5""/> <path d=""M 52 50 L 48 50"" stroke=""black"" stroke-width="".5""/></svg>","90","VDACtest","red","6th","horizontal","true","low","",""
"","html-keyboard-response","80","224347","0.0-4.0-0.0-2.9","phdnjr9g08","green","null","","","","","","<p style=""font-size:300%;""> + 2 points.</p><p style=""font-size:300%"">Total: 40 points.</p>","null","","","","","","","40",""
"","html-keyboard-response","81","226749","0.0-4.0-0.0-4.9-0.9","phdnjr9g08","green","1391","","","","","","<p>You may now take a 30 second break. If you wish to continue with the experiment now, press any key to start.</p>","77","","","","","","","",""
"","html-keyboard-response","82","228758","0.0-4.0-0.0-4.9-1.9-0.9","phdnjr9g08","green","null","","","","","","<p>Place your fingers on the z and m keys. The experiment will continue shortly.</p><p>&nbsp</p>","null","","","","","","","",""
"","html-keyboard-response","83","229773","0.0-4.0-0.0-4.9-1.9-1.9","phdnjr9g08","green","null","","","","","","<p>Place your fingers on the z and m keys. The experiment will continue shortly.</p><p>3</p>","null","","","","","","","",""
"","html-keyboard-response","84","230784","0.0-4.0-0.0-4.9-1.9-2.9","phdnjr9g08","green","null","","","","","","<p>Place your fingers on the z and m keys. The experiment will continue shortly.</p><p>2</p>","null","","","","","","","",""
"","html-keyboard-response","85","231799","0.0-4.0-0.0-4.9-1.9-3.9","phdnjr9g08","green","null","","","","","","<p>Place your fingers on the z and m keys. The experiment will continue shortly.</p><p>1</p>","null","","","","","","","",""
"","html-keyboard-response","86","232399","0.0-4.0-0.0-0.10","phdnjr9g08","green","null","","","","","","<svg viewBox=""0 0 100 100"" > <path d=""M 50 52 L 50 48"" stroke=""black"" stroke-width="".5""/> <path d=""M 52 50 L 48 50"" stroke=""black"" stroke-width="".5""/>","null","","","","","","","",""
"","html-keyboard-response","87","232756","0.0-4.0-0.0-1.10","phdnjr9g08","green","356","","","","","","<svg viewBox=""0 0 100 100"" ><circle cx=""50"" cy=""50"" r=""10"" fill=""none"" transform=""translate( 26  15)"" stroke=""magenta"" /><circle cx=""50"" cy=""50"" r=""10"" fill=""none"" transform=""translate(  0  30)"" stroke=""cyan"" /><circle cx=""50"" cy=""50"" r=""10"" fill=""none"" transform=""translate(-26  15)"" stroke=""black"" /><circle cx=""50"" cy=""50"" r=""10"" fill=""none"" transform=""translate(-26 -15)"" stroke=""blueviolet"" /><circle cx=""50"" cy=""50"" r=""10"" fill=""none"" transform=""translate(  0 -30)"" stroke=""gold"" /><circle cx=""50"" cy=""50"" r=""10"" fill=""none"" transform=""translate( 26 -15)"" stroke=""red"" /><path d=""M 50 57 L 50 43"" stroke=""black"" transform=""translate( 26  15) rotate(45 50 50)""/><path d=""M 50 57 L 50 43"" stroke=""black"" transform=""translate(  0  30) rotate(-45 50 50)""/><path d=""M 50 57 L 50 43"" stroke=""black"" transform=""translate(-26  15) rotate(-45 50 50)""/><path d=""M 50 57 L 50 43"" stroke=""black"" transform=""translate(-26 -15) rotate(-45 50 50)""/><path d=""M 50 57 L 50 43"" stroke=""black"" transform=""translate(  0 -30) rotate(-45 50 50)""/><path d=""M 50 57 L 50 43"" stroke=""black"" transform=""translate( 26 -15) rotate(0 50 50)""/><path d=""M 50 52 L 50 48"" stroke=""black"" stroke-width="".5""/> <path d=""M 52 50 L 48 50"" stroke=""black"" stroke-width="".5""/></svg>","90","VDACtest","red","6th","vertical","false","low","",""
"","html-keyboard-response","88","235272","0.0-4.0-0.0-2.10","phdnjr9g08","green","null","","","","","","<p style=""font-size:300%;"">Miss.</p><p style=""font-size:300%"">Total: 40 points.</p>","null","","","","","","","40",""
"","html-keyboard-response","89","236885","0.0-4.0-0.0-0.11","phdnjr9g08","green","null","","","","","","<svg viewBox=""0 0 100 100"" > <path d=""M 50 52 L 50 48"" stroke=""black"" stroke-width="".5""/> <path d=""M 52 50 L 48 50"" stroke=""black"" stroke-width="".5""/>","null","","","","","","","",""
"","html-keyboard-response","90","237332","0.0-4.0-0.0-1.11","phdnjr9g08","green","446","","","","","","<svg viewBox=""0 0 100 100"" ><circle cx=""50"" cy=""50"" r=""10"" fill=""none"" transform=""translate( 26  15)"" stroke=""cyan"" /><circle cx=""50"" cy=""50"" r=""10"" fill=""none"" transform=""translate(  0  30)"" stroke=""black"" /><circle cx=""50"" cy=""50"" r=""10"" fill=""none"" transform=""translate(-26  15)"" stroke=""magenta"" /><circle cx=""50"" cy=""50"" r=""10"" fill=""none"" transform=""translate(-26 -15)"" stroke=""gold"" /><circle cx=""50"" cy=""50"" r=""10"" fill=""none"" transform=""translate(  0 -30)"" stroke=""green"" /><circle cx=""50"" cy=""50"" r=""10"" fill=""none"" transform=""translate( 26 -15)"" stroke=""blueviolet"" /><path d=""M 50 57 L 50 43"" stroke=""black"" transform=""translate( 26  15) rotate(45 50 50)""/><path d=""M 50 57 L 50 43"" stroke=""black"" transform=""translate(  0  30) rotate(45 50 50)""/><path d=""M 50 57 L 50 43"" stroke=""black"" transform=""translate(-26  15) rotate(-45 50 50)""/><path d=""M 50 57 L 50 43"" stroke=""black"" transform=""translate(-26 -15) rotate(-45 50 50)""/><path d=""M 50 57 L 50 43"" stroke=""black"" transform=""translate(  0 -30) rotate(0 50 50)""/><path d=""M 50 57 L 50 43"" stroke=""black"" transform=""translate( 26 -15) rotate(45 50 50)""/><path d=""M 50 52 L 50 48"" stroke=""black"" stroke-width="".5""/> <path d=""M 52 50 L 48 50"" stroke=""black"" stroke-width="".5""/></svg>","77","VDACtest","green","5th","vertical","true","high","",""
"","html-keyboard-response","91","239848","0.0-4.0-0.0-2.11","phdnjr9g08","green","null","","","","","","<p style=""font-size:300%;""> + 10 points.</p><p style=""font-size:300%"">Total: 50 points.</p>","null","","","","","","","50",""
"","html-keyboard-response","92","241452","0.0-4.0-0.0-0.12","phdnjr9g08","green","null","","","","","","<svg viewBox=""0 0 100 100"" > <path d=""M 50 52 L 50 48"" stroke=""black"" stroke-width="".5""/> <path d=""M 52 50 L 48 50"" stroke=""black"" stroke-width="".5""/>","null","","","","","","","",""
"","html-keyboard-response","93","241993","0.0-4.0-0.0-1.12","phdnjr9g08","green","541","","","","","","<svg viewBox=""0 0 100 100"" ><circle cx=""50"" cy=""50"" r=""10"" fill=""none"" transform=""translate( 26  15)"" stroke=""gold"" /><circle cx=""50"" cy=""50"" r=""10"" fill=""none"" transform=""translate(  0  30)"" stroke=""black"" /><circle cx=""50"" cy=""50"" r=""10"" fill=""none"" transform=""translate(-26  15)"" stroke=""magenta"" /><circle cx=""50"" cy=""50"" r=""10"" fill=""none"" transform=""translate(-26 -15)"" stroke=""red"" /><circle cx=""50"" cy=""50"" r=""10"" fill=""none"" transform=""translate(  0 -30)"" stroke=""blueviolet"" /><circle cx=""50"" cy=""50"" r=""10"" fill=""none"" transform=""translate( 26 -15)"" stroke=""cyan"" /><path d=""M 50 57 L 50 43"" stroke=""black"" transform=""translate( 26  15) rotate(-45 50 50)""/><path d=""M 50 57 L 50 43"" stroke=""black"" transform=""translate(  0  30) rotate(-45 50 50)""/><path d=""M 50 57 L 50 43"" stroke=""black"" transform=""translate(-26  15) rotate(-45 50 50)""/><path d=""M 50 57 L 50 43"" stroke=""black"" transform=""translate(-26 -15) rotate(0 50 50)""/><path d=""M 50 57 L 50 43"" stroke=""black"" transform=""translate(  0 -30) rotate(45 50 50)""/><path d=""M 50 57 L 50 43"" stroke=""black"" transform=""translate( 26 -15) rotate(45 50 50)""/><path d=""M 50 52 L 50 48"" stroke=""black"" stroke-width="".5""/> <path d=""M 52 50 L 48 50"" stroke=""black"" stroke-width="".5""/></svg>","77","VDACtest","red","4th","vertical","true","low","",""
"","html-keyboard-response","94","244510","0.0-4.0-0.0-2.12","phdnjr9g08","green","null","","","","","","<p style=""font-size:300%;""> + 10 points.</p><p style=""font-size:300%"">Total: 60 points.</p>","null","","","","","","","60",""
"","html-keyboard-response","95","246124","0.0-4.0-0.0-0.13","phdnjr9g08","green","null","","","","","","<svg viewBox=""0 0 100 100"" > <path d=""M 50 52 L 50 48"" stroke=""black"" stroke-width="".5""/> <path d=""M 52 50 L 48 50"" stroke=""black"" stroke-width="".5""/>","null","","","","","","","",""
"","html-keyboard-response","96","246694","0.0-4.0-0.0-1.13","phdnjr9g08","green","569","","","","","","<svg viewBox=""0 0 100 100"" ><circle cx=""50"" cy=""50"" r=""10"" fill=""none"" transform=""translate( 26  15)"" stroke=""black"" /><circle cx=""50"" cy=""50"" r=""10"" fill=""none"" transform=""translate(  0  30)"" stroke=""cyan"" /><circle cx=""50"" cy=""50"" r=""10"" fill=""none"" transform=""translate(-26  15)"" stroke=""red"" /><circle cx=""50"" cy=""50"" r=""10"" fill=""none"" transform=""translate(-26 -15)"" stroke=""gold"" /><circle cx=""50"" cy=""50"" r=""10"" fill=""none"" transform=""translate(  0 -30)"" stroke=""blueviolet"" /><circle cx=""50"" cy=""50"" r=""10"" fill=""none"" transform=""translate( 26 -15)"" stroke=""magenta"" /><path d=""M 50 57 L 50 43"" stroke=""black"" transform=""translate( 26  15) rotate(-45 50 50)""/><path d=""M 50 57 L 50 43"" stroke=""black"" transform=""translate(  0  30) rotate(45 50 50)""/><path d=""M 50 57 L 50 43"" stroke=""black"" transform=""translate(-26  15) rotate(0 50 50)""/><path d=""M 50 57 L 50 43"" stroke=""black"" transform=""translate(-26 -15) rotate(-45 50 50)""/><path d=""M 50 57 L 50 43"" stroke=""black"" transform=""translate(  0 -30) rotate(45 50 50)""/><path d=""M 50 57 L 50 43"" stroke=""black"" transform=""translate( 26 -15) rotate(-45 50 50)""/><path d=""M 50 52 L 50 48"" stroke=""black"" stroke-width="".5""/> <path d=""M 52 50 L 48 50"" stroke=""black"" stroke-width="".5""/></svg>","77","VDACtest","red","3rd","vertical","true","low","",""
"","html-keyboard-response","97","249211","0.0-4.0-0.0-2.13","phdnjr9g08","green","null","","","","","","<p style=""font-size:300%;""> + 2 points.</p><p style=""font-size:300%"">Total: 62 points.</p>","null","","","","","","","62",""
"","html-keyboard-response","98","250813","0.0-4.0-0.0-0.14","phdnjr9g08","green","null","","","","","","<svg viewBox=""0 0 100 100"" > <path d=""M 50 52 L 50 48"" stroke=""black"" stroke-width="".5""/> <path d=""M 52 50 L 48 50"" stroke=""black"" stroke-width="".5""/>","null","","","","","","","",""
"","html-keyboard-response","99","251381","0.0-4.0-0.0-1.14","phdnjr9g08","green","566","","","","","","<svg viewBox=""0 0 100 100"" ><circle cx=""50"" cy=""50"" r=""10"" fill=""none"" transform=""translate( 26  15)"" stroke=""green"" /><circle cx=""50"" cy=""50"" r=""10"" fill=""none"" transform=""translate(  0  30)"" stroke=""cyan"" /><circle cx=""50"" cy=""50"" r=""10"" fill=""none"" transform=""translate(-26  15)"" stroke=""blueviolet"" /><circle cx=""50"" cy=""50"" r=""10"" fill=""none"" transform=""translate(-26 -15)"" stroke=""magenta"" /><circle cx=""50"" cy=""50"" r=""10"" fill=""none"" transform=""translate(  0 -30)"" stroke=""black"" /><circle cx=""50"" cy=""50"" r=""10"" fill=""none"" transform=""translate( 26 -15)"" stroke=""gold"" /><path d=""M 50 57 L 50 43"" stroke=""black"" transform=""translate( 26  15) rotate(0 50 50)""/><path d=""M 50 57 L 50 43"" stroke=""black"" transform=""translate(  0  30) rotate(-45 50 50)""/><path d=""M 50 57 L 50 43"" stroke=""black"" transform=""translate(-26  15) rotate(45 50 50)""/><path d=""M 50 57 L 50 43"" stroke=""black"" transform=""translate(-26 -15) rotate(-45 50 50)""/><path d=""M 50 57 L 50 43"" stroke=""black"" transform=""translate(  0 -30) rotate(45 50 50)""/><path d=""M 50 57 L 50 43"" stroke=""black"" transform=""translate( 26 -15) rotate(45 50 50)""/><path d=""M 50 52 L 50 48"" stroke=""black"" stroke-width="".5""/> <path d=""M 52 50 L 48 50"" stroke=""black"" stroke-width="".5""/></svg>","77","VDACtest","green","1st","vertical","true","high","",""
"","html-keyboard-response","100","253888","0.0-4.0-0.0-2.14","phdnjr9g08","green","null","","","","","","<p style=""font-size:300%;""> + 10 points.</p><p style=""font-size:300%"">Total: 72 points.</p>","null","","","","","","","72",""
"","html-keyboard-response","101","256528","0.0-4.0-0.0-4.14-0.14","phdnjr9g08","green","1636","","","","","","<p>You may now take a 30 second break. If you wish to continue with the experiment now, press any key to start.</p>","77","","","","","","","",""
"","html-keyboard-response","102","258542","0.0-4.0-0.0-4.14-1.14-0.14","phdnjr9g08","green","null","","","","","","<p>Place your fingers on the z and m keys. The experiment will continue shortly.</p><p>&nbsp</p>","null","","","","","","","",""
"","html-keyboard-response","103","259553","0.0-4.0-0.0-4.14-1.14-1.14","phdnjr9g08","green","null","","","","","","<p>Place your fingers on the z and m keys. The experiment will continue shortly.</p><p>3</p>","null","","","","","","","",""
"","html-keyboard-response","104","260558","0.0-4.0-0.0-4.14-1.14-2.14","phdnjr9g08","green","null","","","","","","<p>Place your fingers on the z and m keys. The experiment will continue shortly.</p><p>2</p>","null","","","","","","","",""
"","html-keyboard-response","105","261572","0.0-4.0-0.0-4.14-1.14-3.14","phdnjr9g08","green","null","","","","","","<p>Place your fingers on the z and m keys. The experiment will continue shortly.</p><p>1</p>","null","","","","","","","",""
"","html-keyboard-response","106","262164","0.0-4.0-0.0-0.15","phdnjr9g08","green","null","","","","","","<svg viewBox=""0 0 100 100"" > <path d=""M 50 52 L 50 48"" stroke=""black"" stroke-width="".5""/> <path d=""M 52 50 L 48 50"" stroke=""black"" stroke-width="".5""/>","null","","","","","","","",""
"","html-keyboard-response","107","262466","0.0-4.0-0.0-1.15","phdnjr9g08","green","301","","","","","","<svg viewBox=""0 0 100 100"" ><circle cx=""50"" cy=""50"" r=""10"" fill=""none"" transform=""translate( 26  15)"" stroke=""blueviolet"" /><circle cx=""50"" cy=""50"" r=""10"" fill=""none"" transform=""translate(  0  30)"" stroke=""gold"" /><circle cx=""50"" cy=""50"" r=""10"" fill=""none"" transform=""translate(-26  15)"" stroke=""green"" /><circle cx=""50"" cy=""50"" r=""10"" fill=""none"" transform=""translate(-26 -15)"" stroke=""cyan"" /><circle cx=""50"" cy=""50"" r=""10"" fill=""none"" transform=""translate(  0 -30)"" stroke=""black"" /><circle cx=""50"" cy=""50"" r=""10"" fill=""none"" transform=""translate( 26 -15)"" stroke=""magenta"" /><path d=""M 50 57 L 50 43"" stroke=""black"" transform=""translate( 26  15) rotate(45 50 50)""/><path d=""M 50 57 L 50 43"" stroke=""black"" transform=""translate(  0  30) rotate(45 50 50)""/><path d=""M 50 57 L 50 43"" stroke=""black"" transform=""translate(-26  15) rotate(90 50 50)""/><path d=""M 50 57 L 50 43"" stroke=""black"" transform=""translate(-26 -15) rotate(45 50 50)""/><path d=""M 50 57 L 50 43"" stroke=""black"" transform=""translate(  0 -30) rotate(-45 50 50)""/><path d=""M 50 57 L 50 43"" stroke=""black"" transform=""translate( 26 -15) rotate(-45 50 50)""/><path d=""M 50 52 L 50 48"" stroke=""black"" stroke-width="".5""/> <path d=""M 52 50 L 48 50"" stroke=""black"" stroke-width="".5""/></svg>","90","VDACtest","green","3rd","horizontal","true","high","",""
"","html-keyboard-response","108","264982","0.0-4.0-0.0-2.15","phdnjr9g08","green","null","","","","","","<p style=""font-size:300%;""> + 10 points.</p><p style=""font-size:300%"">Total: 82 points.</p>","null","","","","","","","82",""
"","html-keyboard-response","109","266599","0.0-4.0-0.0-0.16","phdnjr9g08","green","null","","","","","","<svg viewBox=""0 0 100 100"" > <path d=""M 50 52 L 50 48"" stroke=""black"" stroke-width="".5""/> <path d=""M 52 50 L 48 50"" stroke=""black"" stroke-width="".5""/>","null","","","","","","","",""
"","html-keyboard-response","110","267053","0.0-4.0-0.0-1.16","phdnjr9g08","green","453","","","","","","<svg viewBox=""0 0 100 100"" ><circle cx=""50"" cy=""50"" r=""10"" fill=""none"" transform=""translate( 26  15)"" stroke=""red"" /><circle cx=""50"" cy=""50"" r=""10"" fill=""none"" transform=""translate(  0  30)"" stroke=""gold"" /><circle cx=""50"" cy=""50"" r=""10"" fill=""none"" transform=""translate(-26  15)"" stroke=""blueviolet"" /><circle cx=""50"" cy=""50"" r=""10"" fill=""none"" transform=""translate(-26 -15)"" stroke=""black"" /><circle cx=""50"" cy=""50"" r=""10"" fill=""none"" transform=""translate(  0 -30)"" stroke=""magenta"" /><circle cx=""50"" cy=""50"" r=""10"" fill=""none"" transform=""translate( 26 -15)"" stroke=""cyan"" /><path d=""M 50 57 L 50 43"" stroke=""black"" transform=""translate( 26  15) rotate(90 50 50)""/><path d=""M 50 57 L 50 43"" stroke=""black"" transform=""translate(  0  30) rotate(-45 50 50)""/><path d=""M 50 57 L 50 43"" stroke=""black"" transform=""translate(-26  15) rotate(-45 50 50)""/><path d=""M 50 57 L 50 43"" stroke=""black"" transform=""translate(-26 -15) rotate(45 50 50)""/><path d=""M 50 57 L 50 43"" stroke=""black"" transform=""translate(  0 -30) rotate(-45 50 50)""/><path d=""M 50 57 L 50 43"" stroke=""black"" transform=""translate( 26 -15) rotate(-45 50 50)""/><path d=""M 50 52 L 50 48"" stroke=""black"" stroke-width="".5""/> <path d=""M 52 50 L 48 50"" stroke=""black"" stroke-width="".5""/></svg>","90","VDACtest","red","1st","horizontal","true","low","",""
"","html-keyboard-response","111","269570","0.0-4.0-0.0-2.16","phdnjr9g08","green","null","","","","","","<p style=""font-size:300%;""> + 10 points.</p><p style=""font-size:300%"">Total: 92 points.</p>","null","","","","","","","92",""
"","html-keyboard-response","112","271177","0.0-4.0-0.0-0.17","phdnjr9g08","green","null","","","","","","<svg viewBox=""0 0 100 100"" > <path d=""M 50 52 L 50 48"" stroke=""black"" stroke-width="".5""/> <path d=""M 52 50 L 48 50"" stroke=""black"" stroke-width="".5""/>","null","","","","","","","",""
"","html-keyboard-response","113","271468","0.0-4.0-0.0-1.17","phdnjr9g08","green","292","","","","","","<svg viewBox=""0 0 100 100"" ><circle cx=""50"" cy=""50"" r=""10"" fill=""none"" transform=""translate( 26  15)"" stroke=""cyan"" /><circle cx=""50"" cy=""50"" r=""10"" fill=""none"" transform=""translate(  0  30)"" stroke=""blueviolet"" /><circle cx=""50"" cy=""50"" r=""10"" fill=""none"" transform=""translate(-26  15)"" stroke=""black"" /><circle cx=""50"" cy=""50"" r=""10"" fill=""none"" transform=""translate(-26 -15)"" stroke=""magenta"" /><circle cx=""50"" cy=""50"" r=""10"" fill=""none"" transform=""translate(  0 -30)"" stroke=""green"" /><circle cx=""50"" cy=""50"" r=""10"" fill=""none"" transform=""translate( 26 -15)"" stroke=""gold"" /><path d=""M 50 57 L 50 43"" stroke=""black"" transform=""translate( 26  15) rotate(45 50 50)""/><path d=""M 50 57 L 50 43"" stroke=""black"" transform=""translate(  0  30) rotate(45 50 50)""/><path d=""M 50 57 L 50 43"" stroke=""black"" transform=""translate(-26  15) rotate(-45 50 50)""/><path d=""M 50 57 L 50 43"" stroke=""black"" transform=""translate(-26 -15) rotate(-45 50 50)""/><path d=""M 50 57 L 50 43"" stroke=""black"" transform=""translate(  0 -30) rotate(90 50 50)""/><path d=""M 50 57 L 50 43"" stroke=""black"" transform=""translate( 26 -15) rotate(-45 50 50)""/><path d=""M 50 52 L 50 48"" stroke=""black"" stroke-width="".5""/> <path d=""M 52 50 L 48 50"" stroke=""black"" stroke-width="".5""/></svg>","90","VDACtest","green","5th","horizontal","true","high","",""
"","html-keyboard-response","114","273974","0.0-4.0-0.0-2.17","phdnjr9g08","green","null","","","","","","<p style=""font-size:300%;""> + 10 points.</p><p style=""font-size:300%"">Total: 102 points.</p>","null","","","","","","","102",""
"","html-keyboard-response","115","275585","0.0-4.0-0.0-0.18","phdnjr9g08","green","null","","","","","","<svg viewBox=""0 0 100 100"" > <path d=""M 50 52 L 50 48"" stroke=""black"" stroke-width="".5""/> <path d=""M 52 50 L 48 50"" stroke=""black"" stroke-width="".5""/>","null","","","","","","","",""
"","html-keyboard-response","116","276012","0.0-4.0-0.0-1.18","phdnjr9g08","green","427","","","","","","<svg viewBox=""0 0 100 100"" ><circle cx=""50"" cy=""50"" r=""10"" fill=""none"" transform=""translate( 26  15)"" stroke=""black"" /><circle cx=""50"" cy=""50"" r=""10"" fill=""none"" transform=""translate(  0  30)"" stroke=""cyan"" /><circle cx=""50"" cy=""50"" r=""10"" fill=""none"" transform=""translate(-26  15)"" stroke=""red"" /><circle cx=""50"" cy=""50"" r=""10"" fill=""none"" transform=""translate(-26 -15)"" stroke=""blueviolet"" /><circle cx=""50"" cy=""50"" r=""10"" fill=""none"" transform=""translate(  0 -30)"" stroke=""magenta"" /><circle cx=""50"" cy=""50"" r=""10"" fill=""none"" transform=""translate( 26 -15)"" stroke=""gold"" /><path d=""M 50 57 L 50 43"" stroke=""black"" transform=""translate( 26  15) rotate(-45 50 50)""/><path d=""M 50 57 L 50 43"" stroke=""black"" transform=""translate(  0  30) rotate(-45 50 50)""/><path d=""M 50 57 L 50 43"" stroke=""black"" transform=""translate(-26  15) rotate(90 50 50)""/><path d=""M 50 57 L 50 43"" stroke=""black"" transform=""translate(-26 -15) rotate(-45 50 50)""/><path d=""M 50 57 L 50 43"" stroke=""black"" transform=""translate(  0 -30) rotate(45 50 50)""/><path d=""M 50 57 L 50 43"" stroke=""black"" transform=""translate( 26 -15) rotate(-45 50 50)""/><path d=""M 50 52 L 50 48"" stroke=""black"" stroke-width="".5""/> <path d=""M 52 50 L 48 50"" stroke=""black"" stroke-width="".5""/></svg>","90","VDACtest","red","3rd","horizontal","true","low","",""
"","html-keyboard-response","117","278527","0.0-4.0-0.0-2.18","phdnjr9g08","green","null","","","","","","<p style=""font-size:300%;""> + 2 points.</p><p style=""font-size:300%"">Total: 104 points.</p>","null","","","","","","","104",""
"","html-keyboard-response","118","280141","0.0-4.0-0.0-0.19","phdnjr9g08","green","null","","","","","","<svg viewBox=""0 0 100 100"" > <path d=""M 50 52 L 50 48"" stroke=""black"" stroke-width="".5""/> <path d=""M 52 50 L 48 50"" stroke=""black"" stroke-width="".5""/>","null","","","","","","","",""
"","html-keyboard-response","119","280626","0.0-4.0-0.0-1.19","phdnjr9g08","green","485","","","","","","<svg viewBox=""0 0 100 100"" ><circle cx=""50"" cy=""50"" r=""10"" fill=""none"" transform=""translate( 26  15)"" stroke=""cyan"" /><circle cx=""50"" cy=""50"" r=""10"" fill=""none"" transform=""translate(  0  30)"" stroke=""black"" /><circle cx=""50"" cy=""50"" r=""10"" fill=""none"" transform=""translate(-26  15)"" stroke=""blueviolet"" /><circle cx=""50"" cy=""50"" r=""10"" fill=""none"" transform=""translate(-26 -15)"" stroke=""green"" /><circle cx=""50"" cy=""50"" r=""10"" fill=""none"" transform=""translate(  0 -30)"" stroke=""magenta"" /><circle cx=""50"" cy=""50"" r=""10"" fill=""none"" transform=""translate( 26 -15)"" stroke=""gold"" /><path d=""M 50 57 L 50 43"" stroke=""black"" transform=""translate( 26  15) rotate(45 50 50)""/><path d=""M 50 57 L 50 43"" stroke=""black"" transform=""translate(  0  30) rotate(-45 50 50)""/><path d=""M 50 57 L 50 43"" stroke=""black"" transform=""translate(-26  15) rotate(45 50 50)""/><path d=""M 50 57 L 50 43"" stroke=""black"" transform=""translate(-26 -15) rotate(90 50 50)""/><path d=""M 50 57 L 50 43"" stroke=""black"" transform=""translate(  0 -30) rotate(45 50 50)""/><path d=""M 50 57 L 50 43"" stroke=""black"" transform=""translate( 26 -15) rotate(-45 50 50)""/><path d=""M 50 52 L 50 48"" stroke=""black"" stroke-width="".5""/> <path d=""M 52 50 L 48 50"" stroke=""black"" stroke-width="".5""/></svg>","90","VDACtest","green","4th","horizontal","true","high","",""
"","html-keyboard-response","120","283136","0.0-4.0-0.0-2.19","phdnjr9g08","green","null","","","","","","<p style=""font-size:300%;""> + 2 points.</p><p style=""font-size:300%"">Total: 106 points.</p>","null","","","","","","","106",""
"","call-function","121","284143","0.0-5.0","phdnjr9g08","green","","","","","","","","","","","","","","","",""
"","instructions","122","324472","0.0-6.0-0.0","phdnjr9g08","green","40327","","","","","[{""page_index"":0,""viewing_time"":19878},{""page_index"":1,""viewing_time"":20449}]","","","","","","","","","",""
"","html-keyboard-response","123","325072","0.0-6.0-1.0-0.0","phdnjr9g08","green","null","","","","","","<svg viewBox=""0 0 100 100"" > <path d=""M 50 52 L 50 48"" stroke=""black"" stroke-width="".5""/> <path d=""M 52 50 L 48 50"" stroke=""black"" stroke-width="".5""/>","null","","","","","","","",""
"","html-keyboard-response","124","325578","0.0-6.0-1.0-1.0-0.0","phdnjr9g08","green","null","","","","","","<p style=""color: black; text-align:center; font-family: BACS2; font-size:1000%;"">l</p>","null","","","","","","","",""
"","html-keyboard-response","125","326082","0.0-6.0-1.0-1.0-1.0","phdnjr9g08","green","null","","","","","","<p style=""color: black; text-align:center; font-family: BACS1; font-size:1000%;"">c</p>","null","","","","","","","",""
"","html-keyboard-response","126","326592","0.0-6.0-1.0-1.0-2.0","phdnjr9g08","green","null","","","","","","<p style=""color: black; text-align:center; font-family: BACS2; font-size:1000%;"">f</p>","null","","","","","","","",""
"","html-keyboard-response","127","327101","0.0-6.0-1.0-1.0-3.0","phdnjr9g08","green","null","","","","","","<svg xmlns=""http://www.w3.org/2000/svg"" width=""500"" height=""500"" viewBox=""-5 -5 20 20""> <rect x=""0"" y=""0"" width=""10"" height=""10"" /><path fill=""#FFF"" d=""M 0,1 H 10 v 1 H 0 z m 0,2 H 10 v 1 H 0 zm 0,2 H 10 v 1 H 0 zm 0,2 H 10 v 1 H 0 zm 0,2 H 10 v 1 H 0 zM 1,0 V 10 h 1 V 0 zm 2,0 V 10 h 1 V 0 zm 2,0 V 10 h 1 V 0 zm 2,0 V 10 h 1 V 0 zm 2,0 V 10 h 1 V 0 z""/></svg>","null","","","","","","","",""
"","html-keyboard-response","128","328263","0.0-6.0-1.0-1.0-4.0","phdnjr9g08","green","1161","","","","","","<p style=""color: black; text-align:center; font-family: BACS1; font-size:1000%;"">c</p>","77","RSVPtraining","","2nd","","false","","",""
"","html-keyboard-response","129","329767","0.0-6.0-1.0-2.0","phdnjr9g08","green","null","","","","","","<p style=""font-size:300%;"">Miss.</p> <p style=""font-size:300%;"">Wrong response.</p>","null","","","","","","","",""
"","html-keyboard-response","130","331381","0.0-6.0-1.0-0.1","phdnjr9g08","green","null","","","","","","<svg viewBox=""0 0 100 100"" > <path d=""M 50 52 L 50 48"" stroke=""black"" stroke-width="".5""/> <path d=""M 52 50 L 48 50"" stroke=""black"" stroke-width="".5""/>","null","","","","","","","",""
"","html-keyboard-response","131","331885","0.0-6.0-1.0-1.1-0.1","phdnjr9g08","green","null","","","","","","<p style=""color: black; text-align:center; font-family: BACS1; font-size:1000%;"">n</p>","null","","","","","","","",""
"","html-keyboard-response","132","332398","0.0-6.0-1.0-1.1-1.1","phdnjr9g08","green","null","","","","","","<p style=""color: black; text-align:center; font-family: BACS2; font-size:1000%;"">d</p>","null","","","","","","","",""
"","html-keyboard-response","133","332904","0.0-6.0-1.0-1.1-2.1","phdnjr9g08","green","null","","","","","","<p style=""color: black; text-align:center; font-family: BACS1; font-size:1000%;"">f</p>","null","","","","","","","",""
"","html-keyboard-response","134","333416","0.0-6.0-1.0-1.1-3.1","phdnjr9g08","green","null","","","","","","<svg xmlns=""http://www.w3.org/2000/svg"" width=""500"" height=""500"" viewBox=""-5 -5 20 20""> <rect x=""0"" y=""0"" width=""10"" height=""10"" /><path fill=""#FFF"" d=""M 0,1 H 10 v 1 H 0 z m 0,2 H 10 v 1 H 0 zm 0,2 H 10 v 1 H 0 zm 0,2 H 10 v 1 H 0 zm 0,2 H 10 v 1 H 0 zM 1,0 V 10 h 1 V 0 zm 2,0 V 10 h 1 V 0 zm 2,0 V 10 h 1 V 0 zm 2,0 V 10 h 1 V 0 zm 2,0 V 10 h 1 V 0 z""/></svg>","null","","","","","","","",""
"","html-keyboard-response","135","334413","0.0-6.0-1.0-1.1-4.1","phdnjr9g08","green","996","","","","","","<p style=""color: black; text-align:center; font-family: BACS2; font-size:1000%;"">d</p>","90","RSVPtraining","","2nd","","true","","",""
"","html-keyboard-response","136","335927","0.0-6.0-1.0-2.1","phdnjr9g08","green","null","","","","","","<p style=""font-size:300%;"">Correct!</p>","null","","","","","","","",""
"","html-keyboard-response","137","337542","0.0-6.0-1.0-0.2","phdnjr9g08","green","null","","","","","","<svg viewBox=""0 0 100 100"" > <path d=""M 50 52 L 50 48"" stroke=""black"" stroke-width="".5""/> <path d=""M 52 50 L 48 50"" stroke=""black"" stroke-width="".5""/>","null","","","","","","","",""
"","html-keyboard-response","138","338051","0.0-6.0-1.0-1.2-0.2","phdnjr9g08","green","null","","","","","","<p style=""color: black; text-align:center; font-family: BACS2; font-size:1000%;"">z</p>","null","","","","","","","",""
"","html-keyboard-response","139","338558","0.0-6.0-1.0-1.2-1.2","phdnjr9g08","green","null","","","","","","<p style=""color: black; text-align:center; font-family: BACS2; font-size:1000%;"">V</p>","null","","","","","","","",""
"","html-keyboard-response","140","339063","0.0-6.0-1.0-1.2-2.2","phdnjr9g08","green","null","","","","","","<p style=""color: black; text-align:center; font-family: BACS1; font-size:1000%;"">H</p>","null","","","","","","","",""
"","html-keyboard-response","141","339571","0.0-6.0-1.0-1.2-3.2","phdnjr9g08","green","null","","","","","","<svg xmlns=""http://www.w3.org/2000/svg"" width=""500"" height=""500"" viewBox=""-5 -5 20 20""> <rect x=""0"" y=""0"" width=""10"" height=""10"" /><path fill=""#FFF"" d=""M 0,1 H 10 v 1 H 0 z m 0,2 H 10 v 1 H 0 zm 0,2 H 10 v 1 H 0 zm 0,2 H 10 v 1 H 0 zm 0,2 H 10 v 1 H 0 zM 1,0 V 10 h 1 V 0 zm 2,0 V 10 h 1 V 0 zm 2,0 V 10 h 1 V 0 zm 2,0 V 10 h 1 V 0 zm 2,0 V 10 h 1 V 0 z""/></svg>","null","","","","","","","",""
"","html-keyboard-response","142","339985","0.0-6.0-1.0-1.2-4.2","phdnjr9g08","green","413","","","","","","<p style=""color: black; text-align:center; font-family: BACS1; font-size:1000%;"">H</p>","90","RSVPtraining","","3rd","","true","","",""
"","html-keyboard-response","143","341495","0.0-6.0-1.0-2.2","phdnjr9g08","green","null","","","","","","<p style=""font-size:300%;"">Correct!</p>","null","","","","","","","",""
"","html-keyboard-response","144","343115","0.0-6.0-1.0-0.3","phdnjr9g08","green","null","","","","","","<svg viewBox=""0 0 100 100"" > <path d=""M 50 52 L 50 48"" stroke=""black"" stroke-width="".5""/> <path d=""M 52 50 L 48 50"" stroke=""black"" stroke-width="".5""/>","null","","","","","","","",""
"","html-keyboard-response","145","343623","0.0-6.0-1.0-1.3-0.3","phdnjr9g08","green","null","","","","","","<p style=""color: black; text-align:center; font-family: BACS2; font-size:1000%;"">S</p>","null","","","","","","","",""
"","html-keyboard-response","146","344132","0.0-6.0-1.0-1.3-1.3","phdnjr9g08","green","null","","","","","","<p style=""color: black; text-align:center; font-family: BACS2; font-size:1000%;"">B</p>","null","","","","","","","",""
"","html-keyboard-response","147","344647","0.0-6.0-1.0-1.3-2.3","phdnjr9g08","green","null","","","","","","<p style=""color: black; text-align:center; font-family: BACS1; font-size:1000%;"">f</p>","null","","","","","","","",""
"","html-keyboard-response","148","345156","0.0-6.0-1.0-1.3-3.3","phdnjr9g08","green","null","","","","","","<svg xmlns=""http://www.w3.org/2000/svg"" width=""500"" height=""500"" viewBox=""-5 -5 20 20""> <rect x=""0"" y=""0"" width=""10"" height=""10"" /><path fill=""#FFF"" d=""M 0,1 H 10 v 1 H 0 z m 0,2 H 10 v 1 H 0 zm 0,2 H 10 v 1 H 0 zm 0,2 H 10 v 1 H 0 zm 0,2 H 10 v 1 H 0 zM 1,0 V 10 h 1 V 0 zm 2,0 V 10 h 1 V 0 zm 2,0 V 10 h 1 V 0 zm 2,0 V 10 h 1 V 0 zm 2,0 V 10 h 1 V 0 z""/></svg>","null","","","","","","","",""
"","html-keyboard-response","149","345955","0.0-6.0-1.0-1.3-4.3","phdnjr9g08","green","798","","","","","","<p style=""color: black; text-align:center; font-family: BACS1; font-size:1000%;"">l</p>","77","RSVPtraining","","new","","true","","",""
"","html-keyboard-response","150","347458","0.0-6.0-1.0-2.3","phdnjr9g08","green","null","","","","","","<p style=""font-size:300%;"">Correct!</p>","null","","","","","","","",""
"","html-keyboard-response","151","349069","0.0-6.0-1.0-0.4","phdnjr9g08","green","null","","","","","","<svg viewBox=""0 0 100 100"" > <path d=""M 50 52 L 50 48"" stroke=""black"" stroke-width="".5""/> <path d=""M 52 50 L 48 50"" stroke=""black"" stroke-width="".5""/>","null","","","","","","","",""
"","html-keyboard-response","152","349580","0.0-6.0-1.0-1.4-0.4","phdnjr9g08","green","null","","","","","","<p style=""color: black; text-align:center; font-family: BACS1; font-size:1000%;"">O</p>","null","","","","","","","",""
"","html-keyboard-response","153","350091","0.0-6.0-1.0-1.4-1.4","phdnjr9g08","green","null","","","","","","<p style=""color: black; text-align:center; font-family: BACS2; font-size:1000%;"">l</p>","null","","","","","","","",""
"","html-keyboard-response","154","350597","0.0-6.0-1.0-1.4-2.4","phdnjr9g08","green","null","","","","","","<p style=""color: black; text-align:center; font-family: BACS1; font-size:1000%;"">T</p>","null","","","","","","","",""
"","html-keyboard-response","155","351108","0.0-6.0-1.0-1.4-3.4","phdnjr9g08","green","null","","","","","","<svg xmlns=""http://www.w3.org/2000/svg"" width=""500"" height=""500"" viewBox=""-5 -5 20 20""> <rect x=""0"" y=""0"" width=""10"" height=""10"" /><path fill=""#FFF"" d=""M 0,1 H 10 v 1 H 0 z m 0,2 H 10 v 1 H 0 zm 0,2 H 10 v 1 H 0 zm 0,2 H 10 v 1 H 0 zm 0,2 H 10 v 1 H 0 zM 1,0 V 10 h 1 V 0 zm 2,0 V 10 h 1 V 0 zm 2,0 V 10 h 1 V 0 zm 2,0 V 10 h 1 V 0 zm 2,0 V 10 h 1 V 0 z""/></svg>","null","","","","","","","",""
"","html-keyboard-response","156","352366","0.0-6.0-1.0-1.4-4.4","phdnjr9g08","green","1256","","","","","","<p style=""color: black; text-align:center; font-family: BACS1; font-size:1000%;"">V</p>","77","RSVPtraining","","new","","true","","",""
"","html-keyboard-response","157","353872","0.0-6.0-1.0-2.4","phdnjr9g08","green","null","","","","","","<p style=""font-size:300%;"">Correct!</p>","null","","","","","","","",""
"","html-keyboard-response","158","355476","0.0-6.0-1.0-0.5","phdnjr9g08","green","null","","","","","","<svg viewBox=""0 0 100 100"" > <path d=""M 50 52 L 50 48"" stroke=""black"" stroke-width="".5""/> <path d=""M 52 50 L 48 50"" stroke=""black"" stroke-width="".5""/>","null","","","","","","","",""
"","html-keyboard-response","159","355983","0.0-6.0-1.0-1.5-0.5","phdnjr9g08","green","null","","","","","","<p style=""color: black; text-align:center; font-family: BACS1; font-size:1000%;"">o</p>","null","","","","","","","",""
"","html-keyboard-response","160","356491","0.0-6.0-1.0-1.5-1.5","phdnjr9g08","green","null","","","","","","<p style=""color: black; text-align:center; font-family: BACS2; font-size:1000%;"">W</p>","null","","","","","","","",""
"","html-keyboard-response","161","357005","0.0-6.0-1.0-1.5-2.5","phdnjr9g08","green","null","","","","","","<p style=""color: black; text-align:center; font-family: BACS2; font-size:1000%;"">Q</p>","null","","","","","","","",""
"","html-keyboard-response","162","357509","0.0-6.0-1.0-1.5-3.5","phdnjr9g08","green","null","","","","","","<svg xmlns=""http://www.w3.org/2000/svg"" width=""500"" height=""500"" viewBox=""-5 -5 20 20""> <rect x=""0"" y=""0"" width=""10"" height=""10"" /><path fill=""#FFF"" d=""M 0,1 H 10 v 1 H 0 z m 0,2 H 10 v 1 H 0 zm 0,2 H 10 v 1 H 0 zm 0,2 H 10 v 1 H 0 zm 0,2 H 10 v 1 H 0 zM 1,0 V 10 h 1 V 0 zm 2,0 V 10 h 1 V 0 zm 2,0 V 10 h 1 V 0 zm 2,0 V 10 h 1 V 0 zm 2,0 V 10 h 1 V 0 z""/></svg>","null","","","","","","","",""
"","html-keyboard-response","163","358337","0.0-6.0-1.0-1.5-4.5","phdnjr9g08","green","826","","","","","","<p style=""color: black; text-align:center; font-family: BACS2; font-size:1000%;"">A</p>","77","RSVPtraining","","new","","true","","",""
"","html-keyboard-response","164","359850","0.0-6.0-1.0-2.5","phdnjr9g08","green","null","","","","","","<p style=""font-size:300%;"">Correct!</p>","null","","","","","","","",""
"","html-keyboard-response","165","361448","0.0-6.0-1.0-0.6","phdnjr9g08","green","null","","","","","","<svg viewBox=""0 0 100 100"" > <path d=""M 50 52 L 50 48"" stroke=""black"" stroke-width="".5""/> <path d=""M 52 50 L 48 50"" stroke=""black"" stroke-width="".5""/>","null","","","","","","","",""
"","html-keyboard-response","166","361956","0.0-6.0-1.0-1.6-0.6","phdnjr9g08","green","null","","","","","","<p style=""color: black; text-align:center; font-family: BACS1; font-size:1000%;"">S</p>","null","","","","","","","",""
"","html-keyboard-response","167","362467","0.0-6.0-1.0-1.6-1.6","phdnjr9g08","green","null","","","","","","<p style=""color: black; text-align:center; font-family: BACS2; font-size:1000%;"">Z</p>","null","","","","","","","",""
"","html-keyboard-response","168","362976","0.0-6.0-1.0-1.6-2.6","phdnjr9g08","green","null","","","","","","<p style=""color: black; text-align:center; font-family: BACS1; font-size:1000%;"">s</p>","null","","","","","","","",""
"","html-keyboard-response","169","363486","0.0-6.0-1.0-1.6-3.6","phdnjr9g08","green","null","","","","","","<svg xmlns=""http://www.w3.org/2000/svg"" width=""500"" height=""500"" viewBox=""-5 -5 20 20""> <rect x=""0"" y=""0"" width=""10"" height=""10"" /><path fill=""#FFF"" d=""M 0,1 H 10 v 1 H 0 z m 0,2 H 10 v 1 H 0 zm 0,2 H 10 v 1 H 0 zm 0,2 H 10 v 1 H 0 zm 0,2 H 10 v 1 H 0 zM 1,0 V 10 h 1 V 0 zm 2,0 V 10 h 1 V 0 zm 2,0 V 10 h 1 V 0 zm 2,0 V 10 h 1 V 0 zm 2,0 V 10 h 1 V 0 z""/></svg>","null","","","","","","","",""
"","html-keyboard-response","170","364407","0.0-6.0-1.0-1.6-4.6","phdnjr9g08","green","922","","","","","","<p style=""color: black; text-align:center; font-family: BACS1; font-size:1000%;"">S</p>","90","RSVPtraining","","1st","","true","","",""
"","html-keyboard-response","171","365911","0.0-6.0-1.0-2.6","phdnjr9g08","green","null","","","","","","<p style=""font-size:300%;"">Correct!</p>","null","","","","","","","",""
"","html-keyboard-response","172","367529","0.0-6.0-1.0-0.7","phdnjr9g08","green","null","","","","","","<svg viewBox=""0 0 100 100"" > <path d=""M 50 52 L 50 48"" stroke=""black"" stroke-width="".5""/> <path d=""M 52 50 L 48 50"" stroke=""black"" stroke-width="".5""/>","null","","","","","","","",""
"","html-keyboard-response","173","368042","0.0-6.0-1.0-1.7-0.7","phdnjr9g08","green","null","","","","","","<p style=""color: black; text-align:center; font-family: BACS1; font-size:1000%;"">l</p>","null","","","","","","","",""
"","html-keyboard-response","174","368543","0.0-6.0-1.0-1.7-1.7","phdnjr9g08","green","null","","","","","","<p style=""color: black; text-align:center; font-family: BACS1; font-size:1000%;"">a</p>","null","","","","","","","",""
"","html-keyboard-response","175","369051","0.0-6.0-1.0-1.7-2.7","phdnjr9g08","green","null","","","","","","<p style=""color: black; text-align:center; font-family: BACS1; font-size:1000%;"">O</p>","null","","","","","","","",""
"","html-keyboard-response","176","369561","0.0-6.0-1.0-1.7-3.7","phdnjr9g08","green","null","","","","","","<svg xmlns=""http://www.w3.org/2000/svg"" width=""500"" height=""500"" viewBox=""-5 -5 20 20""> <rect x=""0"" y=""0"" width=""10"" height=""10"" /><path fill=""#FFF"" d=""M 0,1 H 10 v 1 H 0 z m 0,2 H 10 v 1 H 0 zm 0,2 H 10 v 1 H 0 zm 0,2 H 10 v 1 H 0 zm 0,2 H 10 v 1 H 0 zM 1,0 V 10 h 1 V 0 zm 2,0 V 10 h 1 V 0 zm 2,0 V 10 h 1 V 0 zm 2,0 V 10 h 1 V 0 zm 2,0 V 10 h 1 V 0 z""/></svg>","null","","","","","","","",""
"","html-keyboard-response","177","370399","0.0-6.0-1.0-1.7-4.7","phdnjr9g08","green","839","","","","","","<p style=""color: black; text-align:center; font-family: BACS1; font-size:1000%;"">l</p>","77","RSVPtraining","","1st","","false","","",""
"","html-keyboard-response","178","371910","0.0-6.0-1.0-2.7","phdnjr9g08","green","null","","","","","","<p style=""font-size:300%;"">Miss.</p> <p style=""font-size:300%;"">Wrong response.</p>","null","","","","","","","",""
"","html-keyboard-response","179","373524","0.0-6.0-1.0-0.8","phdnjr9g08","green","null","","","","","","<svg viewBox=""0 0 100 100"" > <path d=""M 50 52 L 50 48"" stroke=""black"" stroke-width="".5""/> <path d=""M 52 50 L 48 50"" stroke=""black"" stroke-width="".5""/>","null","","","","","","","",""
"","html-keyboard-response","180","374031","0.0-6.0-1.0-1.8-0.8","phdnjr9g08","green","null","","","","","","<p style=""color: black; text-align:center; font-family: BACS1; font-size:1000%;"">l</p>","null","","","","","","","",""
"","html-keyboard-response","181","374538","0.0-6.0-1.0-1.8-1.8","phdnjr9g08","green","null","","","","","","<p style=""color: black; text-align:center; font-family: BACS2; font-size:1000%;"">t</p>","null","","","","","","","",""
"","html-keyboard-response","182","375044","0.0-6.0-1.0-1.8-2.8","phdnjr9g08","green","null","","","","","","<p style=""color: black; text-align:center; font-family: BACS1; font-size:1000%;"">C</p>","null","","","","","","","",""
"","html-keyboard-response","183","375555","0.0-6.0-1.0-1.8-3.8","phdnjr9g08","green","null","","","","","","<svg xmlns=""http://www.w3.org/2000/svg"" width=""500"" height=""500"" viewBox=""-5 -5 20 20""> <rect x=""0"" y=""0"" width=""10"" height=""10"" /><path fill=""#FFF"" d=""M 0,1 H 10 v 1 H 0 z m 0,2 H 10 v 1 H 0 zm 0,2 H 10 v 1 H 0 zm 0,2 H 10 v 1 H 0 zm 0,2 H 10 v 1 H 0 zM 1,0 V 10 h 1 V 0 zm 2,0 V 10 h 1 V 0 zm 2,0 V 10 h 1 V 0 zm 2,0 V 10 h 1 V 0 zm 2,0 V 10 h 1 V 0 z""/></svg>","null","","","","","","","",""
"","html-keyboard-response","184","375875","0.0-6.0-1.0-1.8-4.8","phdnjr9g08","green","319","","","","","","<p style=""color: black; text-align:center; font-family: BACS2; font-size:1000%;"">r</p>","90","RSVPtraining","","new","","false","","",""
"","html-keyboard-response","185","377389","0.0-6.0-1.0-2.8","phdnjr9g08","green","null","","","","","","<p style=""font-size:300%;"">Miss.</p> <p style=""font-size:300%;"">Wrong response.</p>","null","","","","","","","",""
"","html-keyboard-response","186","378995","0.0-6.0-1.0-0.9","phdnjr9g08","green","null","","","","","","<svg viewBox=""0 0 100 100"" > <path d=""M 50 52 L 50 48"" stroke=""black"" stroke-width="".5""/> <path d=""M 52 50 L 48 50"" stroke=""black"" stroke-width="".5""/>","null","","","","","","","",""
"","html-keyboard-response","187","379505","0.0-6.0-1.0-1.9-0.9","phdnjr9g08","green","null","","","","","","<p style=""color: black; text-align:center; font-family: BACS1; font-size:1000%;"">I</p>","null","","","","","","","",""
"","html-keyboard-response","188","380015","0.0-6.0-1.0-1.9-1.9","phdnjr9g08","green","null","","","","","","<p style=""color: black; text-align:center; font-family: BACS2; font-size:1000%;"">J</p>","null","","","","","","","",""
"","html-keyboard-response","189","380526","0.0-6.0-1.0-1.9-2.9","phdnjr9g08","green","null","","","","","","<p style=""color: black; text-align:center; font-family: BACS2; font-size:1000%;"">L</p>","null","","","","","","","",""
"","html-keyboard-response","190","381035","0.0-6.0-1.0-1.9-3.9","phdnjr9g08","green","null","","","","","","<svg xmlns=""http://www.w3.org/2000/svg"" width=""500"" height=""500"" viewBox=""-5 -5 20 20""> <rect x=""0"" y=""0"" width=""10"" height=""10"" /><path fill=""#FFF"" d=""M 0,1 H 10 v 1 H 0 z m 0,2 H 10 v 1 H 0 zm 0,2 H 10 v 1 H 0 zm 0,2 H 10 v 1 H 0 zm 0,2 H 10 v 1 H 0 zM 1,0 V 10 h 1 V 0 zm 2,0 V 10 h 1 V 0 zm 2,0 V 10 h 1 V 0 zm 2,0 V 10 h 1 V 0 zm 2,0 V 10 h 1 V 0 z""/></svg>","null","","","","","","","",""
"","html-keyboard-response","191","381918","0.0-6.0-1.0-1.9-4.9","phdnjr9g08","green","882","","","","","","<p style=""color: black; text-align:center; font-family: BACS2; font-size:1000%;"">B</p>","77","RSVPtraining","","new","","true","","",""
"","html-keyboard-response","192","383419","0.0-6.0-1.0-2.9","phdnjr9g08","green","null","","","","","","<p style=""font-size:300%;"">Correct!</p>","null","","","","","","","",""
"","html-keyboard-response","193","387788","0.0-6.0-2.0","phdnjr9g08","green","3365","","","","","","<p>You have now finished the training exercise. If you would like to repeat the instructions and training exercise, press r to repeat this trial or press c if you would like to continue.</p>","67","","","","","","","",""
"","html-keyboard-response","194","389794","0.0-7.0-0.0","phdnjr9g08","green","null","","","","","","<p>Place your fingers on the z and m keys. The experiment will continue shortly.</p><p>&nbsp</p>","null","","","","","","","",""
"","html-keyboard-response","195","390794","0.0-7.0-1.0","phdnjr9g08","green","null","","","","","","<p>Place your fingers on the z and m keys. The experiment will continue shortly.</p><p>3</p>","null","","","","","","","",""
"","html-keyboard-response","196","391809","0.0-7.0-2.0","phdnjr9g08","green","null","","","","","","<p>Place your fingers on the z and m keys. The experiment will continue shortly.</p><p>2</p>","null","","","","","","","",""
"","html-keyboard-response","197","392811","0.0-7.0-3.0","phdnjr9g08","green","null","","","","","","<p>Place your fingers on the z and m keys. The experiment will continue shortly.</p><p>1</p>","null","","","","","","","",""
"","html-keyboard-response","198","393416","0.0-8.0-0.0","phdnjr9g08","green","null","","","","","","<svg viewBox=""0 0 100 100"" > <path d=""M 50 52 L 50 48"" stroke=""black"" stroke-width="".5""/> <path d=""M 52 50 L 48 50"" stroke=""black"" stroke-width="".5""/>","null","","","","","","","",""
"","html-keyboard-response","199","393929","0.0-8.0-1.0-0.0","phdnjr9g08","green","null","","","","","","<p style=""color: black; text-align:center; font-family: BACS2; font-size:1000%;"">R</p>","null","","","","","","","",""
"","html-keyboard-response","200","394438","0.0-8.0-1.0-1.0","phdnjr9g08","green","null","","","","","","<p style=""color: green; text-align:center; font-family: BACS2; font-size:1000%;"">b</p>","null","","","","","","","",""
"","html-keyboard-response","201","394950","0.0-8.0-1.0-2.0","phdnjr9g08","green","null","","","","","","<p style=""color: black; text-align:center; font-family: BACS2; font-size:1000%;"">r</p>","null","","","","","","","",""
"","html-keyboard-response","202","395459","0.0-8.0-1.0-3.0","phdnjr9g08","green","null","","","","","","<svg xmlns=""http://www.w3.org/2000/svg"" width=""500"" height=""500"" viewBox=""-5 -5 20 20""> <rect x=""0"" y=""0"" width=""10"" height=""10"" /><path fill=""#FFF"" d=""M 0,1 H 10 v 1 H 0 z m 0,2 H 10 v 1 H 0 zm 0,2 H 10 v 1 H 0 zm 0,2 H 10 v 1 H 0 zm 0,2 H 10 v 1 H 0 zM 1,0 V 10 h 1 V 0 zm 2,0 V 10 h 1 V 0 zm 2,0 V 10 h 1 V 0 zm 2,0 V 10 h 1 V 0 zm 2,0 V 10 h 1 V 0 z""/></svg>","null","","","","","","","",""
"","html-keyboard-response","203","396311","0.0-8.0-1.0-4.0","phdnjr9g08","green","851","","","","","","<p style=""color: black; text-align:center; font-family: BACS2; font-size:1000%;"">b</p>","77","RSVPtest","green","2nd","","false","","","2nd"
"","html-keyboard-response","204","397812","0.0-8.0-2.0","phdnjr9g08","green","null","","","","","","<p style=""font-size:300%;"">Miss.</p>","null","","","","","","","",""
"","html-keyboard-response","205","399418","0.0-8.0-0.1","phdnjr9g08","green","null","","","","","","<svg viewBox=""0 0 100 100"" > <path d=""M 50 52 L 50 48"" stroke=""black"" stroke-width="".5""/> <path d=""M 52 50 L 48 50"" stroke=""black"" stroke-width="".5""/>","null","","","","","","","",""
"","html-keyboard-response","206","399922","0.0-8.0-1.1-0.1","phdnjr9g08","green","null","","","","","","<p style=""color: black; text-align:center; font-family: BACS1; font-size:1000%;"">G</p>","null","","","","","","","",""
"","html-keyboard-response","207","400433","0.0-8.0-1.1-1.1","phdnjr9g08","green","null","","","","","","<p style=""color: black; text-align:center; font-family: BACS1; font-size:1000%;"">y</p>","null","","","","","","","",""
"","html-keyboard-response","208","400945","0.0-8.0-1.1-2.1","phdnjr9g08","green","null","","","","","","<p style=""color: red; text-align:center; font-family: BACS1; font-size:1000%;"">D</p>","null","","","","","","","",""
"","html-keyboard-response","209","401454","0.0-8.0-1.1-3.1","phdnjr9g08","green","null","","","","","","<svg xmlns=""http://www.w3.org/2000/svg"" width=""500"" height=""500"" viewBox=""-5 -5 20 20""> <rect x=""0"" y=""0"" width=""10"" height=""10"" /><path fill=""#FFF"" d=""M 0,1 H 10 v 1 H 0 z m 0,2 H 10 v 1 H 0 zm 0,2 H 10 v 1 H 0 zm 0,2 H 10 v 1 H 0 zm 0,2 H 10 v 1 H 0 zM 1,0 V 10 h 1 V 0 zm 2,0 V 10 h 1 V 0 zm 2,0 V 10 h 1 V 0 zm 2,0 V 10 h 1 V 0 zm 2,0 V 10 h 1 V 0 z""/></svg>","null","","","","","","","",""
"","html-keyboard-response","210","402452","0.0-8.0-1.1-4.1","phdnjr9g08","green","999","","","","","","<p style=""color: black; text-align:center; font-family: BACS1; font-size:1000%;"">G</p>","90","RSVPtest","red","1st","","true","","","3rd"
"","html-keyboard-response","211","403960","0.0-8.0-2.1","phdnjr9g08","green","null","","","","","","<p style=""font-size:300%;"">Correct!</p>","null","","","","","","","",""
"","html-keyboard-response","212","405564","0.0-8.0-0.2","phdnjr9g08","green","null","","","","","","<svg viewBox=""0 0 100 100"" > <path d=""M 50 52 L 50 48"" stroke=""black"" stroke-width="".5""/> <path d=""M 52 50 L 48 50"" stroke=""black"" stroke-width="".5""/>","null","","","","","","","",""
"","html-keyboard-response","213","406072","0.0-8.0-1.2-0.2","phdnjr9g08","green","null","","","","","","<p style=""color: red; text-align:center; font-family: BACS1; font-size:1000%;"">l</p>","null","","","","","","","",""
"","html-keyboard-response","214","406583","0.0-8.0-1.2-1.2","phdnjr9g08","green","null","","","","","","<p style=""color: black; text-align:center; font-family: BACS2; font-size:1000%;"">s</p>","null","","","","","","","",""
"","html-keyboard-response","215","407095","0.0-8.0-1.2-2.2","phdnjr9g08","green","null","","","","","","<p style=""color: black; text-align:center; font-family: BACS2; font-size:1000%;"">O</p>","null","","","","","","","",""
"","html-keyboard-response","216","407600","0.0-8.0-1.2-3.2","phdnjr9g08","green","null","","","","","","<svg xmlns=""http://www.w3.org/2000/svg"" width=""500"" height=""500"" viewBox=""-5 -5 20 20""> <rect x=""0"" y=""0"" width=""10"" height=""10"" /><path fill=""#FFF"" d=""M 0,1 H 10 v 1 H 0 z m 0,2 H 10 v 1 H 0 zm 0,2 H 10 v 1 H 0 zm 0,2 H 10 v 1 H 0 zm 0,2 H 10 v 1 H 0 zM 1,0 V 10 h 1 V 0 zm 2,0 V 10 h 1 V 0 zm 2,0 V 10 h 1 V 0 zm 2,0 V 10 h 1 V 0 zm 2,0 V 10 h 1 V 0 z""/></svg>","null","","","","","","","",""
"","html-keyboard-response","217","408205","0.0-8.0-1.2-4.2","phdnjr9g08","green","605","","","","","","<p style=""color: black; text-align:center; font-family: BACS1; font-size:1000%;"">l</p>","90","RSVPtest","red","1st","","true","","","1st"
"","html-keyboard-response","218","409705","0.0-8.0-2.2","phdnjr9g08","green","null","","","","","","<p style=""font-size:300%;"">Correct!</p>","null","","","","","","","",""
"","html-keyboard-response","219","411307","0.0-8.0-0.3","phdnjr9g08","green","null","","","","","","<svg viewBox=""0 0 100 100"" > <path d=""M 50 52 L 50 48"" stroke=""black"" stroke-width="".5""/> <path d=""M 52 50 L 48 50"" stroke=""black"" stroke-width="".5""/>","null","","","","","","","",""
"","html-keyboard-response","220","411811","0.0-8.0-1.3-0.3","phdnjr9g08","green","null","","","","","","<p style=""color: black; text-align:center; font-family: BACS1; font-size:1000%;"">S</p>","null","","","","","","","",""
"","html-keyboard-response","221","412321","0.0-8.0-1.3-1.3","phdnjr9g08","green","null","","","","","","<p style=""color: black; text-align:center; font-family: BACS1; font-size:1000%;"">M</p>","null","","","","","","","",""
"","html-keyboard-response","222","412827","0.0-8.0-1.3-2.3","phdnjr9g08","green","null","","","","","","<p style=""color: black; text-align:center; font-family: BACS2; font-size:1000%;"">q</p>","null","","","","","","","",""
"","html-keyboard-response","223","413331","0.0-8.0-1.3-3.3","phdnjr9g08","green","null","","","","","","<svg xmlns=""http://www.w3.org/2000/svg"" width=""500"" height=""500"" viewBox=""-5 -5 20 20""> <rect x=""0"" y=""0"" width=""10"" height=""10"" /><path fill=""#FFF"" d=""M 0,1 H 10 v 1 H 0 z m 0,2 H 10 v 1 H 0 zm 0,2 H 10 v 1 H 0 zm 0,2 H 10 v 1 H 0 zm 0,2 H 10 v 1 H 0 zM 1,0 V 10 h 1 V 0 zm 2,0 V 10 h 1 V 0 zm 2,0 V 10 h 1 V 0 zm 2,0 V 10 h 1 V 0 zm 2,0 V 10 h 1 V 0 z""/></svg>","null","","","","","","","",""
"","html-keyboard-response","224","414103","0.0-8.0-1.3-4.3","phdnjr9g08","green","773","","","","","","<p style=""color: black; text-align:center; font-family: BACS1; font-size:1000%;"">M</p>","77","RSVPtest","green","2nd","","false","","","none"
"","html-keyboard-response","225","415604","0.0-8.0-2.3","phdnjr9g08","green","null","","","","","","<p style=""font-size:300%;"">Miss.</p>","null","","","","","","","",""
"","html-keyboard-response","226","417222","0.0-8.0-0.4","phdnjr9g08","green","null","","","","","","<svg viewBox=""0 0 100 100"" > <path d=""M 50 52 L 50 48"" stroke=""black"" stroke-width="".5""/> <path d=""M 52 50 L 48 50"" stroke=""black"" stroke-width="".5""/>","null","","","","","","","",""
"","html-keyboard-response","227","417726","0.0-8.0-1.4-0.4","phdnjr9g08","green","null","","","","","","<p style=""color: black; text-align:center; font-family: BACS1; font-size:1000%;"">c</p>","null","","","","","","","",""
"","html-keyboard-response","228","418240","0.0-8.0-1.4-1.4","phdnjr9g08","green","null","","","","","","<p style=""color: red; text-align:center; font-family: BACS1; font-size:1000%;"">s</p>","null","","","","","","","",""
"","html-keyboard-response","229","418749","0.0-8.0-1.4-2.4","phdnjr9g08","green","null","","","","","","<p style=""color: black; text-align:center; font-family: BACS1; font-size:1000%;"">g</p>","null","","","","","","","",""
