"success","trial_type","trial_index","time_elapsed","internal_node_id","subject","condition","rt","url","responses","question_order","value","view_history","stimulus","key_press","trialType","color","tgtPosition","orientation","correct","rewardType","reward","colorPosition"
"true","fullscreen","0","3911","0.0-0.0-0.0","o23884ukxg","red","","","","","","","","","","","","","","","",""
"","external-html","1","52469","0.0-0.0-1.0","o23884ukxg","red","48534","http://labs.psychology.illinois.edu/~jy57/memory_capture/supportFiles/Consent.html","","","","","","","","","","","","","",""
"","survey-text","2","58494","0.0-1.0-0.0","o23884ukxg","red","6022","","{""Q0"":""28"",""Q1"":""4""}","","","","","","","","","","","","",""
"","survey-multi-select","3","60840","0.0-1.0-1.0","o23884ukxg","red","2347","","{""Q0"":[""Asian""]}","[0]","","","","","","","","","","","",""
"","survey-multi-choice","4","65558","0.0-1.0-2.0","o23884ukxg","red","4717","","{""Q0"":""Female"",""Q1"":""No"",""Q2"":""Average""}","[0,1,2]","","","","","","","","","","","",""
"","call-function","5","65560","0.0-1.0-3.0","o23884ukxg","red","","","","","","","","","","","","","","","",""
"","instructions","6","95240","0.0-2.0-0.0","o23884ukxg","red","29682","","","","","[{""page_index"":0,""viewing_time"":15586},{""page_index"":1,""viewing_time"":6522},{""page_index"":2,""viewing_time"":2878},{""page_index"":3,""viewing_time"":4695}]","","","","","","","","","",""
"","html-keyboard-response","7","97242","0.0-2.0-1.0-0.0","o23884ukxg","red","null","","","","","","<p>Place your fingers on the z and m keys. The experiment will begin shortly.</p><p>&nbsp</p>","null","","","","","","","",""
"","html-keyboard-response","8","98247","0.0-2.0-1.0-1.0","o23884ukxg","red","null","","","","","","<p>Place your fingers on the z and m keys. The experiment will begin shortly.</p><p>3</p>","null","","","","","","","",""
"","html-keyboard-response","9","99247","0.0-2.0-1.0-2.0","o23884ukxg","red","null","","","","","","<p>Place your fingers on the z and m keys. The experiment will begin shortly.</p><p>2</p>","null","","","","","","","",""
"","html-keyboard-response","10","100250","0.0-2.0-1.0-3.0","o23884ukxg","red","null","","","","","","<p>Place your fingers on the z and m keys. The experiment will begin shortly.</p><p>1</p>","null","","","","","","","",""
"","html-keyboard-response","11","101064","0.0-2.0-2.0-0.0","o23884ukxg","red","null","","","","","","<svg viewBox=""0 0 100 100"" > <path d=""M 50 52 L 50 48"" stroke=""black"" stroke-width="".5""/> <path d=""M 52 50 L 48 50"" stroke=""black"" stroke-width="".5""/>","null","","","","","","","",""
"","html-keyboard-response","12","102066","0.0-2.0-2.0-1.0","o23884ukxg","red","null","","","","","","<svg viewBox=""0 0 100 100"" ><text font-size=""10%"" text-anchor=""middle""  x=""50"" y=""98"">Press z for horizontal or m for vertical</text><circle cx=""50"" cy=""50"" r=""10"" fill=""none"" transform=""translate( 26  15)"" stroke=""gold"" /><circle cx=""50"" cy=""50"" r=""10"" fill=""none"" transform=""translate(  0  30)"" stroke=""black"" /><circle cx=""50"" cy=""50"" r=""10"" fill=""none"" transform=""translate(-26  15)"" stroke=""green"" /><circle cx=""50"" cy=""50"" r=""10"" fill=""none"" transform=""translate(-26 -15)"" stroke=""magenta"" /><circle cx=""50"" cy=""50"" r=""10"" fill=""none"" transform=""translate(  0 -30)"" stroke=""cyan"" /><circle cx=""50"" cy=""50"" r=""10"" fill=""none"" transform=""translate( 26 -15)"" stroke=""blueviolet"" /><path d=""M 50 57 L 50 43"" stroke=""black"" transform=""translate( 26  15) rotate(45 50 50)""/><path d=""M 50 57 L 50 43"" stroke=""black"" transform=""translate(  0  30) rotate(45 50 50)""/><path d=""M 50 57 L 50 43"" stroke=""black"" transform=""translate(-26  15) rotate(0 50 50)""/><path d=""M 50 57 L 50 43"" stroke=""black"" transform=""translate(-26 -15) rotate(-45 50 50)""/><path d=""M 50 57 L 50 43"" stroke=""black"" transform=""translate(  0 -30) rotate(45 50 50)""/><path d=""M 50 57 L 50 43"" stroke=""black"" transform=""translate( 26 -15) rotate(-45 50 50)""/><path d=""M 50 52 L 50 48"" stroke=""black"" stroke-width="".5""/> <path d=""M 52 50 L 48 50"" stroke=""black"" stroke-width="".5""/></svg>","null","VDACtraining","green","2","vertical","null","","",""
"","html-keyboard-response","13","104570","0.0-2.0-2.0-2.0","o23884ukxg","red","null","","","","","","<p style=""font-size:300%;"">Miss.</p> <p style=""font-size:300%;"">Too slow.</p>","null","","","","","","","",""
"","html-keyboard-response","14","106385","0.0-2.0-2.0-0.1","o23884ukxg","red","null","","","","","","<svg viewBox=""0 0 100 100"" > <path d=""M 50 52 L 50 48"" stroke=""black"" stroke-width="".5""/> <path d=""M 52 50 L 48 50"" stroke=""black"" stroke-width="".5""/>","null","","","","","","","",""
"","html-keyboard-response","15","107044","0.0-2.0-2.0-1.1","o23884ukxg","red","659","","","","","","<svg viewBox=""0 0 100 100"" ><text font-size=""10%"" text-anchor=""middle""  x=""50"" y=""98"">Press z for horizontal or m for vertical</text><circle cx=""50"" cy=""50"" r=""10"" fill=""none"" transform=""translate( 26  15)"" stroke=""black"" /><circle cx=""50"" cy=""50"" r=""10"" fill=""none"" transform=""translate(  0  30)"" stroke=""blueviolet"" /><circle cx=""50"" cy=""50"" r=""10"" fill=""none"" transform=""translate(-26  15)"" stroke=""magenta"" /><circle cx=""50"" cy=""50"" r=""10"" fill=""none"" transform=""translate(-26 -15)"" stroke=""gold"" /><circle cx=""50"" cy=""50"" r=""10"" fill=""none"" transform=""translate(  0 -30)"" stroke=""cyan"" /><circle cx=""50"" cy=""50"" r=""10"" fill=""none"" transform=""translate( 26 -15)"" stroke=""red"" /><path d=""M 50 57 L 50 43"" stroke=""black"" transform=""translate( 26  15) rotate(45 50 50)""/><path d=""M 50 57 L 50 43"" stroke=""black"" transform=""translate(  0  30) rotate(-45 50 50)""/><path d=""M 50 57 L 50 43"" stroke=""black"" transform=""translate(-26  15) rotate(45 50 50)""/><path d=""M 50 57 L 50 43"" stroke=""black"" transform=""translate(-26 -15) rotate(45 50 50)""/><path d=""M 50 57 L 50 43"" stroke=""black"" transform=""translate(  0 -30) rotate(45 50 50)""/><path d=""M 50 57 L 50 43"" stroke=""black"" transform=""translate( 26 -15) rotate(0 50 50)""/><path d=""M 50 52 L 50 48"" stroke=""black"" stroke-width="".5""/> <path d=""M 52 50 L 48 50"" stroke=""black"" stroke-width="".5""/></svg>","77","VDACtraining","red","5","vertical","true","","",""
"","html-keyboard-response","16","109548","0.0-2.0-2.0-2.1","o23884ukxg","red","null","","","","","","<p style=""font-size:300%;"">Correct!</p>","null","","","","","","","",""
"","html-keyboard-response","17","111364","0.0-2.0-2.0-0.2","o23884ukxg","red","null","","","","","","<svg viewBox=""0 0 100 100"" > <path d=""M 50 52 L 50 48"" stroke=""black"" stroke-width="".5""/> <path d=""M 52 50 L 48 50"" stroke=""black"" stroke-width="".5""/>","null","","","","","","","",""
"","html-keyboard-response","18","112293","0.0-2.0-2.0-1.2","o23884ukxg","red","930","","","","","","<svg viewBox=""0 0 100 100"" ><text font-size=""10%"" text-anchor=""middle""  x=""50"" y=""98"">Press z for horizontal or m for vertical</text><circle cx=""50"" cy=""50"" r=""10"" fill=""none"" transform=""translate( 26  15)"" stroke=""gold"" /><circle cx=""50"" cy=""50"" r=""10"" fill=""none"" transform=""translate(  0  30)"" stroke=""blueviolet"" /><circle cx=""50"" cy=""50"" r=""10"" fill=""none"" transform=""translate(-26  15)"" stroke=""red"" /><circle cx=""50"" cy=""50"" r=""10"" fill=""none"" transform=""translate(-26 -15)"" stroke=""magenta"" /><circle cx=""50"" cy=""50"" r=""10"" fill=""none"" transform=""translate(  0 -30)"" stroke=""black"" /><circle cx=""50"" cy=""50"" r=""10"" fill=""none"" transform=""translate( 26 -15)"" stroke=""cyan"" /><path d=""M 50 57 L 50 43"" stroke=""black"" transform=""translate( 26  15) rotate(-45 50 50)""/><path d=""M 50 57 L 50 43"" stroke=""black"" transform=""translate(  0  30) rotate(-45 50 50)""/><path d=""M 50 57 L 50 43"" stroke=""black"" transform=""translate(-26  15) rotate(90 50 50)""/><path d=""M 50 57 L 50 43"" stroke=""black"" transform=""translate(-26 -15) rotate(45 50 50)""/><path d=""M 50 57 L 50 43"" stroke=""black"" transform=""translate(  0 -30) rotate(-45 50 50)""/><path d=""M 50 57 L 50 43"" stroke=""black"" transform=""translate( 26 -15) rotate(45 50 50)""/><path d=""M 50 52 L 50 48"" stroke=""black"" stroke-width="".5""/> <path d=""M 52 50 L 48 50"" stroke=""black"" stroke-width="".5""/></svg>","90","VDACtraining","red","2","horizontal","true","","",""
"","html-keyboard-response","19","114795","0.0-2.0-2.0-2.2","o23884ukxg","red","null","","","","","","<p style=""font-size:300%;"">Correct!</p>","null","","","","","","","",""
"","html-keyboard-response","20","116614","0.0-2.0-2.0-0.3","o23884ukxg","red","null","","","","","","<svg viewBox=""0 0 100 100"" > <path d=""M 50 52 L 50 48"" stroke=""black"" stroke-width="".5""/> <path d=""M 52 50 L 48 50"" stroke=""black"" stroke-width="".5""/>","null","","","","","","","",""
"","html-keyboard-response","21","117616","0.0-2.0-2.0-1.3","o23884ukxg","red","null","","","","","","<svg viewBox=""0 0 100 100"" ><text font-size=""10%"" text-anchor=""middle""  x=""50"" y=""98"">Press z for horizontal or m for vertical</text><circle cx=""50"" cy=""50"" r=""10"" fill=""none"" transform=""translate( 26  15)"" stroke=""gold"" /><circle cx=""50"" cy=""50"" r=""10"" fill=""none"" transform=""translate(  0  30)"" stroke=""magenta"" /><circle cx=""50"" cy=""50"" r=""10"" fill=""none"" transform=""translate(-26  15)"" stroke=""blueviolet"" /><circle cx=""50"" cy=""50"" r=""10"" fill=""none"" transform=""translate(-26 -15)"" stroke=""cyan"" /><circle cx=""50"" cy=""50"" r=""10"" fill=""none"" transform=""translate(  0 -30)"" stroke=""black"" /><circle cx=""50"" cy=""50"" r=""10"" fill=""none"" transform=""translate( 26 -15)"" stroke=""green"" /><path d=""M 50 57 L 50 43"" stroke=""black"" transform=""translate( 26  15) rotate(-45 50 50)""/><path d=""M 50 57 L 50 43"" stroke=""black"" transform=""translate(  0  30) rotate(-45 50 50)""/><path d=""M 50 57 L 50 43"" stroke=""black"" transform=""translate(-26  15) rotate(45 50 50)""/><path d=""M 50 57 L 50 43"" stroke=""black"" transform=""translate(-26 -15) rotate(-45 50 50)""/><path d=""M 50 57 L 50 43"" stroke=""black"" transform=""translate(  0 -30) rotate(45 50 50)""/><path d=""M 50 57 L 50 43"" stroke=""black"" transform=""translate( 26 -15) rotate(90 50 50)""/><path d=""M 50 52 L 50 48"" stroke=""black"" stroke-width="".5""/> <path d=""M 52 50 L 48 50"" stroke=""black"" stroke-width="".5""/></svg>","null","VDACtraining","green","5","horizontal","null","","",""
"","html-keyboard-response","22","120120","0.0-2.0-2.0-2.3","o23884ukxg","red","null","","","","","","<p style=""font-size:300%;"">Miss.</p> <p style=""font-size:300%;"">Too slow.</p>","null","","","","","","","",""
"","html-keyboard-response","23","121936","0.0-2.0-2.0-0.4","o23884ukxg","red","null","","","","","","<svg viewBox=""0 0 100 100"" > <path d=""M 50 52 L 50 48"" stroke=""black"" stroke-width="".5""/> <path d=""M 52 50 L 48 50"" stroke=""black"" stroke-width="".5""/>","null","","","","","","","",""
"","html-keyboard-response","24","122808","0.0-2.0-2.0-1.4","o23884ukxg","red","871","","","","","","<svg viewBox=""0 0 100 100"" ><text font-size=""10%"" text-anchor=""middle""  x=""50"" y=""98"">Press z for horizontal or m for vertical</text><circle cx=""50"" cy=""50"" r=""10"" fill=""none"" transform=""translate( 26  15)"" stroke=""black"" /><circle cx=""50"" cy=""50"" r=""10"" fill=""none"" transform=""translate(  0  30)"" stroke=""green"" /><circle cx=""50"" cy=""50"" r=""10"" fill=""none"" transform=""translate(-26  15)"" stroke=""magenta"" /><circle cx=""50"" cy=""50"" r=""10"" fill=""none"" transform=""translate(-26 -15)"" stroke=""cyan"" /><circle cx=""50"" cy=""50"" r=""10"" fill=""none"" transform=""translate(  0 -30)"" stroke=""blueviolet"" /><circle cx=""50"" cy=""50"" r=""10"" fill=""none"" transform=""translate( 26 -15)"" stroke=""gold"" /><path d=""M 50 57 L 50 43"" stroke=""black"" transform=""translate( 26  15) rotate(45 50 50)""/><path d=""M 50 57 L 50 43"" stroke=""black"" transform=""translate(  0  30) rotate(90 50 50)""/><path d=""M 50 57 L 50 43"" stroke=""black"" transform=""translate(-26  15) rotate(-45 50 50)""/><path d=""M 50 57 L 50 43"" stroke=""black"" transform=""translate(-26 -15) rotate(-45 50 50)""/><path d=""M 50 57 L 50 43"" stroke=""black"" transform=""translate(  0 -30) rotate(-45 50 50)""/><path d=""M 50 57 L 50 43"" stroke=""black"" transform=""translate( 26 -15) rotate(-45 50 50)""/><path d=""M 50 52 L 50 48"" stroke=""black"" stroke-width="".5""/> <path d=""M 52 50 L 48 50"" stroke=""black"" stroke-width="".5""/></svg>","77","VDACtraining","green","1","horizontal","false","","",""
"","html-keyboard-response","25","125309","0.0-2.0-2.0-2.4","o23884ukxg","red","null","","","","","","<p style=""font-size:300%;"">Miss.</p> <p style=""font-size:300%;"">Wrong response.</p>","null","","","","","","","",""
"","html-keyboard-response","26","127124","0.0-2.0-2.0-0.5","o23884ukxg","red","null","","","","","","<svg viewBox=""0 0 100 100"" > <path d=""M 50 52 L 50 48"" stroke=""black"" stroke-width="".5""/> <path d=""M 52 50 L 48 50"" stroke=""black"" stroke-width="".5""/>","null","","","","","","","",""
"","html-keyboard-response","27","128126","0.0-2.0-2.0-1.5","o23884ukxg","red","null","","","","","","<svg viewBox=""0 0 100 100"" ><text font-size=""10%"" text-anchor=""middle""  x=""50"" y=""98"">Press z for horizontal or m for vertical</text><circle cx=""50"" cy=""50"" r=""10"" fill=""none"" transform=""translate( 26  15)"" stroke=""black"" /><circle cx=""50"" cy=""50"" r=""10"" fill=""none"" transform=""translate(  0  30)"" stroke=""gold"" /><circle cx=""50"" cy=""50"" r=""10"" fill=""none"" transform=""translate(-26  15)"" stroke=""cyan"" /><circle cx=""50"" cy=""50"" r=""10"" fill=""none"" transform=""translate(-26 -15)"" stroke=""red"" /><circle cx=""50"" cy=""50"" r=""10"" fill=""none"" transform=""translate(  0 -30)"" stroke=""magenta"" /><circle cx=""50"" cy=""50"" r=""10"" fill=""none"" transform=""translate( 26 -15)"" stroke=""blueviolet"" /><path d=""M 50 57 L 50 43"" stroke=""black"" transform=""translate( 26  15) rotate(-45 50 50)""/><path d=""M 50 57 L 50 43"" stroke=""black"" transform=""translate(  0  30) rotate(45 50 50)""/><path d=""M 50 57 L 50 43"" stroke=""black"" transform=""translate(-26  15) rotate(45 50 50)""/><path d=""M 50 57 L 50 43"" stroke=""black"" transform=""translate(-26 -15) rotate(0 50 50)""/><path d=""M 50 57 L 50 43"" stroke=""black"" transform=""translate(  0 -30) rotate(45 50 50)""/><path d=""M 50 57 L 50 43"" stroke=""black"" transform=""translate( 26 -15) rotate(-45 50 50)""/><path d=""M 50 52 L 50 48"" stroke=""black"" stroke-width="".5""/> <path d=""M 52 50 L 48 50"" stroke=""black"" stroke-width="".5""/></svg>","null","VDACtraining","red","3","vertical","null","","",""
"","html-keyboard-response","28","130631","0.0-2.0-2.0-2.5","o23884ukxg","red","null","","","","","","<p style=""font-size:300%;"">Miss.</p> <p style=""font-size:300%;"">Too slow.</p>","null","","","","","","","",""
"","html-keyboard-response","29","132450","0.0-2.0-2.0-0.6","o23884ukxg","red","null","","","","","","<svg viewBox=""0 0 100 100"" > <path d=""M 50 52 L 50 48"" stroke=""black"" stroke-width="".5""/> <path d=""M 52 50 L 48 50"" stroke=""black"" stroke-width="".5""/>","null","","","","","","","",""
"","html-keyboard-response","30","133052","0.0-2.0-2.0-1.6","o23884ukxg","red","601","","","","","","<svg viewBox=""0 0 100 100"" ><text font-size=""10%"" text-anchor=""middle""  x=""50"" y=""98"">Press z for horizontal or m for vertical</text><circle cx=""50"" cy=""50"" r=""10"" fill=""none"" transform=""translate( 26  15)"" stroke=""gold"" /><circle cx=""50"" cy=""50"" r=""10"" fill=""none"" transform=""translate(  0  30)"" stroke=""black"" /><circle cx=""50"" cy=""50"" r=""10"" fill=""none"" transform=""translate(-26  15)"" stroke=""magenta"" /><circle cx=""50"" cy=""50"" r=""10"" fill=""none"" transform=""translate(-26 -15)"" stroke=""green"" /><circle cx=""50"" cy=""50"" r=""10"" fill=""none"" transform=""translate(  0 -30)"" stroke=""blueviolet"" /><circle cx=""50"" cy=""50"" r=""10"" fill=""none"" transform=""translate( 26 -15)"" stroke=""cyan"" /><path d=""M 50 57 L 50 43"" stroke=""black"" transform=""translate( 26  15) rotate(45 50 50)""/><path d=""M 50 57 L 50 43"" stroke=""black"" transform=""translate(  0  30) rotate(-45 50 50)""/><path d=""M 50 57 L 50 43"" stroke=""black"" transform=""translate(-26  15) rotate(-45 50 50)""/><path d=""M 50 57 L 50 43"" stroke=""black"" transform=""translate(-26 -15) rotate(90 50 50)""/><path d=""M 50 57 L 50 43"" stroke=""black"" transform=""translate(  0 -30) rotate(-45 50 50)""/><path d=""M 50 57 L 50 43"" stroke=""black"" transform=""translate( 26 -15) rotate(-45 50 50)""/><path d=""M 50 52 L 50 48"" stroke=""black"" stroke-width="".5""/> <path d=""M 52 50 L 48 50"" stroke=""black"" stroke-width="".5""/></svg>","77","VDACtraining","green","3","horizontal","false","","",""
"","html-keyboard-response","31","135555","0.0-2.0-2.0-2.6","o23884ukxg","red","null","","","","","","<p style=""font-size:300%;"">Miss.</p> <p style=""font-size:300%;"">Wrong response.</p>","null","","","","","","","",""
"","html-keyboard-response","32","137372","0.0-2.0-2.0-0.7","o23884ukxg","red","null","","","","","","<svg viewBox=""0 0 100 100"" > <path d=""M 50 52 L 50 48"" stroke=""black"" stroke-width="".5""/> <path d=""M 52 50 L 48 50"" stroke=""black"" stroke-width="".5""/>","null","","","","","","","",""
"","html-keyboard-response","33","138167","0.0-2.0-2.0-1.7","o23884ukxg","red","794","","","","","","<svg viewBox=""0 0 100 100"" ><text font-size=""10%"" text-anchor=""middle""  x=""50"" y=""98"">Press z for horizontal or m for vertical</text><circle cx=""50"" cy=""50"" r=""10"" fill=""none"" transform=""translate( 26  15)"" stroke=""green"" /><circle cx=""50"" cy=""50"" r=""10"" fill=""none"" transform=""translate(  0  30)"" stroke=""magenta"" /><circle cx=""50"" cy=""50"" r=""10"" fill=""none"" transform=""translate(-26  15)"" stroke=""cyan"" /><circle cx=""50"" cy=""50"" r=""10"" fill=""none"" transform=""translate(-26 -15)"" stroke=""black"" /><circle cx=""50"" cy=""50"" r=""10"" fill=""none"" transform=""translate(  0 -30)"" stroke=""gold"" /><circle cx=""50"" cy=""50"" r=""10"" fill=""none"" transform=""translate( 26 -15)"" stroke=""blueviolet"" /><path d=""M 50 57 L 50 43"" stroke=""black"" transform=""translate( 26  15) rotate(0 50 50)""/><path d=""M 50 57 L 50 43"" stroke=""black"" transform=""translate(  0  30) rotate(-45 50 50)""/><path d=""M 50 57 L 50 43"" stroke=""black"" transform=""translate(-26  15) rotate(45 50 50)""/><path d=""M 50 57 L 50 43"" stroke=""black"" transform=""translate(-26 -15) rotate(45 50 50)""/><path d=""M 50 57 L 50 43"" stroke=""black"" transform=""translate(  0 -30) rotate(45 50 50)""/><path d=""M 50 57 L 50 43"" stroke=""black"" transform=""translate( 26 -15) rotate(45 50 50)""/><path d=""M 50 52 L 50 48"" stroke=""black"" stroke-width="".5""/> <path d=""M 52 50 L 48 50"" stroke=""black"" stroke-width="".5""/></svg>","90","VDACtraining","green","0","vertical","false","","",""
"","html-keyboard-response","34","140672","0.0-2.0-2.0-2.7","o23884ukxg","red","null","","","","","","<p style=""font-size:300%;"">Miss.</p> <p style=""font-size:300%;"">Wrong response.</p>","null","","","","","","","",""
"","html-keyboard-response","35","142489","0.0-2.0-2.0-0.8","o23884ukxg","red","null","","","","","","<svg viewBox=""0 0 100 100"" > <path d=""M 50 52 L 50 48"" stroke=""black"" stroke-width="".5""/> <path d=""M 52 50 L 48 50"" stroke=""black"" stroke-width="".5""/>","null","","","","","","","",""
"","html-keyboard-response","36","143489","0.0-2.0-2.0-1.8","o23884ukxg","red","null","","","","","","<svg viewBox=""0 0 100 100"" ><text font-size=""10%"" text-anchor=""middle""  x=""50"" y=""98"">Press z for horizontal or m for vertical</text><circle cx=""50"" cy=""50"" r=""10"" fill=""none"" transform=""translate( 26  15)"" stroke=""blueviolet"" /><circle cx=""50"" cy=""50"" r=""10"" fill=""none"" transform=""translate(  0  30)"" stroke=""red"" /><circle cx=""50"" cy=""50"" r=""10"" fill=""none"" transform=""translate(-26  15)"" stroke=""cyan"" /><circle cx=""50"" cy=""50"" r=""10"" fill=""none"" transform=""translate(-26 -15)"" stroke=""black"" /><circle cx=""50"" cy=""50"" r=""10"" fill=""none"" transform=""translate(  0 -30)"" stroke=""gold"" /><circle cx=""50"" cy=""50"" r=""10"" fill=""none"" transform=""translate( 26 -15)"" stroke=""magenta"" /><path d=""M 50 57 L 50 43"" stroke=""black"" transform=""translate( 26  15) rotate(45 50 50)""/><path d=""M 50 57 L 50 43"" stroke=""black"" transform=""translate(  0  30) rotate(0 50 50)""/><path d=""M 50 57 L 50 43"" stroke=""black"" transform=""translate(-26  15) rotate(-45 50 50)""/><path d=""M 50 57 L 50 43"" stroke=""black"" transform=""translate(-26 -15) rotate(-45 50 50)""/><path d=""M 50 57 L 50 43"" stroke=""black"" transform=""translate(  0 -30) rotate(-45 50 50)""/><path d=""M 50 57 L 50 43"" stroke=""black"" transform=""translate( 26 -15) rotate(45 50 50)""/><path d=""M 50 52 L 50 48"" stroke=""black"" stroke-width="".5""/> <path d=""M 52 50 L 48 50"" stroke=""black"" stroke-width="".5""/></svg>","null","VDACtraining","red","1","vertical","null","","",""
"","html-keyboard-response","37","145995","0.0-2.0-2.0-2.8","o23884ukxg","red","null","","","","","","<p style=""font-size:300%;"">Miss.</p> <p style=""font-size:300%;"">Too slow.</p>","null","","","","","","","",""
"","html-keyboard-response","38","147808","0.0-2.0-2.0-0.9","o23884ukxg","red","null","","","","","","<svg viewBox=""0 0 100 100"" > <path d=""M 50 52 L 50 48"" stroke=""black"" stroke-width="".5""/> <path d=""M 52 50 L 48 50"" stroke=""black"" stroke-width="".5""/>","null","","","","","","","",""
"","html-keyboard-response","39","148811","0.0-2.0-2.0-1.9","o23884ukxg","red","null","","","","","","<svg viewBox=""0 0 100 100"" ><text font-size=""10%"" text-anchor=""middle""  x=""50"" y=""98"">Press z for horizontal or m for vertical</text><circle cx=""50"" cy=""50"" r=""10"" fill=""none"" transform=""translate( 26  15)"" stroke=""black"" /><circle cx=""50"" cy=""50"" r=""10"" fill=""none"" transform=""translate(  0  30)"" stroke=""cyan"" /><circle cx=""50"" cy=""50"" r=""10"" fill=""none"" transform=""translate(-26  15)"" stroke=""gold"" /><circle cx=""50"" cy=""50"" r=""10"" fill=""none"" transform=""translate(-26 -15)"" stroke=""magenta"" /><circle cx=""50"" cy=""50"" r=""10"" fill=""none"" transform=""translate(  0 -30)"" stroke=""red"" /><circle cx=""50"" cy=""50"" r=""10"" fill=""none"" transform=""translate( 26 -15)"" stroke=""blueviolet"" /><path d=""M 50 57 L 50 43"" stroke=""black"" transform=""translate( 26  15) rotate(45 50 50)""/><path d=""M 50 57 L 50 43"" stroke=""black"" transform=""translate(  0  30) rotate(45 50 50)""/><path d=""M 50 57 L 50 43"" stroke=""black"" transform=""translate(-26  15) rotate(45 50 50)""/><path d=""M 50 57 L 50 43"" stroke=""black"" transform=""translate(-26 -15) rotate(45 50 50)""/><path d=""M 50 57 L 50 43"" stroke=""black"" transform=""translate(  0 -30) rotate(90 50 50)""/><path d=""M 50 57 L 50 43"" stroke=""black"" transform=""translate( 26 -15) rotate(-45 50 50)""/><path d=""M 50 52 L 50 48"" stroke=""black"" stroke-width="".5""/> <path d=""M 52 50 L 48 50"" stroke=""black"" stroke-width="".5""/></svg>","null","VDACtraining","red","4","horizontal","null","","",""
"","html-keyboard-response","40","151315","0.0-2.0-2.0-2.9","o23884ukxg","red","null","","","","","","<p style=""font-size:300%;"">Miss.</p> <p style=""font-size:300%;"">Too slow.</p>","null","","","","","","","",""
"","html-keyboard-response","41","154606","0.0-2.0-3.0","o23884ukxg","red","2288","","","","","","<p>You have now finished the training exercise. If you would like to repeat the instructions and training exercise, press R. Press C if you are ready to continue to the task. </p>","82","","","","","","","",""
"","instructions","42","179195","0.0-2.1-0.1","o23884ukxg","red","24590","","","","","[{""page_index"":0,""viewing_time"":13917},{""page_index"":1,""viewing_time"":7143},{""page_index"":2,""viewing_time"":988},{""page_index"":3,""viewing_time"":2542}]","","","","","","","","","",""
"","html-keyboard-response","43","181200","0.0-2.1-1.1-0.1","o23884ukxg","red","null","","","","","","<p>Place your fingers on the z and m keys. The experiment will begin shortly.</p><p>&nbsp</p>","null","","","","","","","",""
"","html-keyboard-response","44","182203","0.0-2.1-1.1-1.1","o23884ukxg","red","null","","","","","","<p>Place your fingers on the z and m keys. The experiment will begin shortly.</p><p>3</p>","null","","","","","","","",""
"","html-keyboard-response","45","183205","0.0-2.1-1.1-2.1","o23884ukxg","red","null","","","","","","<p>Place your fingers on the z and m keys. The experiment will begin shortly.</p><p>2</p>","null","","","","","","","",""
"","html-keyboard-response","46","184206","0.0-2.1-1.1-3.1","o23884ukxg","red","null","","","","","","<p>Place your fingers on the z and m keys. The experiment will begin shortly.</p><p>1</p>","null","","","","","","","",""
"","html-keyboard-response","47","185021","0.0-2.1-2.1-0.10","o23884ukxg","red","null","","","","","","<svg viewBox=""0 0 100 100"" > <path d=""M 50 52 L 50 48"" stroke=""black"" stroke-width="".5""/> <path d=""M 52 50 L 48 50"" stroke=""black"" stroke-width="".5""/>","null","","","","","","","",""
"","html-keyboard-response","48","186023","0.0-2.1-2.1-1.10","o23884ukxg","red","null","","","","","","<svg viewBox=""0 0 100 100"" ><text font-size=""10%"" text-anchor=""middle""  x=""50"" y=""98"">Press z for horizontal or m for vertical</text><circle cx=""50"" cy=""50"" r=""10"" fill=""none"" transform=""translate( 26  15)"" stroke=""black"" /><circle cx=""50"" cy=""50"" r=""10"" fill=""none"" transform=""translate(  0  30)"" stroke=""blueviolet"" /><circle cx=""50"" cy=""50"" r=""10"" fill=""none"" transform=""translate(-26  15)"" stroke=""magenta"" /><circle cx=""50"" cy=""50"" r=""10"" fill=""none"" transform=""translate(-26 -15)"" stroke=""gold"" /><circle cx=""50"" cy=""50"" r=""10"" fill=""none"" transform=""translate(  0 -30)"" stroke=""cyan"" /><circle cx=""50"" cy=""50"" r=""10"" fill=""none"" transform=""translate( 26 -15)"" stroke=""red"" /><path d=""M 50 57 L 50 43"" stroke=""black"" transform=""translate( 26  15) rotate(45 50 50)""/><path d=""M 50 57 L 50 43"" stroke=""black"" transform=""translate(  0  30) rotate(-45 50 50)""/><path d=""M 50 57 L 50 43"" stroke=""black"" transform=""translate(-26  15) rotate(45 50 50)""/><path d=""M 50 57 L 50 43"" stroke=""black"" transform=""translate(-26 -15) rotate(45 50 50)""/><path d=""M 50 57 L 50 43"" stroke=""black"" transform=""translate(  0 -30) rotate(45 50 50)""/><path d=""M 50 57 L 50 43"" stroke=""black"" transform=""translate( 26 -15) rotate(0 50 50)""/><path d=""M 50 52 L 50 48"" stroke=""black"" stroke-width="".5""/> <path d=""M 52 50 L 48 50"" stroke=""black"" stroke-width="".5""/></svg>","null","VDACtraining","red","5","vertical","null","","",""
"","html-keyboard-response","49","188524","0.0-2.1-2.1-2.10","o23884ukxg","red","null","","","","","","<p style=""font-size:300%;"">Miss.</p> <p style=""font-size:300%;"">Too slow.</p>","null","","","","","","","",""
"","html-keyboard-response","50","190341","0.0-2.1-2.1-0.11","o23884ukxg","red","null","","","","","","<svg viewBox=""0 0 100 100"" > <path d=""M 50 52 L 50 48"" stroke=""black"" stroke-width="".5""/> <path d=""M 52 50 L 48 50"" stroke=""black"" stroke-width="".5""/>","null","","","","","","","",""
"","html-keyboard-response","51","191187","0.0-2.1-2.1-1.11","o23884ukxg","red","846","","","","","","<svg viewBox=""0 0 100 100"" ><text font-size=""10%"" text-anchor=""middle""  x=""50"" y=""98"">Press z for horizontal or m for vertical</text><circle cx=""50"" cy=""50"" r=""10"" fill=""none"" transform=""translate( 26  15)"" stroke=""black"" /><circle cx=""50"" cy=""50"" r=""10"" fill=""none"" transform=""translate(  0  30)"" stroke=""cyan"" /><circle cx=""50"" cy=""50"" r=""10"" fill=""none"" transform=""translate(-26  15)"" stroke=""gold"" /><circle cx=""50"" cy=""50"" r=""10"" fill=""none"" transform=""translate(-26 -15)"" stroke=""magenta"" /><circle cx=""50"" cy=""50"" r=""10"" fill=""none"" transform=""translate(  0 -30)"" stroke=""red"" /><circle cx=""50"" cy=""50"" r=""10"" fill=""none"" transform=""translate( 26 -15)"" stroke=""blueviolet"" /><path d=""M 50 57 L 50 43"" stroke=""black"" transform=""translate( 26  15) rotate(45 50 50)""/><path d=""M 50 57 L 50 43"" stroke=""black"" transform=""translate(  0  30) rotate(45 50 50)""/><path d=""M 50 57 L 50 43"" stroke=""black"" transform=""translate(-26  15) rotate(45 50 50)""/><path d=""M 50 57 L 50 43"" stroke=""black"" transform=""translate(-26 -15) rotate(45 50 50)""/><path d=""M 50 57 L 50 43"" stroke=""black"" transform=""translate(  0 -30) rotate(90 50 50)""/><path d=""M 50 57 L 50 43"" stroke=""black"" transform=""translate( 26 -15) rotate(-45 50 50)""/><path d=""M 50 52 L 50 48"" stroke=""black"" stroke-width="".5""/> <path d=""M 52 50 L 48 50"" stroke=""black"" stroke-width="".5""/></svg>","90","VDACtraining","red","4","horizontal","true","","",""
"","html-keyboard-response","52","193689","0.0-2.1-2.1-2.11","o23884ukxg","red","null","","","","","","<p style=""font-size:300%;"">Correct!</p>","null","","","","","","","",""
"","html-keyboard-response","53","195508","0.0-2.1-2.1-0.12","o23884ukxg","red","null","","","","","","<svg viewBox=""0 0 100 100"" > <path d=""M 50 52 L 50 48"" stroke=""black"" stroke-width="".5""/> <path d=""M 52 50 L 48 50"" stroke=""black"" stroke-width="".5""/>","null","","","","","","","",""
"","html-keyboard-response","54","196168","0.0-2.1-2.1-1.12","o23884ukxg","red","660","","","","","","<svg viewBox=""0 0 100 100"" ><text font-size=""10%"" text-anchor=""middle""  x=""50"" y=""98"">Press z for horizontal or m for vertical</text><circle cx=""50"" cy=""50"" r=""10"" fill=""none"" transform=""translate( 26  15)"" stroke=""green"" /><circle cx=""50"" cy=""50"" r=""10"" fill=""none"" transform=""translate(  0  30)"" stroke=""magenta"" /><circle cx=""50"" cy=""50"" r=""10"" fill=""none"" transform=""translate(-26  15)"" stroke=""cyan"" /><circle cx=""50"" cy=""50"" r=""10"" fill=""none"" transform=""translate(-26 -15)"" stroke=""black"" /><circle cx=""50"" cy=""50"" r=""10"" fill=""none"" transform=""translate(  0 -30)"" stroke=""gold"" /><circle cx=""50"" cy=""50"" r=""10"" fill=""none"" transform=""translate( 26 -15)"" stroke=""blueviolet"" /><path d=""M 50 57 L 50 43"" stroke=""black"" transform=""translate( 26  15) rotate(0 50 50)""/><path d=""M 50 57 L 50 43"" stroke=""black"" transform=""translate(  0  30) rotate(-45 50 50)""/><path d=""M 50 57 L 50 43"" stroke=""black"" transform=""translate(-26  15) rotate(45 50 50)""/><path d=""M 50 57 L 50 43"" stroke=""black"" transform=""translate(-26 -15) rotate(45 50 50)""/><path d=""M 50 57 L 50 43"" stroke=""black"" transform=""translate(  0 -30) rotate(45 50 50)""/><path d=""M 50 57 L 50 43"" stroke=""black"" transform=""translate( 26 -15) rotate(45 50 50)""/><path d=""M 50 52 L 50 48"" stroke=""black"" stroke-width="".5""/> <path d=""M 52 50 L 48 50"" stroke=""black"" stroke-width="".5""/></svg>","77","VDACtraining","green","0","vertical","true","","",""
"","html-keyboard-response","55","198670","0.0-2.1-2.1-2.12","o23884ukxg","red","null","","","","","","<p style=""font-size:300%;"">Correct!</p>","null","","","","","","","",""
"","html-keyboard-response","56","200486","0.0-2.1-2.1-0.13","o23884ukxg","red","null","","","","","","<svg viewBox=""0 0 100 100"" > <path d=""M 50 52 L 50 48"" stroke=""black"" stroke-width="".5""/> <path d=""M 52 50 L 48 50"" stroke=""black"" stroke-width="".5""/>","null","","","","","","","",""
"","html-keyboard-response","57","201491","0.0-2.1-2.1-1.13","o23884ukxg","red","null","","","","","","<svg viewBox=""0 0 100 100"" ><text font-size=""10%"" text-anchor=""middle""  x=""50"" y=""98"">Press z for horizontal or m for vertical</text><circle cx=""50"" cy=""50"" r=""10"" fill=""none"" transform=""translate( 26  15)"" stroke=""black"" /><circle cx=""50"" cy=""50"" r=""10"" fill=""none"" transform=""translate(  0  30)"" stroke=""gold"" /><circle cx=""50"" cy=""50"" r=""10"" fill=""none"" transform=""translate(-26  15)"" stroke=""cyan"" /><circle cx=""50"" cy=""50"" r=""10"" fill=""none"" transform=""translate(-26 -15)"" stroke=""red"" /><circle cx=""50"" cy=""50"" r=""10"" fill=""none"" transform=""translate(  0 -30)"" stroke=""magenta"" /><circle cx=""50"" cy=""50"" r=""10"" fill=""none"" transform=""translate( 26 -15)"" stroke=""blueviolet"" /><path d=""M 50 57 L 50 43"" stroke=""black"" transform=""translate( 26  15) rotate(-45 50 50)""/><path d=""M 50 57 L 50 43"" stroke=""black"" transform=""translate(  0  30) rotate(45 50 50)""/><path d=""M 50 57 L 50 43"" stroke=""black"" transform=""translate(-26  15) rotate(45 50 50)""/><path d=""M 50 57 L 50 43"" stroke=""black"" transform=""translate(-26 -15) rotate(0 50 50)""/><path d=""M 50 57 L 50 43"" stroke=""black"" transform=""translate(  0 -30) rotate(45 50 50)""/><path d=""M 50 57 L 50 43"" stroke=""black"" transform=""translate( 26 -15) rotate(-45 50 50)""/><path d=""M 50 52 L 50 48"" stroke=""black"" stroke-width="".5""/> <path d=""M 52 50 L 48 50"" stroke=""black"" stroke-width="".5""/></svg>","null","VDACtraining","red","3","vertical","null","","",""
"","html-keyboard-response","58","203994","0.0-2.1-2.1-2.13","o23884ukxg","red","null","","","","","","<p style=""font-size:300%;"">Miss.</p> <p style=""font-size:300%;"">Too slow.</p>","null","","","","","","","",""
"","html-keyboard-response","59","205809","0.0-2.1-2.1-0.14","o23884ukxg","red","null","","","","","","<svg viewBox=""0 0 100 100"" > <path d=""M 50 52 L 50 48"" stroke=""black"" stroke-width="".5""/> <path d=""M 52 50 L 48 50"" stroke=""black"" stroke-width="".5""/>","null","","","","","","","",""
"","html-keyboard-response","60","206351","0.0-2.1-2.1-1.14","o23884ukxg","red","544","","","","","","<svg viewBox=""0 0 100 100"" ><text font-size=""10%"" text-anchor=""middle""  x=""50"" y=""98"">Press z for horizontal or m for vertical</text><circle cx=""50"" cy=""50"" r=""10"" fill=""none"" transform=""translate( 26  15)"" stroke=""gold"" /><circle cx=""50"" cy=""50"" r=""10"" fill=""none"" transform=""translate(  0  30)"" stroke=""magenta"" /><circle cx=""50"" cy=""50"" r=""10"" fill=""none"" transform=""translate(-26  15)"" stroke=""blueviolet"" /><circle cx=""50"" cy=""50"" r=""10"" fill=""none"" transform=""translate(-26 -15)"" stroke=""cyan"" /><circle cx=""50"" cy=""50"" r=""10"" fill=""none"" transform=""translate(  0 -30)"" stroke=""black"" /><circle cx=""50"" cy=""50"" r=""10"" fill=""none"" transform=""translate( 26 -15)"" stroke=""green"" /><path d=""M 50 57 L 50 43"" stroke=""black"" transform=""translate( 26  15) rotate(-45 50 50)""/><path d=""M 50 57 L 50 43"" stroke=""black"" transform=""translate(  0  30) rotate(-45 50 50)""/><path d=""M 50 57 L 50 43"" stroke=""black"" transform=""translate(-26  15) rotate(45 50 50)""/><path d=""M 50 57 L 50 43"" stroke=""black"" transform=""translate(-26 -15) rotate(-45 50 50)""/><path d=""M 50 57 L 50 43"" stroke=""black"" transform=""translate(  0 -30) rotate(45 50 50)""/><path d=""M 50 57 L 50 43"" stroke=""black"" transform=""translate( 26 -15) rotate(90 50 50)""/><path d=""M 50 52 L 50 48"" stroke=""black"" stroke-width="".5""/> <path d=""M 52 50 L 48 50"" stroke=""black"" stroke-width="".5""/></svg>","77","VDACtraining","green","5","horizontal","false","","",""
"","html-keyboard-response","61","208853","0.0-2.1-2.1-2.14","o23884ukxg","red","null","","","","","","<p style=""font-size:300%;"">Miss.</p> <p style=""font-size:300%;"">Wrong response.</p>","null","","","","","","","",""
"","html-keyboard-response","62","210672","0.0-2.1-2.1-0.15","o23884ukxg","red","null","","","","","","<svg viewBox=""0 0 100 100"" > <path d=""M 50 52 L 50 48"" stroke=""black"" stroke-width="".5""/> <path d=""M 52 50 L 48 50"" stroke=""black"" stroke-width="".5""/>","null","","","","","","","",""
"","html-keyboard-response","63","211542","0.0-2.1-2.1-1.15","o23884ukxg","red","868","","","","","","<svg viewBox=""0 0 100 100"" ><text font-size=""10%"" text-anchor=""middle""  x=""50"" y=""98"">Press z for horizontal or m for vertical</text><circle cx=""50"" cy=""50"" r=""10"" fill=""none"" transform=""translate( 26  15)"" stroke=""blueviolet"" /><circle cx=""50"" cy=""50"" r=""10"" fill=""none"" transform=""translate(  0  30)"" stroke=""red"" /><circle cx=""50"" cy=""50"" r=""10"" fill=""none"" transform=""translate(-26  15)"" stroke=""cyan"" /><circle cx=""50"" cy=""50"" r=""10"" fill=""none"" transform=""translate(-26 -15)"" stroke=""black"" /><circle cx=""50"" cy=""50"" r=""10"" fill=""none"" transform=""translate(  0 -30)"" stroke=""gold"" /><circle cx=""50"" cy=""50"" r=""10"" fill=""none"" transform=""translate( 26 -15)"" stroke=""magenta"" /><path d=""M 50 57 L 50 43"" stroke=""black"" transform=""translate( 26  15) rotate(45 50 50)""/><path d=""M 50 57 L 50 43"" stroke=""black"" transform=""translate(  0  30) rotate(0 50 50)""/><path d=""M 50 57 L 50 43"" stroke=""black"" transform=""translate(-26  15) rotate(-45 50 50)""/><path d=""M 50 57 L 50 43"" stroke=""black"" transform=""translate(-26 -15) rotate(-45 50 50)""/><path d=""M 50 57 L 50 43"" stroke=""black"" transform=""translate(  0 -30) rotate(-45 50 50)""/><path d=""M 50 57 L 50 43"" stroke=""black"" transform=""translate( 26 -15) rotate(45 50 50)""/><path d=""M 50 52 L 50 48"" stroke=""black"" stroke-width="".5""/> <path d=""M 52 50 L 48 50"" stroke=""black"" stroke-width="".5""/></svg>","77","VDACtraining","red","1","vertical","true","","",""
"","html-keyboard-response","64","214045","0.0-2.1-2.1-2.15","o23884ukxg","red","null","","","","","","<p style=""font-size:300%;"">Correct!</p>","null","","","","","","","",""
"","html-keyboard-response","65","215861","0.0-2.1-2.1-0.16","o23884ukxg","red","null","","","","","","<svg viewBox=""0 0 100 100"" > <path d=""M 50 52 L 50 48"" stroke=""black"" stroke-width="".5""/> <path d=""M 52 50 L 48 50"" stroke=""black"" stroke-width="".5""/>","null","","","","","","","",""
"","html-keyboard-response","66","216537","0.0-2.1-2.1-1.16","o23884ukxg","red","674","","","","","","<svg viewBox=""0 0 100 100"" ><text font-size=""10%"" text-anchor=""middle""  x=""50"" y=""98"">Press z for horizontal or m for vertical</text><circle cx=""50"" cy=""50"" r=""10"" fill=""none"" transform=""translate( 26  15)"" stroke=""gold"" /><circle cx=""50"" cy=""50"" r=""10"" fill=""none"" transform=""translate(  0  30)"" stroke=""black"" /><circle cx=""50"" cy=""50"" r=""10"" fill=""none"" transform=""translate(-26  15)"" stroke=""green"" /><circle cx=""50"" cy=""50"" r=""10"" fill=""none"" transform=""translate(-26 -15)"" stroke=""magenta"" /><circle cx=""50"" cy=""50"" r=""10"" fill=""none"" transform=""translate(  0 -30)"" stroke=""cyan"" /><circle cx=""50"" cy=""50"" r=""10"" fill=""none"" transform=""translate( 26 -15)"" stroke=""blueviolet"" /><path d=""M 50 57 L 50 43"" stroke=""black"" transform=""translate( 26  15) rotate(45 50 50)""/><path d=""M 50 57 L 50 43"" stroke=""black"" transform=""translate(  0  30) rotate(45 50 50)""/><path d=""M 50 57 L 50 43"" stroke=""black"" transform=""translate(-26  15) rotate(0 50 50)""/><path d=""M 50 57 L 50 43"" stroke=""black"" transform=""translate(-26 -15) rotate(-45 50 50)""/><path d=""M 50 57 L 50 43"" stroke=""black"" transform=""translate(  0 -30) rotate(45 50 50)""/><path d=""M 50 57 L 50 43"" stroke=""black"" transform=""translate( 26 -15) rotate(-45 50 50)""/><path d=""M 50 52 L 50 48"" stroke=""black"" stroke-width="".5""/> <path d=""M 52 50 L 48 50"" stroke=""black"" stroke-width="".5""/></svg>","90","VDACtraining","green","2","vertical","false","","",""
"","html-keyboard-response","67","219040","0.0-2.1-2.1-2.16","o23884ukxg","red","null","","","","","","<p style=""font-size:300%;"">Miss.</p> <p style=""font-size:300%;"">Wrong response.</p>","null","","","","","","","",""
"","html-keyboard-response","68","220860","0.0-2.1-2.1-0.17","o23884ukxg","red","null","","","","","","<svg viewBox=""0 0 100 100"" > <path d=""M 50 52 L 50 48"" stroke=""black"" stroke-width="".5""/> <path d=""M 52 50 L 48 50"" stroke=""black"" stroke-width="".5""/>","null","","","","","","","",""
"","html-keyboard-response","69","221864","0.0-2.1-2.1-1.17","o23884ukxg","red","null","","","","","","<svg viewBox=""0 0 100 100"" ><text font-size=""10%"" text-anchor=""middle""  x=""50"" y=""98"">Press z for horizontal or m for vertical</text><circle cx=""50"" cy=""50"" r=""10"" fill=""none"" transform=""translate( 26  15)"" stroke=""gold"" /><circle cx=""50"" cy=""50"" r=""10"" fill=""none"" transform=""translate(  0  30)"" stroke=""blueviolet"" /><circle cx=""50"" cy=""50"" r=""10"" fill=""none"" transform=""translate(-26  15)"" stroke=""red"" /><circle cx=""50"" cy=""50"" r=""10"" fill=""none"" transform=""translate(-26 -15)"" stroke=""magenta"" /><circle cx=""50"" cy=""50"" r=""10"" fill=""none"" transform=""translate(  0 -30)"" stroke=""black"" /><circle cx=""50"" cy=""50"" r=""10"" fill=""none"" transform=""translate( 26 -15)"" stroke=""cyan"" /><path d=""M 50 57 L 50 43"" stroke=""black"" transform=""translate( 26  15) rotate(-45 50 50)""/><path d=""M 50 57 L 50 43"" stroke=""black"" transform=""translate(  0  30) rotate(-45 50 50)""/><path d=""M 50 57 L 50 43"" stroke=""black"" transform=""translate(-26  15) rotate(90 50 50)""/><path d=""M 50 57 L 50 43"" stroke=""black"" transform=""translate(-26 -15) rotate(45 50 50)""/><path d=""M 50 57 L 50 43"" stroke=""black"" transform=""translate(  0 -30) rotate(-45 50 50)""/><path d=""M 50 57 L 50 43"" stroke=""black"" transform=""translate( 26 -15) rotate(45 50 50)""/><path d=""M 50 52 L 50 48"" stroke=""black"" stroke-width="".5""/> <path d=""M 52 50 L 48 50"" stroke=""black"" stroke-width="".5""/></svg>","null","VDACtraining","red","2","horizontal","null","","",""
"","html-keyboard-response","70","224366","0.0-2.1-2.1-2.17","o23884ukxg","red","null","","","","","","<p style=""font-size:300%;"">Miss.</p> <p style=""font-size:300%;"">Too slow.</p>","null","","","","","","","",""
"","html-keyboard-response","71","226182","0.0-2.1-2.1-0.18","o23884ukxg","red","null","","","","","","<svg viewBox=""0 0 100 100"" > <path d=""M 50 52 L 50 48"" stroke=""black"" stroke-width="".5""/> <path d=""M 52 50 L 48 50"" stroke=""black"" stroke-width="".5""/>","null","","","","","","","",""
"","html-keyboard-response","72","226870","0.0-2.1-2.1-1.18","o23884ukxg","red","687","","","","","","<svg viewBox=""0 0 100 100"" ><text font-size=""10%"" text-anchor=""middle""  x=""50"" y=""98"">Press z for horizontal or m for vertical</text><circle cx=""50"" cy=""50"" r=""10"" fill=""none"" transform=""translate( 26  15)"" stroke=""gold"" /><circle cx=""50"" cy=""50"" r=""10"" fill=""none"" transform=""translate(  0  30)"" stroke=""black"" /><circle cx=""50"" cy=""50"" r=""10"" fill=""none"" transform=""translate(-26  15)"" stroke=""magenta"" /><circle cx=""50"" cy=""50"" r=""10"" fill=""none"" transform=""translate(-26 -15)"" stroke=""green"" /><circle cx=""50"" cy=""50"" r=""10"" fill=""none"" transform=""translate(  0 -30)"" stroke=""blueviolet"" /><circle cx=""50"" cy=""50"" r=""10"" fill=""none"" transform=""translate( 26 -15)"" stroke=""cyan"" /><path d=""M 50 57 L 50 43"" stroke=""black"" transform=""translate( 26  15) rotate(45 50 50)""/><path d=""M 50 57 L 50 43"" stroke=""black"" transform=""translate(  0  30) rotate(-45 50 50)""/><path d=""M 50 57 L 50 43"" stroke=""black"" transform=""translate(-26  15) rotate(-45 50 50)""/><path d=""M 50 57 L 50 43"" stroke=""black"" transform=""translate(-26 -15) rotate(90 50 50)""/><path d=""M 50 57 L 50 43"" stroke=""black"" transform=""translate(  0 -30) rotate(-45 50 50)""/><path d=""M 50 57 L 50 43"" stroke=""black"" transform=""translate( 26 -15) rotate(-45 50 50)""/><path d=""M 50 52 L 50 48"" stroke=""black"" stroke-width="".5""/> <path d=""M 52 50 L 48 50"" stroke=""black"" stroke-width="".5""/></svg>","90","VDACtraining","green","3","horizontal","true","","",""
"","html-keyboard-response","73","229375","0.0-2.1-2.1-2.18","o23884ukxg","red","null","","","","","","<p style=""font-size:300%;"">Correct!</p>","null","","","","","","","",""
"","html-keyboard-response","74","231190","0.0-2.1-2.1-0.19","o23884ukxg","red","null","","","","","","<svg viewBox=""0 0 100 100"" > <path d=""M 50 52 L 50 48"" stroke=""black"" stroke-width="".5""/> <path d=""M 52 50 L 48 50"" stroke=""black"" stroke-width="".5""/>","null","","","","","","","",""
"","html-keyboard-response","75","231775","0.0-2.1-2.1-1.19","o23884ukxg","red","584","","","","","","<svg viewBox=""0 0 100 100"" ><text font-size=""10%"" text-anchor=""middle""  x=""50"" y=""98"">Press z for horizontal or m for vertical</text><circle cx=""50"" cy=""50"" r=""10"" fill=""none"" transform=""translate( 26  15)"" stroke=""black"" /><circle cx=""50"" cy=""50"" r=""10"" fill=""none"" transform=""translate(  0  30)"" stroke=""green"" /><circle cx=""50"" cy=""50"" r=""10"" fill=""none"" transform=""translate(-26  15)"" stroke=""magenta"" /><circle cx=""50"" cy=""50"" r=""10"" fill=""none"" transform=""translate(-26 -15)"" stroke=""cyan"" /><circle cx=""50"" cy=""50"" r=""10"" fill=""none"" transform=""translate(  0 -30)"" stroke=""blueviolet"" /><circle cx=""50"" cy=""50"" r=""10"" fill=""none"" transform=""translate( 26 -15)"" stroke=""gold"" /><path d=""M 50 57 L 50 43"" stroke=""black"" transform=""translate( 26  15) rotate(45 50 50)""/><path d=""M 50 57 L 50 43"" stroke=""black"" transform=""translate(  0  30) rotate(90 50 50)""/><path d=""M 50 57 L 50 43"" stroke=""black"" transform=""translate(-26  15) rotate(-45 50 50)""/><path d=""M 50 57 L 50 43"" stroke=""black"" transform=""translate(-26 -15) rotate(-45 50 50)""/><path d=""M 50 57 L 50 43"" stroke=""black"" transform=""translate(  0 -30) rotate(-45 50 50)""/><path d=""M 50 57 L 50 43"" stroke=""black"" transform=""translate( 26 -15) rotate(-45 50 50)""/><path d=""M 50 52 L 50 48"" stroke=""black"" stroke-width="".5""/> <path d=""M 52 50 L 48 50"" stroke=""black"" stroke-width="".5""/></svg>","90","VDACtraining","green","1","horizontal","true","","",""
"","html-keyboard-response","76","234277","0.0-2.1-2.1-2.19","o23884ukxg","red","null","","","","","","<p style=""font-size:300%;"">Correct!</p>","null","","","","","","","",""
"","html-keyboard-response","77","237849","0.0-2.1-3.1","o23884ukxg","red","2572","","","","","","<p>You have now finished the training exercise. If you would like to repeat the instructions and training exercise, press R. Press C if you are ready to continue to the task. </p>","67","","","","","","","",""
"","html-keyboard-response","78","239851","0.0-3.0-0.0","o23884ukxg","red","null","","","","","","<p>Place your fingers on the z and m keys. The experiment will begin shortly.</p><p>&nbsp</p>","null","","","","","","","",""
"","html-keyboard-response","79","240853","0.0-3.0-1.0","o23884ukxg","red","null","","","","","","<p>Place your fingers on the z and m keys. The experiment will begin shortly.</p><p>3</p>","null","","","","","","","",""
"","html-keyboard-response","80","241853","0.0-3.0-2.0","o23884ukxg","red","null","","","","","","<p>Place your fingers on the z and m keys. The experiment will begin shortly.</p><p>2</p>","null","","","","","","","",""
"","html-keyboard-response","81","242856","0.0-3.0-3.0","o23884ukxg","red","null","","","","","","<p>Place your fingers on the z and m keys. The experiment will begin shortly.</p><p>1</p>","null","","","","","","","",""
"","html-keyboard-response","82","243670","0.0-4.0-1.0-0.0","o23884ukxg","red","null","","","","","","<svg viewBox=""0 0 100 100"" > <path d=""M 50 52 L 50 48"" stroke=""black"" stroke-width="".5""/> <path d=""M 52 50 L 48 50"" stroke=""black"" stroke-width="".5""/>","null","","","","","","","",""
"","html-keyboard-response","83","244448","0.0-4.0-1.0-1.0","o23884ukxg","red","779","","","","","","<svg viewBox=""0 0 100 100"" ><circle cx=""50"" cy=""50"" r=""10"" fill=""none"" transform=""translate( 26  15)"" stroke=""black"" /><circle cx=""50"" cy=""50"" r=""10"" fill=""none"" transform=""translate(  0  30)"" stroke=""gold"" /><circle cx=""50"" cy=""50"" r=""10"" fill=""none"" transform=""translate(-26  15)"" stroke=""magenta"" /><circle cx=""50"" cy=""50"" r=""10"" fill=""none"" transform=""translate(-26 -15)"" stroke=""green"" /><circle cx=""50"" cy=""50"" r=""10"" fill=""none"" transform=""translate(  0 -30)"" stroke=""blueviolet"" /><circle cx=""50"" cy=""50"" r=""10"" fill=""none"" transform=""translate( 26 -15)"" stroke=""cyan"" /><path d=""M 50 57 L 50 43"" stroke=""black"" transform=""translate( 26  15) rotate(-45 50 50)""/><path d=""M 50 57 L 50 43"" stroke=""black"" transform=""translate(  0  30) rotate(45 50 50)""/><path d=""M 50 57 L 50 43"" stroke=""black"" transform=""translate(-26  15) rotate(-45 50 50)""/><path d=""M 50 57 L 50 43"" stroke=""black"" transform=""translate(-26 -15) rotate(0 50 50)""/><path d=""M 50 57 L 50 43"" stroke=""black"" transform=""translate(  0 -30) rotate(45 50 50)""/><path d=""M 50 57 L 50 43"" stroke=""black"" transform=""translate( 26 -15) rotate(-45 50 50)""/><path d=""M 50 52 L 50 48"" stroke=""black"" stroke-width="".5""/> <path d=""M 52 50 L 48 50"" stroke=""black"" stroke-width="".5""/></svg>","90","VDACtest","green","4th","vertical","false","low","",""
"","html-keyboard-response","84","246951","0.0-4.0-1.0-2.0","o23884ukxg","red","null","","","","","","<p style=""font-size:300%;"">Miss.</p><p style=""font-size:300%"">Total: 0 points.</p>","null","","","","","","","0",""
"","html-keyboard-response","85","248767","0.0-4.0-1.0-0.1","o23884ukxg","red","null","","","","","","<svg viewBox=""0 0 100 100"" > <path d=""M 50 52 L 50 48"" stroke=""black"" stroke-width="".5""/> <path d=""M 52 50 L 48 50"" stroke=""black"" stroke-width="".5""/>","null","","","","","","","",""
"","html-keyboard-response","86","249769","0.0-4.0-1.0-1.1","o23884ukxg","red","null","","","","","","<svg viewBox=""0 0 100 100"" ><circle cx=""50"" cy=""50"" r=""10"" fill=""none"" transform=""translate( 26  15)"" stroke=""gold"" /><circle cx=""50"" cy=""50"" r=""10"" fill=""none"" transform=""translate(  0  30)"" stroke=""blueviolet"" /><circle cx=""50"" cy=""50"" r=""10"" fill=""none"" transform=""translate(-26  15)"" stroke=""red"" /><circle cx=""50"" cy=""50"" r=""10"" fill=""none"" transform=""translate(-26 -15)"" stroke=""magenta"" /><circle cx=""50"" cy=""50"" r=""10"" fill=""none"" transform=""translate(  0 -30)"" stroke=""cyan"" /><circle cx=""50"" cy=""50"" r=""10"" fill=""none"" transform=""translate( 26 -15)"" stroke=""black"" /><path d=""M 50 57 L 50 43"" stroke=""black"" transform=""translate( 26  15) rotate(45 50 50)""/><path d=""M 50 57 L 50 43"" stroke=""black"" transform=""translate(  0  30) rotate(45 50 50)""/><path d=""M 50 57 L 50 43"" stroke=""black"" transform=""translate(-26  15) rotate(90 50 50)""/><path d=""M 50 57 L 50 43"" stroke=""black"" transform=""translate(-26 -15) rotate(-45 50 50)""/><path d=""M 50 57 L 50 43"" stroke=""black"" transform=""translate(  0 -30) rotate(45 50 50)""/><path d=""M 50 57 L 50 43"" stroke=""black"" transform=""translate( 26 -15) rotate(45 50 50)""/><path d=""M 50 52 L 50 48"" stroke=""black"" stroke-width="".5""/> <path d=""M 52 50 L 48 50"" stroke=""black"" stroke-width="".5""/></svg>","null","VDACtest","red","3rd","horizontal","null","high","",""
"","html-keyboard-response","87","252276","0.0-4.0-1.0-2.1","o23884ukxg","red","null","","","","","","<p style=""font-size:300%;"">Miss.</p><p style=""font-size:300%"">Total: 0 points.</p>","null","","","","","","","0",""
"","html-keyboard-response","88","254092","0.0-4.0-1.0-0.2","o23884ukxg","red","null","","","","","","<svg viewBox=""0 0 100 100"" > <path d=""M 50 52 L 50 48"" stroke=""black"" stroke-width="".5""/> <path d=""M 52 50 L 48 50"" stroke=""black"" stroke-width="".5""/>","null","","","","","","","",""
"","html-keyboard-response","89","254844","0.0-4.0-1.0-1.2","o23884ukxg","red","752","","","","","","<svg viewBox=""0 0 100 100"" ><circle cx=""50"" cy=""50"" r=""10"" fill=""none"" transform=""translate( 26  15)"" stroke=""cyan"" /><circle cx=""50"" cy=""50"" r=""10"" fill=""none"" transform=""translate(  0  30)"" stroke=""blueviolet"" /><circle cx=""50"" cy=""50"" r=""10"" fill=""none"" transform=""translate(-26  15)"" stroke=""gold"" /><circle cx=""50"" cy=""50"" r=""10"" fill=""none"" transform=""translate(-26 -15)"" stroke=""red"" /><circle cx=""50"" cy=""50"" r=""10"" fill=""none"" transform=""translate(  0 -30)"" stroke=""black"" /><circle cx=""50"" cy=""50"" r=""10"" fill=""none"" transform=""translate( 26 -15)"" stroke=""magenta"" /><path d=""M 50 57 L 50 43"" stroke=""black"" transform=""translate( 26  15) rotate(-45 50 50)""/><path d=""M 50 57 L 50 43"" stroke=""black"" transform=""translate(  0  30) rotate(-45 50 50)""/><path d=""M 50 57 L 50 43"" stroke=""black"" transform=""translate(-26  15) rotate(-45 50 50)""/><path d=""M 50 57 L 50 43"" stroke=""black"" transform=""translate(-26 -15) rotate(0 50 50)""/><path d=""M 50 57 L 50 43"" stroke=""black"" transform=""translate(  0 -30) rotate(-45 50 50)""/><path d=""M 50 57 L 50 43"" stroke=""black"" transform=""translate( 26 -15) rotate(-45 50 50)""/><path d=""M 50 52 L 50 48"" stroke=""black"" stroke-width="".5""/> <path d=""M 52 50 L 48 50"" stroke=""black"" stroke-width="".5""/></svg>","77","VDACtest","red","4th","vertical","true","high","",""
"","html-keyboard-response","90","257349","0.0-4.0-1.0-2.2","o23884ukxg","red","null","","","","","","<p style=""font-size:300%;""> + 10 points.</p><p style=""font-size:300%"">Total: 10 points.</p>","null","","","","","","","10",""
"","html-keyboard-response","91","259164","0.0-4.0-1.0-0.3","o23884ukxg","red","null","","","","","","<svg viewBox=""0 0 100 100"" > <path d=""M 50 52 L 50 48"" stroke=""black"" stroke-width="".5""/> <path d=""M 52 50 L 48 50"" stroke=""black"" stroke-width="".5""/>","null","","","","","","","",""
"","html-keyboard-response","92","259972","0.0-4.0-1.0-1.3","o23884ukxg","red","809","","","","","","<svg viewBox=""0 0 100 100"" ><circle cx=""50"" cy=""50"" r=""10"" fill=""none"" transform=""translate( 26  15)"" stroke=""gold"" /><circle cx=""50"" cy=""50"" r=""10"" fill=""none"" transform=""translate(  0  30)"" stroke=""red"" /><circle cx=""50"" cy=""50"" r=""10"" fill=""none"" transform=""translate(-26  15)"" stroke=""black"" /><circle cx=""50"" cy=""50"" r=""10"" fill=""none"" transform=""translate(-26 -15)"" stroke=""magenta"" /><circle cx=""50"" cy=""50"" r=""10"" fill=""none"" transform=""translate(  0 -30)"" stroke=""cyan"" /><circle cx=""50"" cy=""50"" r=""10"" fill=""none"" transform=""translate( 26 -15)"" stroke=""blueviolet"" /><path d=""M 50 57 L 50 43"" stroke=""black"" transform=""translate( 26  15) rotate(-45 50 50)""/><path d=""M 50 57 L 50 43"" stroke=""black"" transform=""translate(  0  30) rotate(0 50 50)""/><path d=""M 50 57 L 50 43"" stroke=""black"" transform=""translate(-26  15) rotate(45 50 50)""/><path d=""M 50 57 L 50 43"" stroke=""black"" transform=""translate(-26 -15) rotate(45 50 50)""/><path d=""M 50 57 L 50 43"" stroke=""black"" transform=""translate(  0 -30) rotate(45 50 50)""/><path d=""M 50 57 L 50 43"" stroke=""black"" transform=""translate( 26 -15) rotate(45 50 50)""/><path d=""M 50 52 L 50 48"" stroke=""black"" stroke-width="".5""/> <path d=""M 52 50 L 48 50"" stroke=""black"" stroke-width="".5""/></svg>","77","VDACtest","red","2nd","vertical","true","high","",""
"","html-keyboard-response","93","262474","0.0-4.0-1.0-2.3","o23884ukxg","red","null","","","","","","<p style=""font-size:300%;""> + 2 points.</p><p style=""font-size:300%"">Total: 12 points.</p>","null","","","","","","","12",""
"","html-keyboard-response","94","264292","0.0-4.0-1.0-0.4","o23884ukxg","red","null","","","","","","<svg viewBox=""0 0 100 100"" > <path d=""M 50 52 L 50 48"" stroke=""black"" stroke-width="".5""/> <path d=""M 52 50 L 48 50"" stroke=""black"" stroke-width="".5""/>","null","","","","","","","",""
"","html-keyboard-response","95","264982","0.0-4.0-1.0-1.4","o23884ukxg","red","689","","","","","","<svg viewBox=""0 0 100 100"" ><circle cx=""50"" cy=""50"" r=""10"" fill=""none"" transform=""translate( 26  15)"" stroke=""gold"" /><circle cx=""50"" cy=""50"" r=""10"" fill=""none"" transform=""translate(  0  30)"" stroke=""magenta"" /><circle cx=""50"" cy=""50"" r=""10"" fill=""none"" transform=""translate(-26  15)"" stroke=""black"" /><circle cx=""50"" cy=""50"" r=""10"" fill=""none"" transform=""translate(-26 -15)"" stroke=""blueviolet"" /><circle cx=""50"" cy=""50"" r=""10"" fill=""none"" transform=""translate(  0 -30)"" stroke=""cyan"" /><circle cx=""50"" cy=""50"" r=""10"" fill=""none"" transform=""translate( 26 -15)"" stroke=""green"" /><path d=""M 50 57 L 50 43"" stroke=""black"" transform=""translate( 26  15) rotate(45 50 50)""/><path d=""M 50 57 L 50 43"" stroke=""black"" transform=""translate(  0  30) rotate(45 50 50)""/><path d=""M 50 57 L 50 43"" stroke=""black"" transform=""translate(-26  15) rotate(-45 50 50)""/><path d=""M 50 57 L 50 43"" stroke=""black"" transform=""translate(-26 -15) rotate(-45 50 50)""/><path d=""M 50 57 L 50 43"" stroke=""black"" transform=""translate(  0 -30) rotate(-45 50 50)""/><path d=""M 50 57 L 50 43"" stroke=""black"" transform=""translate( 26 -15) rotate(90 50 50)""/><path d=""M 50 52 L 50 48"" stroke=""black"" stroke-width="".5""/> <path d=""M 52 50 L 48 50"" stroke=""black"" stroke-width="".5""/></svg>","90","VDACtest","green","6th","horizontal","true","low","",""
"","html-keyboard-response","96","267485","0.0-4.0-1.0-2.4","o23884ukxg","red","null","","","","","","<p style=""font-size:300%;""> + 2 points.</p><p style=""font-size:300%"">Total: 14 points.</p>","null","","","","","","","14",""
"","html-keyboard-response","97","269301","0.0-4.0-1.0-0.5","o23884ukxg","red","null","","","","","","<svg viewBox=""0 0 100 100"" > <path d=""M 50 52 L 50 48"" stroke=""black"" stroke-width="".5""/> <path d=""M 52 50 L 48 50"" stroke=""black"" stroke-width="".5""/>","null","","","","","","","",""
"","html-keyboard-response","98","270082","0.0-4.0-1.0-1.5","o23884ukxg","red","780","","","","","","<svg viewBox=""0 0 100 100"" ><circle cx=""50"" cy=""50"" r=""10"" fill=""none"" transform=""translate( 26  15)"" stroke=""gold"" /><circle cx=""50"" cy=""50"" r=""10"" fill=""none"" transform=""translate(  0  30)"" stroke=""cyan"" /><circle cx=""50"" cy=""50"" r=""10"" fill=""none"" transform=""translate(-26  15)"" stroke=""blueviolet"" /><circle cx=""50"" cy=""50"" r=""10"" fill=""none"" transform=""translate(-26 -15)"" stroke=""black"" /><circle cx=""50"" cy=""50"" r=""10"" fill=""none"" transform=""translate(  0 -30)"" stroke=""magenta"" /><circle cx=""50"" cy=""50"" r=""10"" fill=""none"" transform=""translate( 26 -15)"" stroke=""red"" /><path d=""M 50 57 L 50 43"" stroke=""black"" transform=""translate( 26  15) rotate(45 50 50)""/><path d=""M 50 57 L 50 43"" stroke=""black"" transform=""translate(  0  30) rotate(-45 50 50)""/><path d=""M 50 57 L 50 43"" stroke=""black"" transform=""translate(-26  15) rotate(45 50 50)""/><path d=""M 50 57 L 50 43"" stroke=""black"" transform=""translate(-26 -15) rotate(45 50 50)""/><path d=""M 50 57 L 50 43"" stroke=""black"" transform=""translate(  0 -30) rotate(-45 50 50)""/><path d=""M 50 57 L 50 43"" stroke=""black"" transform=""translate( 26 -15) rotate(90 50 50)""/><path d=""M 50 52 L 50 48"" stroke=""black"" stroke-width="".5""/> <path d=""M 52 50 L 48 50"" stroke=""black"" stroke-width="".5""/></svg>","77","VDACtest","red","6th","horizontal","false","high","",""
"","html-keyboard-response","99","272586","0.0-4.0-1.0-2.5","o23884ukxg","red","null","","","","","","<p style=""font-size:300%;"">Miss.</p><p style=""font-size:300%"">Total: 14 points.</p>","null","","","","","","","14",""
"","html-keyboard-response","100","274404","0.0-4.0-1.0-0.6","o23884ukxg","red","null","","","","","","<svg viewBox=""0 0 100 100"" > <path d=""M 50 52 L 50 48"" stroke=""black"" stroke-width="".5""/> <path d=""M 52 50 L 48 50"" stroke=""black"" stroke-width="".5""/>","null","","","","","","","",""
"","html-keyboard-response","101","275151","0.0-4.0-1.0-1.6","o23884ukxg","red","746","","","","","","<svg viewBox=""0 0 100 100"" ><circle cx=""50"" cy=""50"" r=""10"" fill=""none"" transform=""translate( 26  15)"" stroke=""red"" /><circle cx=""50"" cy=""50"" r=""10"" fill=""none"" transform=""translate(  0  30)"" stroke=""cyan"" /><circle cx=""50"" cy=""50"" r=""10"" fill=""none"" transform=""translate(-26  15)"" stroke=""gold"" /><circle cx=""50"" cy=""50"" r=""10"" fill=""none"" transform=""translate(-26 -15)"" stroke=""black"" /><circle cx=""50"" cy=""50"" r=""10"" fill=""none"" transform=""translate(  0 -30)"" stroke=""blueviolet"" /><circle cx=""50"" cy=""50"" r=""10"" fill=""none"" transform=""translate( 26 -15)"" stroke=""magenta"" /><path d=""M 50 57 L 50 43"" stroke=""black"" transform=""translate( 26  15) rotate(0 50 50)""/><path d=""M 50 57 L 50 43"" stroke=""black"" transform=""translate(  0  30) rotate(-45 50 50)""/><path d=""M 50 57 L 50 43"" stroke=""black"" transform=""translate(-26  15) rotate(-45 50 50)""/><path d=""M 50 57 L 50 43"" stroke=""black"" transform=""translate(-26 -15) rotate(-45 50 50)""/><path d=""M 50 57 L 50 43"" stroke=""black"" transform=""translate(  0 -30) rotate(-45 50 50)""/><path d=""M 50 57 L 50 43"" stroke=""black"" transform=""translate( 26 -15) rotate(45 50 50)""/><path d=""M 50 52 L 50 48"" stroke=""black"" stroke-width="".5""/> <path d=""M 52 50 L 48 50"" stroke=""black"" stroke-width="".5""/></svg>","77","VDACtest","red","1st","vertical","true","high","",""
"","html-keyboard-response","102","277655","0.0-4.0-1.0-2.6","o23884ukxg","red","null","","","","","","<p style=""font-size:300%;""> + 10 points.</p><p style=""font-size:300%"">Total: 24 points.</p>","null","","","","","","","24",""
"","html-keyboard-response","103","279471","0.0-4.0-1.0-0.7","o23884ukxg","red","null","","","","","","<svg viewBox=""0 0 100 100"" > <path d=""M 50 52 L 50 48"" stroke=""black"" stroke-width="".5""/> <path d=""M 52 50 L 48 50"" stroke=""black"" stroke-width="".5""/>","null","","","","","","","",""
"","html-keyboard-response","104","280474","0.0-4.0-1.0-1.7","o23884ukxg","red","null","","","","","","<svg viewBox=""0 0 100 100"" ><circle cx=""50"" cy=""50"" r=""10"" fill=""none"" transform=""translate( 26  15)"" stroke=""black"" /><circle cx=""50"" cy=""50"" r=""10"" fill=""none"" transform=""translate(  0  30)"" stroke=""gold"" /><circle cx=""50"" cy=""50"" r=""10"" fill=""none"" transform=""translate(-26  15)"" stroke=""green"" /><circle cx=""50"" cy=""50"" r=""10"" fill=""none"" transform=""translate(-26 -15)"" stroke=""magenta"" /><circle cx=""50"" cy=""50"" r=""10"" fill=""none"" transform=""translate(  0 -30)"" stroke=""blueviolet"" /><circle cx=""50"" cy=""50"" r=""10"" fill=""none"" transform=""translate( 26 -15)"" stroke=""cyan"" /><path d=""M 50 57 L 50 43"" stroke=""black"" transform=""translate( 26  15) rotate(-45 50 50)""/><path d=""M 50 57 L 50 43"" stroke=""black"" transform=""translate(  0  30) rotate(45 50 50)""/><path d=""M 50 57 L 50 43"" stroke=""black"" transform=""translate(-26  15) rotate(90 50 50)""/><path d=""M 50 57 L 50 43"" stroke=""black"" transform=""translate(-26 -15) rotate(45 50 50)""/><path d=""M 50 57 L 50 43"" stroke=""black"" transform=""translate(  0 -30) rotate(45 50 50)""/><path d=""M 50 57 L 50 43"" stroke=""black"" transform=""translate( 26 -15) rotate(45 50 50)""/><path d=""M 50 52 L 50 48"" stroke=""black"" stroke-width="".5""/> <path d=""M 52 50 L 48 50"" stroke=""black"" stroke-width="".5""/></svg>","null","VDACtest","green","3rd","horizontal","null","low","",""
"","html-keyboard-response","105","282978","0.0-4.0-1.0-2.7","o23884ukxg","red","null","","","","","","<p style=""font-size:300%;"">Miss.</p><p style=""font-size:300%"">Total: 24 points.</p>","null","","","","","","","24",""
"","html-keyboard-response","106","284793","0.0-4.0-1.0-0.8","o23884ukxg","red","null","","","","","","<svg viewBox=""0 0 100 100"" > <path d=""M 50 52 L 50 48"" stroke=""black"" stroke-width="".5""/> <path d=""M 52 50 L 48 50"" stroke=""black"" stroke-width="".5""/>","null","","","","","","","",""
"","html-keyboard-response","107","285276","0.0-4.0-1.0-1.8","o23884ukxg","red","483","","","","","","<svg viewBox=""0 0 100 100"" ><circle cx=""50"" cy=""50"" r=""10"" fill=""none"" transform=""translate( 26  15)"" stroke=""black"" /><circle cx=""50"" cy=""50"" r=""10"" fill=""none"" transform=""translate(  0  30)"" stroke=""blueviolet"" /><circle cx=""50"" cy=""50"" r=""10"" fill=""none"" transform=""translate(-26  15)"" stroke=""gold"" /><circle cx=""50"" cy=""50"" r=""10"" fill=""none"" transform=""translate(-26 -15)"" stroke=""cyan"" /><circle cx=""50"" cy=""50"" r=""10"" fill=""none"" transform=""translate(  0 -30)"" stroke=""magenta"" /><circle cx=""50"" cy=""50"" r=""10"" fill=""none"" transform=""translate( 26 -15)"" stroke=""green"" /><path d=""M 50 57 L 50 43"" stroke=""black"" transform=""translate( 26  15) rotate(45 50 50)""/><path d=""M 50 57 L 50 43"" stroke=""black"" transform=""translate(  0  30) rotate(45 50 50)""/><path d=""M 50 57 L 50 43"" stroke=""black"" transform=""translate(-26  15) rotate(-45 50 50)""/><path d=""M 50 57 L 50 43"" stroke=""black"" transform=""translate(-26 -15) rotate(-45 50 50)""/><path d=""M 50 57 L 50 43"" stroke=""black"" transform=""translate(  0 -30) rotate(45 50 50)""/><path d=""M 50 57 L 50 43"" stroke=""black"" transform=""translate( 26 -15) rotate(0 50 50)""/><path d=""M 50 52 L 50 48"" stroke=""black"" stroke-width="".5""/> <path d=""M 52 50 L 48 50"" stroke=""black"" stroke-width="".5""/></svg>","77","VDACtest","green","6th","vertical","true","low","",""
"","html-keyboard-response","108","287779","0.0-4.0-1.0-2.8","o23884ukxg","red","null","","","","","","<p style=""font-size:300%;""> + 2 points.</p><p style=""font-size:300%"">Total: 26 points.</p>","null","","","","","","","26",""
"","html-keyboard-response","109","289593","0.0-4.0-1.0-0.9","o23884ukxg","red","null","","","","","","<svg viewBox=""0 0 100 100"" > <path d=""M 50 52 L 50 48"" stroke=""black"" stroke-width="".5""/> <path d=""M 52 50 L 48 50"" stroke=""black"" stroke-width="".5""/>","null","","","","","","","",""
"","html-keyboard-response","110","290436","0.0-4.0-1.0-1.9","o23884ukxg","red","842","","","","","","<svg viewBox=""0 0 100 100"" ><circle cx=""50"" cy=""50"" r=""10"" fill=""none"" transform=""translate( 26  15)"" stroke=""blueviolet"" /><circle cx=""50"" cy=""50"" r=""10"" fill=""none"" transform=""translate(  0  30)"" stroke=""cyan"" /><circle cx=""50"" cy=""50"" r=""10"" fill=""none"" transform=""translate(-26  15)"" stroke=""gold"" /><circle cx=""50"" cy=""50"" r=""10"" fill=""none"" transform=""translate(-26 -15)"" stroke=""black"" /><circle cx=""50"" cy=""50"" r=""10"" fill=""none"" transform=""translate(  0 -30)"" stroke=""magenta"" /><circle cx=""50"" cy=""50"" r=""10"" fill=""none"" transform=""translate( 26 -15)"" stroke=""red"" /><path d=""M 50 57 L 50 43"" stroke=""black"" transform=""translate( 26  15) rotate(45 50 50)""/><path d=""M 50 57 L 50 43"" stroke=""black"" transform=""translate(  0  30) rotate(-45 50 50)""/><path d=""M 50 57 L 50 43"" stroke=""black"" transform=""translate(-26  15) rotate(-45 50 50)""/><path d=""M 50 57 L 50 43"" stroke=""black"" transform=""translate(-26 -15) rotate(45 50 50)""/><path d=""M 50 57 L 50 43"" stroke=""black"" transform=""translate(  0 -30) rotate(45 50 50)""/><path d=""M 50 57 L 50 43"" stroke=""black"" transform=""translate( 26 -15) rotate(90 50 50)""/><path d=""M 50 52 L 50 48"" stroke=""black"" stroke-width="".5""/> <path d=""M 52 50 L 48 50"" stroke=""black"" stroke-width="".5""/></svg>","90","VDACtest","red","6th","horizontal","true","high","",""
"","html-keyboard-response","111","292939","0.0-4.0-1.0-2.9","o23884ukxg","red","null","","","","","","<p style=""font-size:300%;""> + 10 points.</p><p style=""font-size:300%"">Total: 36 points.</p>","null","","","","","","","36",""
"","html-keyboard-response","112","294758","0.0-4.0-1.0-0.10","o23884ukxg","red","null","","","","","","<svg viewBox=""0 0 100 100"" > <path d=""M 50 52 L 50 48"" stroke=""black"" stroke-width="".5""/> <path d=""M 52 50 L 48 50"" stroke=""black"" stroke-width="".5""/>","null","","","","","","","",""
"","html-keyboard-response","113","295371","0.0-4.0-1.0-1.10","o23884ukxg","red","612","","","","","","<svg viewBox=""0 0 100 100"" ><circle cx=""50"" cy=""50"" r=""10"" fill=""none"" transform=""translate( 26  15)"" stroke=""cyan"" /><circle cx=""50"" cy=""50"" r=""10"" fill=""none"" transform=""translate(  0  30)"" stroke=""gold"" /><circle cx=""50"" cy=""50"" r=""10"" fill=""none"" transform=""translate(-26  15)"" stroke=""blueviolet"" /><circle cx=""50"" cy=""50"" r=""10"" fill=""none"" transform=""translate(-26 -15)"" stroke=""black"" /><circle cx=""50"" cy=""50"" r=""10"" fill=""none"" transform=""translate(  0 -30)"" stroke=""red"" /><circle cx=""50"" cy=""50"" r=""10"" fill=""none"" transform=""translate( 26 -15)"" stroke=""magenta"" /><path d=""M 50 57 L 50 43"" stroke=""black"" transform=""translate( 26  15) rotate(-45 50 50)""/><path d=""M 50 57 L 50 43"" stroke=""black"" transform=""translate(  0  30) rotate(45 50 50)""/><path d=""M 50 57 L 50 43"" stroke=""black"" transform=""translate(-26  15) rotate(-45 50 50)""/><path d=""M 50 57 L 50 43"" stroke=""black"" transform=""translate(-26 -15) rotate(-45 50 50)""/><path d=""M 50 57 L 50 43"" stroke=""black"" transform=""translate(  0 -30) rotate(0 50 50)""/><path d=""M 50 57 L 50 43"" stroke=""black"" transform=""translate( 26 -15) rotate(45 50 50)""/><path d=""M 50 52 L 50 48"" stroke=""black"" stroke-width="".5""/> <path d=""M 52 50 L 48 50"" stroke=""black"" stroke-width="".5""/></svg>","77","VDACtest","red","5th","vertical","true","high","",""
"","html-keyboard-response","114","297872","0.0-4.0-1.0-2.10","o23884ukxg","red","null","","","","","","<p style=""font-size:300%;""> + 10 points.</p><p style=""font-size:300%"">Total: 46 points.</p>","null","","","","","","","46",""
"","html-keyboard-response","115","299688","0.0-4.0-1.0-0.11","o23884ukxg","red","null","","","","","","<svg viewBox=""0 0 100 100"" > <path d=""M 50 52 L 50 48"" stroke=""black"" stroke-width="".5""/> <path d=""M 52 50 L 48 50"" stroke=""black"" stroke-width="".5""/>","null","","","","","","","",""
"","html-keyboard-response","116","300155","0.0-4.0-1.0-1.11","o23884ukxg","red","467","","","","","","<svg viewBox=""0 0 100 100"" ><circle cx=""50"" cy=""50"" r=""10"" fill=""none"" transform=""translate( 26  15)"" stroke=""red"" /><circle cx=""50"" cy=""50"" r=""10"" fill=""none"" transform=""translate(  0  30)"" stroke=""magenta"" /><circle cx=""50"" cy=""50"" r=""10"" fill=""none"" transform=""translate(-26  15)"" stroke=""blueviolet"" /><circle cx=""50"" cy=""50"" r=""10"" fill=""none"" transform=""translate(-26 -15)"" stroke=""black"" /><circle cx=""50"" cy=""50"" r=""10"" fill=""none"" transform=""translate(  0 -30)"" stroke=""cyan"" /><circle cx=""50"" cy=""50"" r=""10"" fill=""none"" transform=""translate( 26 -15)"" stroke=""gold"" /><path d=""M 50 57 L 50 43"" stroke=""black"" transform=""translate( 26  15) rotate(0 50 50)""/><path d=""M 50 57 L 50 43"" stroke=""black"" transform=""translate(  0  30) rotate(45 50 50)""/><path d=""M 50 57 L 50 43"" stroke=""black"" transform=""translate(-26  15) rotate(-45 50 50)""/><path d=""M 50 57 L 50 43"" stroke=""black"" transform=""translate(-26 -15) rotate(-45 50 50)""/><path d=""M 50 57 L 50 43"" stroke=""black"" transform=""translate(  0 -30) rotate(45 50 50)""/><path d=""M 50 57 L 50 43"" stroke=""black"" transform=""translate( 26 -15) rotate(45 50 50)""/><path d=""M 50 52 L 50 48"" stroke=""black"" stroke-width="".5""/> <path d=""M 52 50 L 48 50"" stroke=""black"" stroke-width="".5""/></svg>","77","VDACtest","red","1st","vertical","true","high","",""
"","html-keyboard-response","117","302659","0.0-4.0-1.0-2.11","o23884ukxg","red","null","","","","","","<p style=""font-size:300%;""> + 10 points.</p><p style=""font-size:300%"">Total: 56 points.</p>","null","","","","","","","56",""
"","html-keyboard-response","118","304476","0.0-4.0-1.0-0.12","o23884ukxg","red","null","","","","","","<svg viewBox=""0 0 100 100"" > <path d=""M 50 52 L 50 48"" stroke=""black"" stroke-width="".5""/> <path d=""M 52 50 L 48 50"" stroke=""black"" stroke-width="".5""/>","null","","","","","","","",""
"","html-keyboard-response","119","305134","0.0-4.0-1.0-1.12","o23884ukxg","red","658","","","","","","<svg viewBox=""0 0 100 100"" ><circle cx=""50"" cy=""50"" r=""10"" fill=""none"" transform=""translate( 26  15)"" stroke=""black"" /><circle cx=""50"" cy=""50"" r=""10"" fill=""none"" transform=""translate(  0  30)"" stroke=""gold"" /><circle cx=""50"" cy=""50"" r=""10"" fill=""none"" transform=""translate(-26  15)"" stroke=""red"" /><circle cx=""50"" cy=""50"" r=""10"" fill=""none"" transform=""translate(-26 -15)"" stroke=""cyan"" /><circle cx=""50"" cy=""50"" r=""10"" fill=""none"" transform=""translate(  0 -30)"" stroke=""blueviolet"" /><circle cx=""50"" cy=""50"" r=""10"" fill=""none"" transform=""translate( 26 -15)"" stroke=""magenta"" /><path d=""M 50 57 L 50 43"" stroke=""black"" transform=""translate( 26  15) rotate(45 50 50)""/><path d=""M 50 57 L 50 43"" stroke=""black"" transform=""translate(  0  30) rotate(45 50 50)""/><path d=""M 50 57 L 50 43"" stroke=""black"" transform=""translate(-26  15) rotate(0 50 50)""/><path d=""M 50 57 L 50 43"" stroke=""black"" transform=""translate(-26 -15) rotate(-45 50 50)""/><path d=""M 50 57 L 50 43"" stroke=""black"" transform=""translate(  0 -30) rotate(45 50 50)""/><path d=""M 50 57 L 50 43"" stroke=""black"" transform=""translate( 26 -15) rotate(45 50 50)""/><path d=""M 50 52 L 50 48"" stroke=""black"" stroke-width="".5""/> <path d=""M 52 50 L 48 50"" stroke=""black"" stroke-width="".5""/></svg>","77","VDACtest","red","3rd","vertical","true","high","",""
"","html-keyboard-response","120","307635","0.0-4.0-1.0-2.12","o23884ukxg","red","null","","","","","","<p style=""font-size:300%;""> + 2 points.</p><p style=""font-size:300%"">Total: 58 points.</p>","null","","","","","","","58",""
"","html-keyboard-response","121","309450","0.0-4.0-1.0-0.13","o23884ukxg","red","null","","","","","","<svg viewBox=""0 0 100 100"" > <path d=""M 50 52 L 50 48"" stroke=""black"" stroke-width="".5""/> <path d=""M 52 50 L 48 50"" stroke=""black"" stroke-width="".5""/>","null","","","","","","","",""
"","html-keyboard-response","122","310024","0.0-4.0-1.0-1.13","o23884ukxg","red","574","","","","","","<svg viewBox=""0 0 100 100"" ><circle cx=""50"" cy=""50"" r=""10"" fill=""none"" transform=""translate( 26  15)"" stroke=""blueviolet"" /><circle cx=""50"" cy=""50"" r=""10"" fill=""none"" transform=""translate(  0  30)"" stroke=""gold"" /><circle cx=""50"" cy=""50"" r=""10"" fill=""none"" transform=""translate(-26  15)"" stroke=""red"" /><circle cx=""50"" cy=""50"" r=""10"" fill=""none"" transform=""translate(-26 -15)"" stroke=""magenta"" /><circle cx=""50"" cy=""50"" r=""10"" fill=""none"" transform=""translate(  0 -30)"" stroke=""black"" /><circle cx=""50"" cy=""50"" r=""10"" fill=""none"" transform=""translate( 26 -15)"" stroke=""cyan"" /><path d=""M 50 57 L 50 43"" stroke=""black"" transform=""translate( 26  15) rotate(-45 50 50)""/><path d=""M 50 57 L 50 43"" stroke=""black"" transform=""translate(  0  30) rotate(-45 50 50)""/><path d=""M 50 57 L 50 43"" stroke=""black"" transform=""translate(-26  15) rotate(0 50 50)""/><path d=""M 50 57 L 50 43"" stroke=""black"" transform=""translate(-26 -15) rotate(45 50 50)""/><path d=""M 50 57 L 50 43"" stroke=""black"" transform=""translate(  0 -30) rotate(-45 50 50)""/><path d=""M 50 57 L 50 43"" stroke=""black"" transform=""translate( 26 -15) rotate(45 50 50)""/><path d=""M 50 52 L 50 48"" stroke=""black"" stroke-width="".5""/> <path d=""M 52 50 L 48 50"" stroke=""black"" stroke-width="".5""/></svg>","77","VDACtest","red","3rd","vertical","true","high","",""
"","html-keyboard-response","123","312529","0.0-4.0-1.0-2.13","o23884ukxg","red","null","","","","","","<p style=""font-size:300%;""> + 2 points.</p><p style=""font-size:300%"">Total: 60 points.</p>","null","","","","","","","60",""
"","html-keyboard-response","124","314348","0.0-4.0-1.0-0.14","o23884ukxg","red","null","","","","","","<svg viewBox=""0 0 100 100"" > <path d=""M 50 52 L 50 48"" stroke=""black"" stroke-width="".5""/> <path d=""M 52 50 L 48 50"" stroke=""black"" stroke-width="".5""/>","null","","","","","","","",""
"","html-keyboard-response","125","315019","0.0-4.0-1.0-1.14","o23884ukxg","red","671","","","","","","<svg viewBox=""0 0 100 100"" ><circle cx=""50"" cy=""50"" r=""10"" fill=""none"" transform=""translate( 26  15)"" stroke=""black"" /><circle cx=""50"" cy=""50"" r=""10"" fill=""none"" transform=""translate(  0  30)"" stroke=""green"" /><circle cx=""50"" cy=""50"" r=""10"" fill=""none"" transform=""translate(-26  15)"" stroke=""blueviolet"" /><circle cx=""50"" cy=""50"" r=""10"" fill=""none"" transform=""translate(-26 -15)"" stroke=""gold"" /><circle cx=""50"" cy=""50"" r=""10"" fill=""none"" transform=""translate(  0 -30)"" stroke=""magenta"" /><circle cx=""50"" cy=""50"" r=""10"" fill=""none"" transform=""translate( 26 -15)"" stroke=""cyan"" /><path d=""M 50 57 L 50 43"" stroke=""black"" transform=""translate( 26  15) rotate(-45 50 50)""/><path d=""M 50 57 L 50 43"" stroke=""black"" transform=""translate(  0  30) rotate(90 50 50)""/><path d=""M 50 57 L 50 43"" stroke=""black"" transform=""translate(-26  15) rotate(-45 50 50)""/><path d=""M 50 57 L 50 43"" stroke=""black"" transform=""translate(-26 -15) rotate(45 50 50)""/><path d=""M 50 57 L 50 43"" stroke=""black"" transform=""translate(  0 -30) rotate(-45 50 50)""/><path d=""M 50 57 L 50 43"" stroke=""black"" transform=""translate( 26 -15) rotate(-45 50 50)""/><path d=""M 50 52 L 50 48"" stroke=""black"" stroke-width="".5""/> <path d=""M 52 50 L 48 50"" stroke=""black"" stroke-width="".5""/></svg>","90","VDACtest","green","2nd","horizontal","true","low","",""
"","html-keyboard-response","126","317521","0.0-4.0-1.0-2.14","o23884ukxg","red","null","","","","","","<p style=""font-size:300%;""> + 2 points.</p><p style=""font-size:300%"">Total: 62 points.</p>","null","","","","","","","62",""
"","html-keyboard-response","127","319337","0.0-4.0-1.0-0.15","o23884ukxg","red","null","","","","","","<svg viewBox=""0 0 100 100"" > <path d=""M 50 52 L 50 48"" stroke=""black"" stroke-width="".5""/> <path d=""M 52 50 L 48 50"" stroke=""black"" stroke-width="".5""/>","null","","","","","","","",""
"","html-keyboard-response","128","320163","0.0-4.0-1.0-1.15","o23884ukxg","red","826","","","","","","<svg viewBox=""0 0 100 100"" ><circle cx=""50"" cy=""50"" r=""10"" fill=""none"" transform=""translate( 26  15)"" stroke=""magenta"" /><circle cx=""50"" cy=""50"" r=""10"" fill=""none"" transform=""translate(  0  30)"" stroke=""cyan"" /><circle cx=""50"" cy=""50"" r=""10"" fill=""none"" transform=""translate(-26  15)"" stroke=""blueviolet"" /><circle cx=""50"" cy=""50"" r=""10"" fill=""none"" transform=""translate(-26 -15)"" stroke=""gold"" /><circle cx=""50"" cy=""50"" r=""10"" fill=""none"" transform=""translate(  0 -30)"" stroke=""red"" /><circle cx=""50"" cy=""50"" r=""10"" fill=""none"" transform=""translate( 26 -15)"" stroke=""black"" /><path d=""M 50 57 L 50 43"" stroke=""black"" transform=""translate( 26  15) rotate(45 50 50)""/><path d=""M 50 57 L 50 43"" stroke=""black"" transform=""translate(  0  30) rotate(45 50 50)""/><path d=""M 50 57 L 50 43"" stroke=""black"" transform=""translate(-26  15) rotate(45 50 50)""/><path d=""M 50 57 L 50 43"" stroke=""black"" transform=""translate(-26 -15) rotate(45 50 50)""/><path d=""M 50 57 L 50 43"" stroke=""black"" transform=""translate(  0 -30) rotate(90 50 50)""/><path d=""M 50 57 L 50 43"" stroke=""black"" transform=""translate( 26 -15) rotate(-45 50 50)""/><path d=""M 50 52 L 50 48"" stroke=""black"" stroke-width="".5""/> <path d=""M 52 50 L 48 50"" stroke=""black"" stroke-width="".5""/></svg>","77","VDACtest","red","5th","horizontal","false","high","",""
"","html-keyboard-response","129","322667","0.0-4.0-1.0-2.15","o23884ukxg","red","null","","","","","","<p style=""font-size:300%;"">Miss.</p><p style=""font-size:300%"">Total: 62 points.</p>","null","","","","","","","62",""
"","html-keyboard-response","130","324483","0.0-4.0-1.0-0.16","o23884ukxg","red","null","","","","","","<svg viewBox=""0 0 100 100"" > <path d=""M 50 52 L 50 48"" stroke=""black"" stroke-width="".5""/> <path d=""M 52 50 L 48 50"" stroke=""black"" stroke-width="".5""/>","null","","","","","","","",""
"","html-keyboard-response","131","325173","0.0-4.0-1.0-1.16","o23884ukxg","red","689","","","","","","<svg viewBox=""0 0 100 100"" ><circle cx=""50"" cy=""50"" r=""10"" fill=""none"" transform=""translate( 26  15)"" stroke=""magenta"" /><circle cx=""50"" cy=""50"" r=""10"" fill=""none"" transform=""translate(  0  30)"" stroke=""cyan"" /><circle cx=""50"" cy=""50"" r=""10"" fill=""none"" transform=""translate(-26  15)"" stroke=""gold"" /><circle cx=""50"" cy=""50"" r=""10"" fill=""none"" transform=""translate(-26 -15)"" stroke=""blueviolet"" /><circle cx=""50"" cy=""50"" r=""10"" fill=""none"" transform=""translate(  0 -30)"" stroke=""green"" /><circle cx=""50"" cy=""50"" r=""10"" fill=""none"" transform=""translate( 26 -15)"" stroke=""black"" /><path d=""M 50 57 L 50 43"" stroke=""black"" transform=""translate( 26  15) rotate(-45 50 50)""/><path d=""M 50 57 L 50 43"" stroke=""black"" transform=""translate(  0  30) rotate(-45 50 50)""/><path d=""M 50 57 L 50 43"" stroke=""black"" transform=""translate(-26  15) rotate(45 50 50)""/><path d=""M 50 57 L 50 43"" stroke=""black"" transform=""translate(-26 -15) rotate(-45 50 50)""/><path d=""M 50 57 L 50 43"" stroke=""black"" transform=""translate(  0 -30) rotate(90 50 50)""/><path d=""M 50 57 L 50 43"" stroke=""black"" transform=""translate( 26 -15) rotate(-45 50 50)""/><path d=""M 50 52 L 50 48"" stroke=""black"" stroke-width="".5""/> <path d=""M 52 50 L 48 50"" stroke=""black"" stroke-width="".5""/></svg>","90","VDACtest","green","5th","horizontal","true","low","",""
"","html-keyboard-response","132","327678","0.0-4.0-1.0-2.16","o23884ukxg","red","null","","","","","","<p style=""font-size:300%;""> + 2 points.</p><p style=""font-size:300%"">Total: 64 points.</p>","null","","","","","","","64",""
"","html-keyboard-response","133","329491","0.0-4.0-1.0-0.17","o23884ukxg","red","null","","","","","","<svg viewBox=""0 0 100 100"" > <path d=""M 50 52 L 50 48"" stroke=""black"" stroke-width="".5""/> <path d=""M 52 50 L 48 50"" stroke=""black"" stroke-width="".5""/>","null","","","","","","","",""
"","html-keyboard-response","134","330003","0.0-4.0-1.0-1.17","o23884ukxg","red","511","","","","","","<svg viewBox=""0 0 100 100"" ><circle cx=""50"" cy=""50"" r=""10"" fill=""none"" transform=""translate( 26  15)"" stroke=""green"" /><circle cx=""50"" cy=""50"" r=""10"" fill=""none"" transform=""translate(  0  30)"" stroke=""cyan"" /><circle cx=""50"" cy=""50"" r=""10"" fill=""none"" transform=""translate(-26  15)"" stroke=""gold"" /><circle cx=""50"" cy=""50"" r=""10"" fill=""none"" transform=""translate(-26 -15)"" stroke=""black"" /><circle cx=""50"" cy=""50"" r=""10"" fill=""none"" transform=""translate(  0 -30)"" stroke=""blueviolet"" /><circle cx=""50"" cy=""50"" r=""10"" fill=""none"" transform=""translate( 26 -15)"" stroke=""magenta"" /><path d=""M 50 57 L 50 43"" stroke=""black"" transform=""translate( 26  15) rotate(90 50 50)""/><path d=""M 50 57 L 50 43"" stroke=""black"" transform=""translate(  0  30) rotate(-45 50 50)""/><path d=""M 50 57 L 50 43"" stroke=""black"" transform=""translate(-26  15) rotate(-45 50 50)""/><path d=""M 50 57 L 50 43"" stroke=""black"" transform=""translate(-26 -15) rotate(-45 50 50)""/><path d=""M 50 57 L 50 43"" stroke=""black"" transform=""translate(  0 -30) rotate(-45 50 50)""/><path d=""M 50 57 L 50 43"" stroke=""black"" transform=""translate( 26 -15) rotate(45 50 50)""/><path d=""M 50 52 L 50 48"" stroke=""black"" stroke-width="".5""/> <path d=""M 52 50 L 48 50"" stroke=""black"" stroke-width="".5""/></svg>","77","VDACtest","green","1st","horizontal","false","low","",""
"","html-keyboard-response","135","332507","0.0-4.0-1.0-2.17","o23884ukxg","red","null","","","","","","<p style=""font-size:300%;"">Miss.</p><p style=""font-size:300%"">Total: 64 points.</p>","null","","","","","","","64",""
"","html-keyboard-response","136","334325","0.0-4.0-1.0-0.18","o23884ukxg","red","null","","","","","","<svg viewBox=""0 0 100 100"" > <path d=""M 50 52 L 50 48"" stroke=""black"" stroke-width="".5""/> <path d=""M 52 50 L 48 50"" stroke=""black"" stroke-width="".5""/>","null","","","","","","","",""
"","html-keyboard-response","137","335043","0.0-4.0-1.0-1.18","o23884ukxg","red","717","","","","","","<svg viewBox=""0 0 100 100"" ><circle cx=""50"" cy=""50"" r=""10"" fill=""none"" transform=""translate( 26  15)"" stroke=""cyan"" /><circle cx=""50"" cy=""50"" r=""10"" fill=""none"" transform=""translate(  0  30)"" stroke=""green"" /><circle cx=""50"" cy=""50"" r=""10"" fill=""none"" transform=""translate(-26  15)"" stroke=""blueviolet"" /><circle cx=""50"" cy=""50"" r=""10"" fill=""none"" transform=""translate(-26 -15)"" stroke=""black"" /><circle cx=""50"" cy=""50"" r=""10"" fill=""none"" transform=""translate(  0 -30)"" stroke=""gold"" /><circle cx=""50"" cy=""50"" r=""10"" fill=""none"" transform=""translate( 26 -15)"" stroke=""magenta"" /><path d=""M 50 57 L 50 43"" stroke=""black"" transform=""translate( 26  15) rotate(45 50 50)""/><path d=""M 50 57 L 50 43"" stroke=""black"" transform=""translate(  0  30) rotate(0 50 50)""/><path d=""M 50 57 L 50 43"" stroke=""black"" transform=""translate(-26  15) rotate(45 50 50)""/><path d=""M 50 57 L 50 43"" stroke=""black"" transform=""translate(-26 -15) rotate(45 50 50)""/><path d=""M 50 57 L 50 43"" stroke=""black"" transform=""translate(  0 -30) rotate(45 50 50)""/><path d=""M 50 57 L 50 43"" stroke=""black"" transform=""translate( 26 -15) rotate(-45 50 50)""/><path d=""M 50 52 L 50 48"" stroke=""black"" stroke-width="".5""/> <path d=""M 52 50 L 48 50"" stroke=""black"" stroke-width="".5""/></svg>","77","VDACtest","green","2nd","vertical","true","low","",""
"","html-keyboard-response","138","337546","0.0-4.0-1.0-2.18","o23884ukxg","red","null","","","","","","<p style=""font-size:300%;""> + 2 points.</p><p style=""font-size:300%"">Total: 66 points.</p>","null","","","","","","","66",""
"","html-keyboard-response","139","339367","0.0-4.0-1.0-0.19","o23884ukxg","red","null","","","","","","<svg viewBox=""0 0 100 100"" > <path d=""M 50 52 L 50 48"" stroke=""black"" stroke-width="".5""/> <path d=""M 52 50 L 48 50"" stroke=""black"" stroke-width="".5""/>","null","","","","","","","",""
"","html-keyboard-response","140","339947","0.0-4.0-1.0-1.19","o23884ukxg","red","579","","","","","","<svg viewBox=""0 0 100 100"" ><circle cx=""50"" cy=""50"" r=""10"" fill=""none"" transform=""translate( 26  15)"" stroke=""green"" /><circle cx=""50"" cy=""50"" r=""10"" fill=""none"" transform=""translate(  0  30)"" stroke=""magenta"" /><circle cx=""50"" cy=""50"" r=""10"" fill=""none"" transform=""translate(-26  15)"" stroke=""blueviolet"" /><circle cx=""50"" cy=""50"" r=""10"" fill=""none"" transform=""translate(-26 -15)"" stroke=""cyan"" /><circle cx=""50"" cy=""50"" r=""10"" fill=""none"" transform=""translate(  0 -30)"" stroke=""black"" /><circle cx=""50"" cy=""50"" r=""10"" fill=""none"" transform=""translate( 26 -15)"" stroke=""gold"" /><path d=""M 50 57 L 50 43"" stroke=""black"" transform=""translate( 26  15) rotate(0 50 50)""/><path d=""M 50 57 L 50 43"" stroke=""black"" transform=""translate(  0  30) rotate(-45 50 50)""/><path d=""M 50 57 L 50 43"" stroke=""black"" transform=""translate(-26  15) rotate(45 50 50)""/><path d=""M 50 57 L 50 43"" stroke=""black"" transform=""translate(-26 -15) rotate(-45 50 50)""/><path d=""M 50 57 L 50 43"" stroke=""black"" transform=""translate(  0 -30) rotate(45 50 50)""/><path d=""M 50 57 L 50 43"" stroke=""black"" transform=""translate( 26 -15) rotate(-45 50 50)""/><path d=""M 50 52 L 50 48"" stroke=""black"" stroke-width="".5""/> <path d=""M 52 50 L 48 50"" stroke=""black"" stroke-width="".5""/></svg>","77","VDACtest","green","1st","vertical","true","low","",""
"","html-keyboard-response","141","342452","0.0-4.0-1.0-2.19","o23884ukxg","red","null","","","","","","<p style=""font-size:300%;""> + 2 points.</p><p style=""font-size:300%"">Total: 68 points.</p>","null","","","","","","","68",""
"","html-keyboard-response","142","344269","0.0-4.0-1.0-0.20","o23884ukxg","red","null","","","","","","<svg viewBox=""0 0 100 100"" > <path d=""M 50 52 L 50 48"" stroke=""black"" stroke-width="".5""/> <path d=""M 52 50 L 48 50"" stroke=""black"" stroke-width="".5""/>","null","","","","","","","",""
"","html-keyboard-response","143","345152","0.0-4.0-1.0-1.20","o23884ukxg","red","882","","","","","","<svg viewBox=""0 0 100 100"" ><circle cx=""50"" cy=""50"" r=""10"" fill=""none"" transform=""translate( 26  15)"" stroke=""black"" /><circle cx=""50"" cy=""50"" r=""10"" fill=""none"" transform=""translate(  0  30)"" stroke=""cyan"" /><circle cx=""50"" cy=""50"" r=""10"" fill=""none"" transform=""translate(-26  15)"" stroke=""gold"" /><circle cx=""50"" cy=""50"" r=""10"" fill=""none"" transform=""translate(-26 -15)"" stroke=""blueviolet"" /><circle cx=""50"" cy=""50"" r=""10"" fill=""none"" transform=""translate(  0 -30)"" stroke=""red"" /><circle cx=""50"" cy=""50"" r=""10"" fill=""none"" transform=""translate( 26 -15)"" stroke=""magenta"" /><path d=""M 50 57 L 50 43"" stroke=""black"" transform=""translate( 26  15) rotate(45 50 50)""/><path d=""M 50 57 L 50 43"" stroke=""black"" transform=""translate(  0  30) rotate(45 50 50)""/><path d=""M 50 57 L 50 43"" stroke=""black"" transform=""translate(-26  15) rotate(-45 50 50)""/><path d=""M 50 57 L 50 43"" stroke=""black"" transform=""translate(-26 -15) rotate(-45 50 50)""/><path d=""M 50 57 L 50 43"" stroke=""black"" transform=""translate(  0 -30) rotate(0 50 50)""/><path d=""M 50 57 L 50 43"" stroke=""black"" transform=""translate( 26 -15) rotate(-45 50 50)""/><path d=""M 50 52 L 50 48"" stroke=""black"" stroke-width="".5""/> <path d=""M 52 50 L 48 50"" stroke=""black"" stroke-width="".5""/></svg>","77","VDACtest","red","5th","vertical","true","high","",""
"","html-keyboard-response","144","347654","0.0-4.0-1.0-2.20","o23884ukxg","red","null","","","","","","<p style=""font-size:300%;""> + 10 points.</p><p style=""font-size:300%"">Total: 78 points.</p>","null","","","","","","","78",""
"","html-keyboard-response","145","349470","0.0-4.0-1.0-0.21","o23884ukxg","red","null","","","","","","<svg viewBox=""0 0 100 100"" > <path d=""M 50 52 L 50 48"" stroke=""black"" stroke-width="".5""/> <path d=""M 52 50 L 48 50"" stroke=""black"" stroke-width="".5""/>","null","","","","","","","",""
"","html-keyboard-response","146","350473","0.0-4.0-1.0-1.21","o23884ukxg","red","null","","","","","","<svg viewBox=""0 0 100 100"" ><circle cx=""50"" cy=""50"" r=""10"" fill=""none"" transform=""translate( 26  15)"" stroke=""magenta"" /><circle cx=""50"" cy=""50"" r=""10"" fill=""none"" transform=""translate(  0  30)"" stroke=""blueviolet"" /><circle cx=""50"" cy=""50"" r=""10"" fill=""none"" transform=""translate(-26  15)"" stroke=""cyan"" /><circle cx=""50"" cy=""50"" r=""10"" fill=""none"" transform=""translate(-26 -15)"" stroke=""gold"" /><circle cx=""50"" cy=""50"" r=""10"" fill=""none"" transform=""translate(  0 -30)"" stroke=""black"" /><circle cx=""50"" cy=""50"" r=""10"" fill=""none"" transform=""translate( 26 -15)"" stroke=""red"" /><path d=""M 50 57 L 50 43"" stroke=""black"" transform=""translate( 26  15) rotate(-45 50 50)""/><path d=""M 50 57 L 50 43"" stroke=""black"" transform=""translate(  0  30) rotate(45 50 50)""/><path d=""M 50 57 L 50 43"" stroke=""black"" transform=""translate(-26  15) rotate(-45 50 50)""/><path d=""M 50 57 L 50 43"" stroke=""black"" transform=""translate(-26 -15) rotate(45 50 50)""/><path d=""M 50 57 L 50 43"" stroke=""black"" transform=""translate(  0 -30) rotate(-45 50 50)""/><path d=""M 50 57 L 50 43"" stroke=""black"" transform=""translate( 26 -15) rotate(0 50 50)""/><path d=""M 50 52 L 50 48"" stroke=""black"" stroke-width="".5""/> <path d=""M 52 50 L 48 50"" stroke=""black"" stroke-width="".5""/></svg>","null","VDACtest","red","6th","vertical","null","high","",""
"","html-keyboard-response","147","352973","0.0-4.0-1.0-2.21","o23884ukxg","red","null","","","","","","<p style=""font-size:300%;"">Miss.</p><p style=""font-size:300%"">Total: 78 points.</p>","null","","","","","","","78",""
"","html-keyboard-response","148","354787","0.0-4.0-1.0-0.22","o23884ukxg","red","null","","","","","","<svg viewBox=""0 0 100 100"" > <path d=""M 50 52 L 50 48"" stroke=""black"" stroke-width="".5""/> <path d=""M 52 50 L 48 50"" stroke=""black"" stroke-width="".5""/>","null","","","","","","","",""
"","html-keyboard-response","149","355471","0.0-4.0-1.0-1.22","o23884ukxg","red","683","","","","","","<svg viewBox=""0 0 100 100"" ><circle cx=""50"" cy=""50"" r=""10"" fill=""none"" transform=""translate( 26  15)"" stroke=""black"" /><circle cx=""50"" cy=""50"" r=""10"" fill=""none"" transform=""translate(  0  30)"" stroke=""gold"" /><circle cx=""50"" cy=""50"" r=""10"" fill=""none"" transform=""translate(-26  15)"" stroke=""red"" /><circle cx=""50"" cy=""50"" r=""10"" fill=""none"" transform=""translate(-26 -15)"" stroke=""cyan"" /><circle cx=""50"" cy=""50"" r=""10"" fill=""none"" transform=""translate(  0 -30)"" stroke=""magenta"" /><circle cx=""50"" cy=""50"" r=""10"" fill=""none"" transform=""translate( 26 -15)"" stroke=""blueviolet"" /><path d=""M 50 57 L 50 43"" stroke=""black"" transform=""translate( 26  15) rotate(45 50 50)""/><path d=""M 50 57 L 50 43"" stroke=""black"" transform=""translate(  0  30) rotate(45 50 50)""/><path d=""M 50 57 L 50 43"" stroke=""black"" transform=""translate(-26  15) rotate(0 50 50)""/><path d=""M 50 57 L 50 43"" stroke=""black"" transform=""translate(-26 -15) rotate(-45 50 50)""/><path d=""M 50 57 L 50 43"" stroke=""black"" transform=""translate(  0 -30) rotate(45 50 50)""/><path d=""M 50 57 L 50 43"" stroke=""black"" transform=""translate( 26 -15) rotate(-45 50 50)""/><path d=""M 50 52 L 50 48"" stroke=""black"" stroke-width="".5""/> <path d=""M 52 50 L 48 50"" stroke=""black"" stroke-width="".5""/></svg>","90","VDACtest","red","3rd","vertical","false","high","",""
"","html-keyboard-response","150","357973","0.0-4.0-1.0-2.22","o23884ukxg","red","null","","","","","","<p style=""font-size:300%;"">Miss.</p><p style=""font-size:300%"">Total: 78 points.</p>","null","","","","","","","78",""
"","html-keyboard-response","151","359787","0.0-4.0-1.0-0.23","o23884ukxg","red","null","","","","","","<svg viewBox=""0 0 100 100"" > <path d=""M 50 52 L 50 48"" stroke=""black"" stroke-width="".5""/> <path d=""M 52 50 L 48 50"" stroke=""black"" stroke-width="".5""/>","null","","","","","","","",""
"","html-keyboard-response","152","360601","0.0-4.0-1.0-1.23","o23884ukxg","red","814","","","","","","<svg viewBox=""0 0 100 100"" ><circle cx=""50"" cy=""50"" r=""10"" fill=""none"" transform=""translate( 26  15)"" stroke=""magenta"" /><circle cx=""50"" cy=""50"" r=""10"" fill=""none"" transform=""translate(  0  30)"" stroke=""black"" /><circle cx=""50"" cy=""50"" r=""10"" fill=""none"" transform=""translate(-26  15)"" stroke=""red"" /><circle cx=""50"" cy=""50"" r=""10"" fill=""none"" transform=""translate(-26 -15)"" stroke=""blueviolet"" /><circle cx=""50"" cy=""50"" r=""10"" fill=""none"" transform=""translate(  0 -30)"" stroke=""gold"" /><circle cx=""50"" cy=""50"" r=""10"" fill=""none"" transform=""translate( 26 -15)"" stroke=""cyan"" /><path d=""M 50 57 L 50 43"" stroke=""black"" transform=""translate( 26  15) rotate(45 50 50)""/><path d=""M 50 57 L 50 43"" stroke=""black"" transform=""translate(  0  30) rotate(45 50 50)""/><path d=""M 50 57 L 50 43"" stroke=""black"" transform=""translate(-26  15) rotate(90 50 50)""/><path d=""M 50 57 L 50 43"" stroke=""black"" transform=""translate(-26 -15) rotate(45 50 50)""/><path d=""M 50 57 L 50 43"" stroke=""black"" transform=""translate(  0 -30) rotate(45 50 50)""/><path d=""M 50 57 L 50 43"" stroke=""black"" transform=""translate( 26 -15) rotate(45 50 50)""/><path d=""M 50 52 L 50 48"" stroke=""black"" stroke-width="".5""/> <path d=""M 52 50 L 48 50"" stroke=""black"" stroke-width="".5""/></svg>","90","VDACtest","red","3rd","horizontal","true","high","",""
"","html-keyboard-response","153","363104","0.0-4.0-1.0-2.23","o23884ukxg","red","null","","","","","","<p style=""font-size:300%;""> + 10 points.</p><p style=""font-size:300%"">Total: 88 points.</p>","null","","","","","","","88",""
"","html-keyboard-response","154","364925","0.0-4.0-1.0-0.24","o23884ukxg","red","null","","","","","","<svg viewBox=""0 0 100 100"" > <path d=""M 50 52 L 50 48"" stroke=""black"" stroke-width="".5""/> <path d=""M 52 50 L 48 50"" stroke=""black"" stroke-width="".5""/>","null","","","","","","","",""
"","html-keyboard-response","155","365550","0.0-4.0-1.0-1.24","o23884ukxg","red","625","","","","","","<svg viewBox=""0 0 100 100"" ><circle cx=""50"" cy=""50"" r=""10"" fill=""none"" transform=""translate( 26  15)"" stroke=""black"" /><circle cx=""50"" cy=""50"" r=""10"" fill=""none"" transform=""translate(  0  30)"" stroke=""cyan"" /><circle cx=""50"" cy=""50"" r=""10"" fill=""none"" transform=""translate(-26  15)"" stroke=""blueviolet"" /><circle cx=""50"" cy=""50"" r=""10"" fill=""none"" transform=""translate(-26 -15)"" stroke=""magenta"" /><circle cx=""50"" cy=""50"" r=""10"" fill=""none"" transform=""translate(  0 -30)"" stroke=""gold"" /><circle cx=""50"" cy=""50"" r=""10"" fill=""none"" transform=""translate( 26 -15)"" stroke=""red"" /><path d=""M 50 57 L 50 43"" stroke=""black"" transform=""translate( 26  15) rotate(45 50 50)""/><path d=""M 50 57 L 50 43"" stroke=""black"" transform=""translate(  0  30) rotate(-45 50 50)""/><path d=""M 50 57 L 50 43"" stroke=""black"" transform=""translate(-26  15) rotate(45 50 50)""/><path d=""M 50 57 L 50 43"" stroke=""black"" transform=""translate(-26 -15) rotate(45 50 50)""/><path d=""M 50 57 L 50 43"" stroke=""black"" transform=""translate(  0 -30) rotate(45 50 50)""/><path d=""M 50 57 L 50 43"" stroke=""black"" transform=""translate( 26 -15) rotate(0 50 50)""/><path d=""M 50 52 L 50 48"" stroke=""black"" stroke-width="".5""/> <path d=""M 52 50 L 48 50"" stroke=""black"" stroke-width="".5""/></svg>","77","VDACtest","red","6th","vertical","true","high","",""
"","html-keyboard-response","156","368055","0.0-4.0-1.0-2.24","o23884ukxg","red","null","","","","","","<p style=""font-size:300%;""> + 10 points.</p><p style=""font-size:300%"">Total: 98 points.</p>","null","","","","","","","98",""
"","html-keyboard-response","157","369874","0.0-4.0-1.0-0.25","o23884ukxg","red","null","","","","","","<svg viewBox=""0 0 100 100"" > <path d=""M 50 52 L 50 48"" stroke=""black"" stroke-width="".5""/> <path d=""M 52 50 L 48 50"" stroke=""black"" stroke-width="".5""/>","null","","","","","","","",""
