"success","trial_type","trial_index","time_elapsed","internal_node_id","subject","condition","rt","stimulus","response","url","question_order","view_history","trialType","tgtCol","tgtPos","tgtDir","correct","rwdType","reward","value","tgtPosition"
"true","fullscreen","0","3704","0.0-0.0","x1y","[""red""]","","","","","","","","","","","","","","",""
"","html-keyboard-response","1","4987","0.0-1.0-0.0","x1y","[""red""]","1281.5","<div style= ""font-size:20px;"" <p> <strong> Welcome to the experiment! </strong><br> <p style=""color:red; font-size:25px;""> Please do NOT exit full screen until you are done with the experiment. </p><p style=""color:red;""> The experiment will be canceled and your data will be lost if you try to go back or refresh the page at any time during the experiment.</p><p style=""color:red;""> Please rely on your memory and do NOT write anything down throughout the experiment. </p><br><p style=""color:black;"">Press any key to continue.</p> </span>"," ","","","","","","","","","","","",""
"","external-html","2","9327","0.0-1.0-1.0","x1y","[""red""]","4332.300000011921","","","http://labs.psychology.illinois.edu/~jy57/memory_capture/supportFiles/Consent.html","","","","","","","","","","",""
"","survey-text","3","11655","0.0-1.0-2.0","x1y","[""red""]","2322.800000011921","","{""Q0"":""23"",""Q1"":""""}","","","","","","","","","","","",""
"","survey-multi-select","4","14775","0.0-1.0-3.0","x1y","[""red""]","3118.099999964237","","{""Q0"":[""Black or African-American""]}","","[0]","","","","","","","","","",""
"","survey-text","5","16135","0.0-1.0-4.0","x1y","[""red""]","1356","","{""Q0"":""234"",""Q1"":"""",""Q2"":""""}","","","","","","","","","","","",""
"","instructions","6","26500","0.0-2.0-0.0","x1y","[""red""]","10364","","","","","[{""page_index"":0,""viewing_time"":846.6000000238419},{""page_index"":1,""viewing_time"":862.6999999880791},{""page_index"":2,""viewing_time"":734.1999999880791},{""page_index"":3,""viewing_time"":3808.300000011921},{""page_index"":4,""viewing_time"":815.6000000238419},{""page_index"":5,""viewing_time"":775.8999999761581},{""page_index"":6,""viewing_time"":704},{""page_index"":7,""viewing_time"":927.9000000357628},{""page_index"":8,""viewing_time"":888.1999999880791}]","","","","","","","","",""
"","html-keyboard-response","7","27708","0.0-2.0-1.0-0.0","x1y","[""red""]","1204.5999999642372","<p>Place your fingers on the <b>z</b> and <b>m</b> keys.The experiment will begin shortly.</p> <p></p>","z","","","","","","","","","","","",""
"","html-keyboard-response","8","27908","0.0-2.0-1.0-1.0","x1y","[""red""]","198.5","<p>Place your fingers on the <b>z</b> and <b>m</b> keys.</b> keys. The experiment will begin shortly.</p><p>5</p>","m","","","","","","","","","","","",""
"","html-keyboard-response","9","28110","0.0-2.0-1.0-2.0","x1y","[""red""]","198.0999999642372","<p>Place your fingers on the <b>z</b> and <b>m</b> keys.</b> keys. The experiment will begin shortly.</p><p>4</p>","z","","","","","","","","","","","",""
"","html-keyboard-response","10","28252","0.0-2.0-1.0-3.0","x1y","[""red""]","140.79999995231628","<p>Place your fingers on the <b>z</b> and <b>m</b> keys.</b> keys. The experiment will begin shortly.</p><p>3</p>","m","","","","","","","","","","","",""
"","html-keyboard-response","11","28420","0.0-2.0-1.0-4.0","x1y","[""red""]","166.69999998807907","<p>Place your fingers on the <b>z</b> and <b>m</b> keys.</b> keys. The experiment will begin shortly.</p><p>2</p>","z","","","","","","","","","","","",""
"","html-keyboard-response","12","28564","0.0-2.0-1.0-5.0","x1y","[""red""]","142.5","<p>Place your fingers on the <b>z</b> and <b>m</b> keys.</b> keys. The experiment will begin shortly.</p><p>1</p>","m","","","","","","","","","","","",""
"","html-keyboard-response","13","29125","0.0-2.0-2.0-0.0","x1y","[""red""]","null","<svg viewBox=""0 0 100 100"" > <path d=""M 50 52 L 50 48"" stroke=""black"" stroke-width="".5""/> <path d=""M 52 50 L 48 50"" stroke=""black"" stroke-width="".5""/>","null","","","","","","","","","","","",""
"","html-keyboard-response","14","29628","0.0-2.0-2.0-1.0","x1y","[""red""]","499.10000002384186","[""<svg viewBox=\""0 0 100 100\"" >"",""<text font-size=\""10%\"" text-anchor=\""middle\""  x=\""50\"" y=\""98\"">Press z for horizontal or m for vertical</text>"",""<path d=\""M 50 52 L 50 48\"" stroke=\""black\"" stroke-width=\"".5\""/> <path d=\""M 52 50 L 48 50\"" stroke=\""black\"" stroke-width=\"".5\""/>"",""<circle cx=\""50\"" cy=\""50\"" r=\""10\"" fill=\""none\"" transform=\""translate(26 15)\"" stroke=\""red\"" /><path d=\""M 50 57 L 50 43\"" stroke=\""black\"" transform=\""translate(26 15) rotate(0 50 50)\""/>"",""<circle cx=\""50\"" cy=\""50\"" r=\""10\"" fill=\""none\"" transform=\""translate(0 30)\"" stroke=\""gold\"" /><path d=\""M 50 57 L 50 43\"" stroke=\""black\"" transform=\""translate(0 30) rotate(-45 50 50)\""/>"",""<circle cx=\""50\"" cy=\""50\"" r=\""10\"" fill=\""none\"" transform=\""translate(-26 15)\"" stroke=\""black\"" /><path d=\""M 50 57 L 50 43\"" stroke=\""black\"" transform=\""translate(-26 15) rotate(45 50 50)\""/>"",""<circle cx=\""50\"" cy=\""50\"" r=\""10\"" fill=\""none\"" transform=\""translate(-26 -15)\"" stroke=\""cyan\"" /><path d=\""M 50 57 L 50 43\"" stroke=\""black\"" transform=\""translate(-26 -15) rotate(-45 50 50)\""/>"",""<circle cx=\""50\"" cy=\""50\"" r=\""10\"" fill=\""none\"" transform=\""translate(0 -30)\"" stroke=\""blueviolet\"" /><path d=\""M 50 57 L 50 43\"" stroke=\""black\"" transform=\""translate(0 -30) rotate(45 50 50)\""/>"",""<circle cx=\""50\"" cy=\""50\"" r=\""10\"" fill=\""none\"" transform=\""translate(26 -15)\"" stroke=\""magenta\"" /><path d=\""M 50 57 L 50 43\"" stroke=\""black\"" transform=\""translate(26 -15) rotate(-45 50 50)\""/>"",""</svg>""]","z","","","","VDACtrain","red","1","v","false","","","",""
"","html-keyboard-response","15","32131","0.0-2.0-2.0-2.0","x1y","[""red""]","null","<p style=""font-size:300%;"">Miss.</p> <p style=""font-size:300%;"">Wrong response.</p>","null","","","","","","","","","","","",""
"","html-keyboard-response","16","33692","0.0-2.0-2.0-0.1","x1y","[""red""]","null","<svg viewBox=""0 0 100 100"" > <path d=""M 50 52 L 50 48"" stroke=""black"" stroke-width="".5""/> <path d=""M 52 50 L 48 50"" stroke=""black"" stroke-width="".5""/>","null","","","","","","","","","","","",""
"","html-keyboard-response","17","33924","0.0-2.0-2.0-1.1","x1y","[""red""]","229.29999995231628","[""<svg viewBox=\""0 0 100 100\"" >"",""<text font-size=\""10%\"" text-anchor=\""middle\""  x=\""50\"" y=\""98\"">Press z for horizontal or m for vertical</text>"",""<path d=\""M 50 52 L 50 48\"" stroke=\""black\"" stroke-width=\"".5\""/> <path d=\""M 52 50 L 48 50\"" stroke=\""black\"" stroke-width=\"".5\""/>"",""<circle cx=\""50\"" cy=\""50\"" r=\""10\"" fill=\""none\"" transform=\""translate(26 15)\"" stroke=\""gold\"" /><path d=\""M 50 57 L 50 43\"" stroke=\""black\"" transform=\""translate(26 15) rotate(45 50 50)\""/>"",""<circle cx=\""50\"" cy=\""50\"" r=\""10\"" fill=\""none\"" transform=\""translate(0 30)\"" stroke=\""green\"" /><path d=\""M 50 57 L 50 43\"" stroke=\""black\"" transform=\""translate(0 30) rotate(90 50 50)\""/>"",""<circle cx=\""50\"" cy=\""50\"" r=\""10\"" fill=\""none\"" transform=\""translate(-26 15)\"" stroke=\""blueviolet\"" /><path d=\""M 50 57 L 50 43\"" stroke=\""black\"" transform=\""translate(-26 15) rotate(45 50 50)\""/>"",""<circle cx=\""50\"" cy=\""50\"" r=\""10\"" fill=\""none\"" transform=\""translate(-26 -15)\"" stroke=\""cyan\"" /><path d=\""M 50 57 L 50 43\"" stroke=\""black\"" transform=\""translate(-26 -15) rotate(-45 50 50)\""/>"",""<circle cx=\""50\"" cy=\""50\"" r=\""10\"" fill=\""none\"" transform=\""translate(0 -30)\"" stroke=\""black\"" /><path d=\""M 50 57 L 50 43\"" stroke=\""black\"" transform=\""translate(0 -30) rotate(-45 50 50)\""/>"",""<circle cx=\""50\"" cy=\""50\"" r=\""10\"" fill=\""none\"" transform=\""translate(26 -15)\"" stroke=\""magenta\"" /><path d=\""M 50 57 L 50 43\"" stroke=\""black\"" transform=\""translate(26 -15) rotate(45 50 50)\""/>"",""</svg>""]","z","","","","VDACtrain","green","1","h","true","","","",""
"","html-keyboard-response","18","36427","0.0-2.0-2.0-2.1","x1y","[""red""]","null","<p style=""font-size:300%;"">Correct!</p>","null","","","","","","","","","","","",""
"","html-keyboard-response","19","37988","0.0-2.0-2.0-0.2","x1y","[""red""]","null","<svg viewBox=""0 0 100 100"" > <path d=""M 50 52 L 50 48"" stroke=""black"" stroke-width="".5""/> <path d=""M 52 50 L 48 50"" stroke=""black"" stroke-width="".5""/>","null","","","","","","","","","","","",""
"","html-keyboard-response","20","38236","0.0-2.0-2.0-1.2","x1y","[""red""]","244","[""<svg viewBox=\""0 0 100 100\"" >"",""<text font-size=\""10%\"" text-anchor=\""middle\""  x=\""50\"" y=\""98\"">Press z for horizontal or m for vertical</text>"",""<path d=\""M 50 52 L 50 48\"" stroke=\""black\"" stroke-width=\"".5\""/> <path d=\""M 52 50 L 48 50\"" stroke=\""black\"" stroke-width=\"".5\""/>"",""<circle cx=\""50\"" cy=\""50\"" r=\""10\"" fill=\""none\"" transform=\""translate(26 15)\"" stroke=\""cyan\"" /><path d=\""M 50 57 L 50 43\"" stroke=\""black\"" transform=\""translate(26 15) rotate(-45 50 50)\""/>"",""<circle cx=\""50\"" cy=\""50\"" r=\""10\"" fill=\""none\"" transform=\""translate(0 30)\"" stroke=\""blueviolet\"" /><path d=\""M 50 57 L 50 43\"" stroke=\""black\"" transform=\""translate(0 30) rotate(-45 50 50)\""/>"",""<circle cx=\""50\"" cy=\""50\"" r=\""10\"" fill=\""none\"" transform=\""translate(-26 15)\"" stroke=\""red\"" /><path d=\""M 50 57 L 50 43\"" stroke=\""black\"" transform=\""translate(-26 15) rotate(90 50 50)\""/>"",""<circle cx=\""50\"" cy=\""50\"" r=\""10\"" fill=\""none\"" transform=\""translate(-26 -15)\"" stroke=\""magenta\"" /><path d=\""M 50 57 L 50 43\"" stroke=\""black\"" transform=\""translate(-26 -15) rotate(45 50 50)\""/>"",""<circle cx=\""50\"" cy=\""50\"" r=\""10\"" fill=\""none\"" transform=\""translate(0 -30)\"" stroke=\""black\"" /><path d=\""M 50 57 L 50 43\"" stroke=\""black\"" transform=\""translate(0 -30) rotate(-45 50 50)\""/>"",""<circle cx=\""50\"" cy=\""50\"" r=\""10\"" fill=\""none\"" transform=\""translate(26 -15)\"" stroke=\""gold\"" /><path d=\""M 50 57 L 50 43\"" stroke=\""black\"" transform=\""translate(26 -15) rotate(45 50 50)\""/>"",""</svg>""]","z","","","","VDACtrain","red","1","h","true","","","",""
"","html-keyboard-response","21","40739","0.0-2.0-2.0-2.2","x1y","[""red""]","null","<p style=""font-size:300%;"">Correct!</p>","null","","","","","","","","","","","",""
"","html-keyboard-response","22","42300","0.0-2.0-2.0-0.3","x1y","[""red""]","null","<svg viewBox=""0 0 100 100"" > <path d=""M 50 52 L 50 48"" stroke=""black"" stroke-width="".5""/> <path d=""M 52 50 L 48 50"" stroke=""black"" stroke-width="".5""/>","null","","","","","","","","","","","",""
"","html-keyboard-response","23","42604","0.0-2.0-2.0-1.3","x1y","[""red""]","300","[""<svg viewBox=\""0 0 100 100\"" >"",""<text font-size=\""10%\"" text-anchor=\""middle\""  x=\""50\"" y=\""98\"">Press z for horizontal or m for vertical</text>"",""<path d=\""M 50 52 L 50 48\"" stroke=\""black\"" stroke-width=\"".5\""/> <path d=\""M 52 50 L 48 50\"" stroke=\""black\"" stroke-width=\"".5\""/>"",""<circle cx=\""50\"" cy=\""50\"" r=\""10\"" fill=\""none\"" transform=\""translate(26 15)\"" stroke=\""cyan\"" /><path d=\""M 50 57 L 50 43\"" stroke=\""black\"" transform=\""translate(26 15) rotate(-45 50 50)\""/>"",""<circle cx=\""50\"" cy=\""50\"" r=\""10\"" fill=\""none\"" transform=\""translate(0 30)\"" stroke=\""blueviolet\"" /><path d=\""M 50 57 L 50 43\"" stroke=\""black\"" transform=\""translate(0 30) rotate(45 50 50)\""/>"",""<circle cx=\""50\"" cy=\""50\"" r=\""10\"" fill=\""none\"" transform=\""translate(-26 15)\"" stroke=\""black\"" /><path d=\""M 50 57 L 50 43\"" stroke=\""black\"" transform=\""translate(-26 15) rotate(45 50 50)\""/>"",""<circle cx=\""50\"" cy=\""50\"" r=\""10\"" fill=\""none\"" transform=\""translate(-26 -15)\"" stroke=\""green\"" /><path d=\""M 50 57 L 50 43\"" stroke=\""black\"" transform=\""translate(-26 -15) rotate(0 50 50)\""/>"",""<circle cx=\""50\"" cy=\""50\"" r=\""10\"" fill=\""none\"" transform=\""translate(0 -30)\"" stroke=\""magenta\"" /><path d=\""M 50 57 L 50 43\"" stroke=\""black\"" transform=\""translate(0 -30) rotate(-45 50 50)\""/>"",""<circle cx=\""50\"" cy=\""50\"" r=\""10\"" fill=\""none\"" transform=\""translate(26 -15)\"" stroke=\""gold\"" /><path d=\""M 50 57 L 50 43\"" stroke=\""black\"" transform=\""translate(26 -15) rotate(45 50 50)\""/>"",""</svg>""]","z","","","","VDACtrain","green","1","v","false","","","",""
"","html-keyboard-response","24","45107","0.0-2.0-2.0-2.3","x1y","[""red""]","null","<p style=""font-size:300%;"">Miss.</p> <p style=""font-size:300%;"">Wrong response.</p>","null","","","","","","","","","","","",""
"","html-keyboard-response","25","46669","0.0-2.0-2.0-0.4","x1y","[""red""]","null","<svg viewBox=""0 0 100 100"" > <path d=""M 50 52 L 50 48"" stroke=""black"" stroke-width="".5""/> <path d=""M 52 50 L 48 50"" stroke=""black"" stroke-width="".5""/>","null","","","","","","","","","","","",""
"","html-keyboard-response","26","47084","0.0-2.0-2.0-1.4","x1y","[""red""]","411","[""<svg viewBox=\""0 0 100 100\"" >"",""<text font-size=\""10%\"" text-anchor=\""middle\""  x=\""50\"" y=\""98\"">Press z for horizontal or m for vertical</text>"",""<path d=\""M 50 52 L 50 48\"" stroke=\""black\"" stroke-width=\"".5\""/> <path d=\""M 52 50 L 48 50\"" stroke=\""black\"" stroke-width=\"".5\""/>"",""<circle cx=\""50\"" cy=\""50\"" r=\""10\"" fill=\""none\"" transform=\""translate(26 15)\"" stroke=\""cyan\"" /><path d=\""M 50 57 L 50 43\"" stroke=\""black\"" transform=\""translate(26 15) rotate(45 50 50)\""/>"",""<circle cx=\""50\"" cy=\""50\"" r=\""10\"" fill=\""none\"" transform=\""translate(0 30)\"" stroke=\""black\"" /><path d=\""M 50 57 L 50 43\"" stroke=\""black\"" transform=\""translate(0 30) rotate(45 50 50)\""/>"",""<circle cx=\""50\"" cy=\""50\"" r=\""10\"" fill=\""none\"" transform=\""translate(-26 15)\"" stroke=\""gold\"" /><path d=\""M 50 57 L 50 43\"" stroke=\""black\"" transform=\""translate(-26 15) rotate(-45 50 50)\""/>"",""<circle cx=\""50\"" cy=\""50\"" r=\""10\"" fill=\""none\"" transform=\""translate(-26 -15)\"" stroke=\""magenta\"" /><path d=\""M 50 57 L 50 43\"" stroke=\""black\"" transform=\""translate(-26 -15) rotate(45 50 50)\""/>"",""<circle cx=\""50\"" cy=\""50\"" r=\""10\"" fill=\""none\"" transform=\""translate(0 -30)\"" stroke=\""red\"" /><path d=\""M 50 57 L 50 43\"" stroke=\""black\"" transform=\""translate(0 -30) rotate(0 50 50)\""/>"",""<circle cx=\""50\"" cy=\""50\"" r=\""10\"" fill=\""none\"" transform=\""translate(26 -15)\"" stroke=\""blueviolet\"" /><path d=\""M 50 57 L 50 43\"" stroke=\""black\"" transform=\""translate(26 -15) rotate(45 50 50)\""/>"",""</svg>""]","z","","","","VDACtrain","red","1","v","false","","","",""
"","html-keyboard-response","27","49587","0.0-2.0-2.0-2.4","x1y","[""red""]","null","<p style=""font-size:300%;"">Miss.</p> <p style=""font-size:300%;"">Wrong response.</p>","null","","","","","","","","","","","",""
"","html-keyboard-response","28","51148","0.0-2.0-2.0-0.5","x1y","[""red""]","null","<svg viewBox=""0 0 100 100"" > <path d=""M 50 52 L 50 48"" stroke=""black"" stroke-width="".5""/> <path d=""M 52 50 L 48 50"" stroke=""black"" stroke-width="".5""/>","null","","","","","","","","","","","",""
"","html-keyboard-response","29","51179","0.0-2.0-2.0-1.5","x1y","[""red""]","28.69999998807907","[""<svg viewBox=\""0 0 100 100\"" >"",""<text font-size=\""10%\"" text-anchor=\""middle\""  x=\""50\"" y=\""98\"">Press z for horizontal or m for vertical</text>"",""<path d=\""M 50 52 L 50 48\"" stroke=\""black\"" stroke-width=\"".5\""/> <path d=\""M 52 50 L 48 50\"" stroke=\""black\"" stroke-width=\"".5\""/>"",""<circle cx=\""50\"" cy=\""50\"" r=\""10\"" fill=\""none\"" transform=\""translate(26 15)\"" stroke=\""magenta\"" /><path d=\""M 50 57 L 50 43\"" stroke=\""black\"" transform=\""translate(26 15) rotate(45 50 50)\""/>"",""<circle cx=\""50\"" cy=\""50\"" r=\""10\"" fill=\""none\"" transform=\""translate(0 30)\"" stroke=\""gold\"" /><path d=\""M 50 57 L 50 43\"" stroke=\""black\"" transform=\""translate(0 30) rotate(-45 50 50)\""/>"",""<circle cx=\""50\"" cy=\""50\"" r=\""10\"" fill=\""none\"" transform=\""translate(-26 15)\"" stroke=\""blueviolet\"" /><path d=\""M 50 57 L 50 43\"" stroke=\""black\"" transform=\""translate(-26 15) rotate(45 50 50)\""/>"",""<circle cx=\""50\"" cy=\""50\"" r=\""10\"" fill=\""none\"" transform=\""translate(-26 -15)\"" stroke=\""black\"" /><path d=\""M 50 57 L 50 43\"" stroke=\""black\"" transform=\""translate(-26 -15) rotate(-45 50 50)\""/>"",""<circle cx=\""50\"" cy=\""50\"" r=\""10\"" fill=\""none\"" transform=\""translate(0 -30)\"" stroke=\""cyan\"" /><path d=\""M 50 57 L 50 43\"" stroke=\""black\"" transform=\""translate(0 -30) rotate(-45 50 50)\""/>"",""<circle cx=\""50\"" cy=\""50\"" r=\""10\"" fill=\""none\"" transform=\""translate(26 -15)\"" stroke=\""green\"" /><path d=\""M 50 57 L 50 43\"" stroke=\""black\"" transform=\""translate(26 -15) rotate(90 50 50)\""/>"",""</svg>""]","z","","","","VDACtrain","green","1","h","true","","","",""
"","html-keyboard-response","30","53682","0.0-2.0-2.0-2.5","x1y","[""red""]","null","<p style=""font-size:300%;"">Correct!</p>","null","","","","","","","","","","","",""
"","html-keyboard-response","31","59420","0.0-2.0-3.0","x1y","[""red""]","4735.5","<p>You have now finished the training exercise. If you would like to repeat the instructions and training exercise, press <b>R</b>. If you are ready to continue to the task, press <b>C</b>. </p>","c","","","","","","","","","","","",""
"","html-keyboard-response","32","60452","0.0-3.0-0.0","x1y","[""red""]","1028.699999988079","<p>Place your fingers on the <b>z</b> and <b>m</b> keys.The experiment will begin shortly.</p> <p></p>","z","","","","","","","","","","","",""
"","html-keyboard-response","33","60684","0.0-3.0-1.0","x1y","[""red""]","230.80000001192093","<p>Place your fingers on the <b>z</b> and <b>m</b> keys.</b> keys. The experiment will begin shortly.</p><p>5</p>","z","","","","","","","","","","","",""
"","html-keyboard-response","34","60860","0.0-3.0-2.0","x1y","[""red""]","174.69999998807907","<p>Place your fingers on the <b>z</b> and <b>m</b> keys.</b> keys. The experiment will begin shortly.</p><p>4</p>","z","","","","","","","","","","","",""
"","html-keyboard-response","35","61084","0.0-3.0-3.0","x1y","[""red""]","222.80000001192093","<p>Place your fingers on the <b>z</b> and <b>m</b> keys.</b> keys. The experiment will begin shortly.</p><p>3</p>","z","","","","","","","","","","","",""
"","html-keyboard-response","36","61268","0.0-3.0-4.0","x1y","[""red""]","182.80000001192093","<p>Place your fingers on the <b>z</b> and <b>m</b> keys.</b> keys. The experiment will begin shortly.</p><p>2</p>","z","","","","","","","","","","","",""
"","html-keyboard-response","37","61476","0.0-3.0-5.0","x1y","[""red""]","206.80000001192093","<p>Place your fingers on the <b>z</b> and <b>m</b> keys.</b> keys. The experiment will begin shortly.</p><p>1</p>","z","","","","","","","","","","","",""
"","html-keyboard-response","38","62036","0.0-4.0-1.0-0.0","x1y","[""red""]","null","<svg viewBox=""0 0 100 100"" > <path d=""M 50 52 L 50 48"" stroke=""black"" stroke-width="".5""/> <path d=""M 52 50 L 48 50"" stroke=""black"" stroke-width="".5""/>","null","","","","","","","","","","","",""
"","html-keyboard-response","39","62124","0.0-4.0-1.0-1.0","x1y","[""red""]","84.70000004768372","[""<svg viewBox=\""0 0 100 100\"" >"",""<path d=\""M 50 52 L 50 48\"" stroke=\""black\"" stroke-width=\"".5\""/>"","" <path d=\""M 52 50 L 48 50\"" stroke=\""black\"" stroke-width=\"".5\""/>"",""<circle cx=\""50\"" cy=\""50\"" r=\""10\"" fill=\""none\"" transform=\""translate(26 15)\"" stroke=\""red\"" />"",""<path d=\""M 50 57 L 50 43\"" stroke=\""black\"" transform=\""translate(26 15) rotate(0 50 50)\""/>"",""<circle cx=\""50\"" cy=\""50\"" r=\""10\"" fill=\""none\"" transform=\""translate(0 30)\"" stroke=\""blueviolet\"" />"",""<path d=\""M 50 57 L 50 43\"" stroke=\""black\"" transform=\""translate(0 30) rotate(45 50 50)\""/>"",""<circle cx=\""50\"" cy=\""50\"" r=\""10\"" fill=\""none\"" transform=\""translate(-26 15)\"" stroke=\""black\"" />"",""<path d=\""M 50 57 L 50 43\"" stroke=\""black\"" transform=\""translate(-26 15) rotate(-45 50 50)\""/>"",""<circle cx=\""50\"" cy=\""50\"" r=\""10\"" fill=\""none\"" transform=\""translate(-26 -15)\"" stroke=\""magenta\"" />"",""<path d=\""M 50 57 L 50 43\"" stroke=\""black\"" transform=\""translate(-26 -15) rotate(45 50 50)\""/>"",""<circle cx=\""50\"" cy=\""50\"" r=\""10\"" fill=\""none\"" transform=\""translate(0 -30)\"" stroke=\""cyan\"" />"",""<path d=\""M 50 57 L 50 43\"" stroke=\""black\"" transform=\""translate(0 -30) rotate(-45 50 50)\""/>"",""<circle cx=\""50\"" cy=\""50\"" r=\""10\"" fill=\""none\"" transform=\""translate(26 -15)\"" stroke=\""gold\"" />"",""<path d=\""M 50 57 L 50 43\"" stroke=\""black\"" transform=\""translate(26 -15) rotate(45 50 50)\""/>"",""</svg>""]","z","","","","VDACtest","red","0","v","false","low","","",""
"","html-keyboard-response","40","64627","0.0-4.0-1.0-2.0","x1y","[""red""]","null","<p style=""font-size:300%;"">Miss.</p><p style=""font-size:300%"">Total: 0 points.</p>","null","","","","","","","","","","0","",""
"","html-keyboard-response","41","66188","0.0-4.0-1.0-0.1","x1y","[""red""]","null","<svg viewBox=""0 0 100 100"" > <path d=""M 50 52 L 50 48"" stroke=""black"" stroke-width="".5""/> <path d=""M 52 50 L 48 50"" stroke=""black"" stroke-width="".5""/>","null","","","","","","","","","","","",""
"","html-keyboard-response","42","66356","0.0-4.0-1.0-1.1","x1y","[""red""]","164.80000001192093","[""<svg viewBox=\""0 0 100 100\"" >"",""<path d=\""M 50 52 L 50 48\"" stroke=\""black\"" stroke-width=\"".5\""/>"","" <path d=\""M 52 50 L 48 50\"" stroke=\""black\"" stroke-width=\"".5\""/>"",""<circle cx=\""50\"" cy=\""50\"" r=\""10\"" fill=\""none\"" transform=\""translate(26 15)\"" stroke=\""blueviolet\"" />"",""<path d=\""M 50 57 L 50 43\"" stroke=\""black\"" transform=\""translate(26 15) rotate(45 50 50)\""/>"",""<circle cx=\""50\"" cy=\""50\"" r=\""10\"" fill=\""none\"" transform=\""translate(0 30)\"" stroke=\""green\"" />"",""<path d=\""M 50 57 L 50 43\"" stroke=\""black\"" transform=\""translate(0 30) rotate(90 50 50)\""/>"",""<circle cx=\""50\"" cy=\""50\"" r=\""10\"" fill=\""none\"" transform=\""translate(-26 15)\"" stroke=\""black\"" />"",""<path d=\""M 50 57 L 50 43\"" stroke=\""black\"" transform=\""translate(-26 15) rotate(45 50 50)\""/>"",""<circle cx=\""50\"" cy=\""50\"" r=\""10\"" fill=\""none\"" transform=\""translate(-26 -15)\"" stroke=\""gold\"" />"",""<path d=\""M 50 57 L 50 43\"" stroke=\""black\"" transform=\""translate(-26 -15) rotate(-45 50 50)\""/>"",""<circle cx=\""50\"" cy=\""50\"" r=\""10\"" fill=\""none\"" transform=\""translate(0 -30)\"" stroke=\""magenta\"" />"",""<path d=\""M 50 57 L 50 43\"" stroke=\""black\"" transform=\""translate(0 -30) rotate(-45 50 50)\""/>"",""<circle cx=\""50\"" cy=\""50\"" r=\""10\"" fill=\""none\"" transform=\""translate(26 -15)\"" stroke=\""cyan\"" />"",""<path d=\""M 50 57 L 50 43\"" stroke=\""black\"" transform=\""translate(26 -15) rotate(45 50 50)\""/>"",""</svg>""]","z","","","","VDACtest","green","1","h","true","high","","",""
"","html-keyboard-response","43","68859","0.0-4.0-1.0-2.1","x1y","[""red""]","null","<p style=""font-size:300%;""> + 2 points.</p><p style=""font-size:300%"">Total: 2 points.</p>","null","","","","","","","","","","2","",""
"","html-keyboard-response","44","71844","0.0-4.0-1.0-4.1-0.1","x1y","[""red""]","1980.8999999761581","<p>You have finished block 1 of 4.<p>You responded correctly on 50% of the trials which has earned you 2 points.<p>On the next screen, you will be given a 30 second break. Press the <b>g</b> key to start your break.","g","","","","","","","","","","","",""
"","html-keyboard-response","45","72196","0.0-4.0-1.0-4.1-1.1-0.1","x1y","[""red""]","350.69999998807907","<p>The experiment will resume in 30 seconds. (press g to skip - Demo only)<p> Remember, press <b>z</b> if the line is horizontal or <b>m</b> if the line is vertical.","g","","","","","","","","","","","",""
"","html-keyboard-response","46","72516","0.0-4.0-1.0-4.1-2.1-0.1","x1y","[""red""]","318.5","<p>Place your fingers on the <b>z</b> and <b>m</b> keys.The experiment will begin shortly.</p> <p></p>","g","","","","","","","","","","","",""
"","html-keyboard-response","47","72772","0.0-4.0-1.0-4.1-2.1-1.1","x1y","[""red""]","255","<p>Place your fingers on the <b>z</b> and <b>m</b> keys.</b> keys. The experiment will begin shortly.</p><p>5</p>","g","","","","","","","","","","","",""
"","html-keyboard-response","48","73028","0.0-4.0-1.0-4.1-2.1-2.1","x1y","[""red""]","254.79999995231628","<p>Place your fingers on the <b>z</b> and <b>m</b> keys.</b> keys. The experiment will begin shortly.</p><p>4</p>","g","","","","","","","","","","","",""
"","html-keyboard-response","49","73252","0.0-4.0-1.0-4.1-2.1-3.1","x1y","[""red""]","222.69999998807907","<p>Place your fingers on the <b>z</b> and <b>m</b> keys.</b> keys. The experiment will begin shortly.</p><p>3</p>","g","","","","","","","","","","","",""
"","html-keyboard-response","50","73420","0.0-4.0-1.0-4.1-2.1-4.1","x1y","[""red""]","166.79999995231628","<p>Place your fingers on the <b>z</b> and <b>m</b> keys.</b> keys. The experiment will begin shortly.</p><p>2</p>","g","","","","","","","","","","","",""
"","html-keyboard-response","51","73604","0.0-4.0-1.0-4.1-2.1-5.1","x1y","[""red""]","182.79999995231628","<p>Place your fingers on the <b>z</b> and <b>m</b> keys.</b> keys. The experiment will begin shortly.</p><p>1</p>","g","","","","","","","","","","","",""
"","html-keyboard-response","52","74164","0.0-4.0-1.0-0.2","x1y","[""red""]","null","<svg viewBox=""0 0 100 100"" > <path d=""M 50 52 L 50 48"" stroke=""black"" stroke-width="".5""/> <path d=""M 52 50 L 48 50"" stroke=""black"" stroke-width="".5""/>","null","","","","","","","","","","","",""
"","html-keyboard-response","53","74500","0.0-4.0-1.0-1.2","x1y","[""red""]","333.30000001192093","[""<svg viewBox=\""0 0 100 100\"" >"",""<path d=\""M 50 52 L 50 48\"" stroke=\""black\"" stroke-width=\"".5\""/>"","" <path d=\""M 52 50 L 48 50\"" stroke=\""black\"" stroke-width=\"".5\""/>"",""<circle cx=\""50\"" cy=\""50\"" r=\""10\"" fill=\""none\"" transform=\""translate(26 15)\"" stroke=\""black\"" />"",""<path d=\""M 50 57 L 50 43\"" stroke=\""black\"" transform=\""translate(26 15) rotate(45 50 50)\""/>"",""<circle cx=\""50\"" cy=\""50\"" r=\""10\"" fill=\""none\"" transform=\""translate(0 30)\"" stroke=\""gold\"" />"",""<path d=\""M 50 57 L 50 43\"" stroke=\""black\"" transform=\""translate(0 30) rotate(45 50 50)\""/>"",""<circle cx=\""50\"" cy=\""50\"" r=\""10\"" fill=\""none\"" transform=\""translate(-26 15)\"" stroke=\""red\"" />"",""<path d=\""M 50 57 L 50 43\"" stroke=\""black\"" transform=\""translate(-26 15) rotate(90 50 50)\""/>"",""<circle cx=\""50\"" cy=\""50\"" r=\""10\"" fill=\""none\"" transform=\""translate(-26 -15)\"" stroke=\""magenta\"" />"",""<path d=\""M 50 57 L 50 43\"" stroke=\""black\"" transform=\""translate(-26 -15) rotate(-45 50 50)\""/>"",""<circle cx=\""50\"" cy=\""50\"" r=\""10\"" fill=\""none\"" transform=\""translate(0 -30)\"" stroke=\""blueviolet\"" />"",""<path d=\""M 50 57 L 50 43\"" stroke=\""black\"" transform=\""translate(0 -30) rotate(-45 50 50)\""/>"",""<circle cx=\""50\"" cy=\""50\"" r=\""10\"" fill=\""none\"" transform=\""translate(26 -15)\"" stroke=\""cyan\"" />"",""<path d=\""M 50 57 L 50 43\"" stroke=\""black\"" transform=\""translate(26 -15) rotate(-45 50 50)\""/>"",""</svg>""]","z","","","","VDACtest","red","2","h","true","low","","",""
"","html-keyboard-response","54","77004","0.0-4.0-1.0-2.2","x1y","[""red""]","null","<p style=""font-size:300%;""> + 2 points.</p><p style=""font-size:300%"">Total: 4 points.</p>","null","","","","","","","","","","4","",""
"","html-keyboard-response","55","78566","0.0-4.0-1.0-0.3","x1y","[""red""]","null","<svg viewBox=""0 0 100 100"" > <path d=""M 50 52 L 50 48"" stroke=""black"" stroke-width="".5""/> <path d=""M 52 50 L 48 50"" stroke=""black"" stroke-width="".5""/>","null","","","","","","","","","","","",""
"","html-keyboard-response","56","79569","0.0-4.0-1.0-1.3","x1y","[""red""]","null","[""<svg viewBox=\""0 0 100 100\"" >"",""<path d=\""M 50 52 L 50 48\"" stroke=\""black\"" stroke-width=\"".5\""/>"","" <path d=\""M 52 50 L 48 50\"" stroke=\""black\"" stroke-width=\"".5\""/>"",""<circle cx=\""50\"" cy=\""50\"" r=\""10\"" fill=\""none\"" transform=\""translate(26 15)\"" stroke=\""blueviolet\"" />"",""<path d=\""M 50 57 L 50 43\"" stroke=\""black\"" transform=\""translate(26 15) rotate(-45 50 50)\""/>"",""<circle cx=\""50\"" cy=\""50\"" r=\""10\"" fill=\""none\"" transform=\""translate(0 30)\"" stroke=\""cyan\"" />"",""<path d=\""M 50 57 L 50 43\"" stroke=\""black\"" transform=\""translate(0 30) rotate(45 50 50)\""/>"",""<circle cx=\""50\"" cy=\""50\"" r=\""10\"" fill=\""none\"" transform=\""translate(-26 15)\"" stroke=\""gold\"" />"",""<path d=\""M 50 57 L 50 43\"" stroke=\""black\"" transform=\""translate(-26 15) rotate(45 50 50)\""/>"",""<circle cx=\""50\"" cy=\""50\"" r=\""10\"" fill=\""none\"" transform=\""translate(-26 -15)\"" stroke=\""green\"" />"",""<path d=\""M 50 57 L 50 43\"" stroke=\""black\"" transform=\""translate(-26 -15) rotate(0 50 50)\""/>"",""<circle cx=\""50\"" cy=\""50\"" r=\""10\"" fill=\""none\"" transform=\""translate(0 -30)\"" stroke=\""magenta\"" />"",""<path d=\""M 50 57 L 50 43\"" stroke=\""black\"" transform=\""translate(0 -30) rotate(45 50 50)\""/>"",""<circle cx=\""50\"" cy=\""50\"" r=\""10\"" fill=\""none\"" transform=\""translate(26 -15)\"" stroke=\""black\"" />"",""<path d=\""M 50 57 L 50 43\"" stroke=\""black\"" transform=\""translate(26 -15) rotate(-45 50 50)\""/>"",""</svg>""]","null","","","","VDACtest","green","3","v","null","high","","",""
"","html-keyboard-response","57","82072","0.0-4.0-1.0-2.3","x1y","[""red""]","null","<p style=""font-size:300%;"">Miss.</p><p style=""font-size:300%"">Total: 4 points.</p>","null","","","","","","","","","","4","",""
"","html-keyboard-response","58","83988","0.0-4.0-1.0-4.3-0.3","x1y","[""red""]","913","<p>You have finished block 2 of 4.<p>You responded correctly on 50% of the trials which has earned you 4 points.<p>On the next screen, you will be given a 30 second break. Press the <b>g</b> key to start your break.","z","","","","","","","","","","","",""
"","html-keyboard-response","59","84812","0.0-4.0-1.0-4.3-1.3-0.3","x1y","[""red""]","822.8000000119209","<p>The experiment will resume in 30 seconds. (press g to skip - Demo only)<p> Remember, press <b>z</b> if the line is horizontal or <b>m</b> if the line is vertical.","g","","","","","","","","","","","",""
"","html-keyboard-response","60","84972","0.0-4.0-1.0-4.3-2.3-0.3","x1y","[""red""]","158.60000002384186","<p>Place your fingers on the <b>z</b> and <b>m</b> keys.The experiment will begin shortly.</p> <p></p>","g","","","","","","","","","","","",""
"","html-keyboard-response","61","85140","0.0-4.0-1.0-4.3-2.3-1.3","x1y","[""red""]","167","<p>Place your fingers on the <b>z</b> and <b>m</b> keys.</b> keys. The experiment will begin shortly.</p><p>5</p>","g","","","","","","","","","","","",""
"","html-keyboard-response","62","85308","0.0-4.0-1.0-4.3-2.3-2.3","x1y","[""red""]","166.69999998807907","<p>Place your fingers on the <b>z</b> and <b>m</b> keys.</b> keys. The experiment will begin shortly.</p><p>4</p>","g","","","","","","","","","","","",""
"","html-keyboard-response","63","85492","0.0-4.0-1.0-4.3-2.3-3.3","x1y","[""red""]","182.89999997615814","<p>Place your fingers on the <b>z</b> and <b>m</b> keys.</b> keys. The experiment will begin shortly.</p><p>3</p>","g","","","","","","","","","","","",""
"","html-keyboard-response","64","85660","0.0-4.0-1.0-4.3-2.3-4.3","x1y","[""red""]","166.69999998807907","<p>Place your fingers on the <b>z</b> and <b>m</b> keys.</b> keys. The experiment will begin shortly.</p><p>2</p>","g","","","","","","","","","","","",""
"","html-keyboard-response","65","85828","0.0-4.0-1.0-4.3-2.3-5.3","x1y","[""red""]","166.69999998807907","<p>Place your fingers on the <b>z</b> and <b>m</b> keys.</b> keys. The experiment will begin shortly.</p><p>1</p>","g","","","","","","","","","","","",""
"","html-keyboard-response","66","86388","0.0-4.0-1.0-0.4","x1y","[""red""]","null","<svg viewBox=""0 0 100 100"" > <path d=""M 50 52 L 50 48"" stroke=""black"" stroke-width="".5""/> <path d=""M 52 50 L 48 50"" stroke=""black"" stroke-width="".5""/>","null","","","","","","","","","","","",""
"","html-keyboard-response","67","87284","0.0-4.0-1.0-1.4","x1y","[""red""]","892.0999999642372","[""<svg viewBox=\""0 0 100 100\"" >"",""<path d=\""M 50 52 L 50 48\"" stroke=\""black\"" stroke-width=\"".5\""/>"","" <path d=\""M 52 50 L 48 50\"" stroke=\""black\"" stroke-width=\"".5\""/>"",""<circle cx=\""50\"" cy=\""50\"" r=\""10\"" fill=\""none\"" transform=\""translate(26 15)\"" stroke=\""gold\"" />"",""<path d=\""M 50 57 L 50 43\"" stroke=\""black\"" transform=\""translate(26 15) rotate(45 50 50)\""/>"",""<circle cx=\""50\"" cy=\""50\"" r=\""10\"" fill=\""none\"" transform=\""translate(0 30)\"" stroke=\""magenta\"" />"",""<path d=\""M 50 57 L 50 43\"" stroke=\""black\"" transform=\""translate(0 30) rotate(-45 50 50)\""/>"",""<circle cx=\""50\"" cy=\""50\"" r=\""10\"" fill=\""none\"" transform=\""translate(-26 15)\"" stroke=\""black\"" />"",""<path d=\""M 50 57 L 50 43\"" stroke=\""black\"" transform=\""translate(-26 15) rotate(-45 50 50)\""/>"",""<circle cx=\""50\"" cy=\""50\"" r=\""10\"" fill=\""none\"" transform=\""translate(-26 -15)\"" stroke=\""cyan\"" />"",""<path d=\""M 50 57 L 50 43\"" stroke=\""black\"" transform=\""translate(-26 -15) rotate(45 50 50)\""/>"",""<circle cx=\""50\"" cy=\""50\"" r=\""10\"" fill=\""none\"" transform=\""translate(0 -30)\"" stroke=\""red\"" />"",""<path d=\""M 50 57 L 50 43\"" stroke=\""black\"" transform=\""translate(0 -30) rotate(0 50 50)\""/>"",""<circle cx=\""50\"" cy=\""50\"" r=\""10\"" fill=\""none\"" transform=\""translate(26 -15)\"" stroke=\""blueviolet\"" />"",""<path d=\""M 50 57 L 50 43\"" stroke=\""black\"" transform=\""translate(26 -15) rotate(-45 50 50)\""/>"",""</svg>""]","z","","","","VDACtest","red","4","v","false","low","","",""
"","html-keyboard-response","68","89787","0.0-4.0-1.0-2.4","x1y","[""red""]","null","<p style=""font-size:300%;"">Miss.</p><p style=""font-size:300%"">Total: 4 points.</p>","null","","","","","","","","","","4","",""
"","html-keyboard-response","69","91348","0.0-4.0-1.0-0.5","x1y","[""red""]","null","<svg viewBox=""0 0 100 100"" > <path d=""M 50 52 L 50 48"" stroke=""black"" stroke-width="".5""/> <path d=""M 52 50 L 48 50"" stroke=""black"" stroke-width="".5""/>","null","","","","","","","","","","","",""
"","html-keyboard-response","70","92352","0.0-4.0-1.0-1.5","x1y","[""red""]","null","[""<svg viewBox=\""0 0 100 100\"" >"",""<path d=\""M 50 52 L 50 48\"" stroke=\""black\"" stroke-width=\"".5\""/>"","" <path d=\""M 52 50 L 48 50\"" stroke=\""black\"" stroke-width=\"".5\""/>"",""<circle cx=\""50\"" cy=\""50\"" r=\""10\"" fill=\""none\"" transform=\""translate(26 15)\"" stroke=\""magenta\"" />"",""<path d=\""M 50 57 L 50 43\"" stroke=\""black\"" transform=\""translate(26 15) rotate(-45 50 50)\""/>"",""<circle cx=\""50\"" cy=\""50\"" r=\""10\"" fill=\""none\"" transform=\""translate(0 30)\"" stroke=\""cyan\"" />"",""<path d=\""M 50 57 L 50 43\"" stroke=\""black\"" transform=\""translate(0 30) rotate(-45 50 50)\""/>"",""<circle cx=\""50\"" cy=\""50\"" r=\""10\"" fill=\""none\"" transform=\""translate(-26 15)\"" stroke=\""blueviolet\"" />"",""<path d=\""M 50 57 L 50 43\"" stroke=\""black\"" transform=\""translate(-26 15) rotate(-45 50 50)\""/>"",""<circle cx=\""50\"" cy=\""50\"" r=\""10\"" fill=\""none\"" transform=\""translate(-26 -15)\"" stroke=\""gold\"" />"",""<path d=\""M 50 57 L 50 43\"" stroke=\""black\"" transform=\""translate(-26 -15) rotate(45 50 50)\""/>"",""<circle cx=\""50\"" cy=\""50\"" r=\""10\"" fill=\""none\"" transform=\""translate(0 -30)\"" stroke=\""black\"" />"",""<path d=\""M 50 57 L 50 43\"" stroke=\""black\"" transform=\""translate(0 -30) rotate(45 50 50)\""/>"",""<circle cx=\""50\"" cy=\""50\"" r=\""10\"" fill=\""none\"" transform=\""translate(26 -15)\"" stroke=\""green\"" />"",""<path d=\""M 50 57 L 50 43\"" stroke=\""black\"" transform=\""translate(26 -15) rotate(90 50 50)\""/>"",""</svg>""]","null","","","","VDACtest","green","5","h","null","high","","",""
"","html-keyboard-response","71","94856","0.0-4.0-1.0-2.5","x1y","[""red""]","null","<p style=""font-size:300%;"">Miss.</p><p style=""font-size:300%"">Total: 4 points.</p>","null","","","","","","","","","","4","",""
"","html-keyboard-response","72","99076","0.0-4.0-1.0-4.5-0.5","x1y","[""red""]","3217","<p>You have finished block 3 of 4.<p>You responded correctly on 33% of the trials which has earned you 4 points.<p>On the next screen, you will be given a 30 second break. Press the <b>g</b> key to start your break.","g","","","","","","","","","","","",""
"","html-keyboard-response","73","100079","0.0-4.0-1.0-4.5-1.5-0.5","x1y","[""red""]","null","<p>The experiment will resume in 30 seconds. (press g to skip - Demo only)<p> Remember, press <b>z</b> if the line is horizontal or <b>m</b> if the line is vertical.","null","","","","","","","","","","","",""
"","html-keyboard-response","74","101081","0.0-4.0-1.0-4.5-1.5-1.5","x1y","[""red""]","null","<p>The experiment will resume in 29 seconds. (press g to skip - Demo only)<p> Remember, press <b>z</b> if the line is horizontal or <b>m</b> if the line is vertical.","null","","","","","","","","","","","",""
"","html-keyboard-response","75","102060","0.0-4.0-1.0-4.5-1.5-2.5","x1y","[""red""]","976.6000000238419","<p>The experiment will resume in 28 seconds. (press g to skip - Demo only)<p> Remember, press <b>z</b> if the line is horizontal or <b>m</b> if the line is vertical.","g","","","","","","","","","","","",""
"","html-keyboard-response","76","102459","0.0-4.0-1.0-4.5-2.5-0.5","x1y","[""red""]","398.60000002384186","<p>Place your fingers on the <b>z</b> and <b>m</b> keys.The experiment will begin shortly.</p> <p></p>","m","","","","","","","","","","","",""
"","html-keyboard-response","77","102596","0.0-4.0-1.0-4.5-2.5-1.5","x1y","[""red""]","134.80000001192093","<p>Place your fingers on the <b>z</b> and <b>m</b> keys.</b> keys. The experiment will begin shortly.</p><p>5</p>","z","","","","","","","","","","","",""
"","html-keyboard-response","78","102716","0.0-4.0-1.0-4.5-2.5-2.5","x1y","[""red""]","119.19999998807907","<p>Place your fingers on the <b>z</b> and <b>m</b> keys.</b> keys. The experiment will begin shortly.</p><p>4</p>","m","","","","","","","","","","","",""
"","html-keyboard-response","79","102844","0.0-4.0-1.0-4.5-2.5-3.5","x1y","[""red""]","126.40000003576279","<p>Place your fingers on the <b>z</b> and <b>m</b> keys.</b> keys. The experiment will begin shortly.</p><p>3</p>","z","","","","","","","","","","","",""
"","html-keyboard-response","80","102948","0.0-4.0-1.0-4.5-2.5-4.5","x1y","[""red""]","102.69999998807907","<p>Place your fingers on the <b>z</b> and <b>m</b> keys.</b> keys. The experiment will begin shortly.</p><p>2</p>","m","","","","","","","","","","","",""
"","html-keyboard-response","81","103075","0.0-4.0-1.0-4.5-2.5-5.5","x1y","[""red""]","126.69999998807907","<p>Place your fingers on the <b>z</b> and <b>m</b> keys.</b> keys. The experiment will begin shortly.</p><p>1</p>","z","","","","","","","","","","","",""
"","html-keyboard-response","82","103636","0.0-4.0-1.0-0.6","x1y","[""red""]","null","<svg viewBox=""0 0 100 100"" > <path d=""M 50 52 L 50 48"" stroke=""black"" stroke-width="".5""/> <path d=""M 52 50 L 48 50"" stroke=""black"" stroke-width="".5""/>","null","","","","","","","","","","","",""
"","html-keyboard-response","83","103972","0.0-4.0-1.0-1.6","x1y","[""red""]","331.9000000357628","[""<svg viewBox=\""0 0 100 100\"" >"",""<path d=\""M 50 52 L 50 48\"" stroke=\""black\"" stroke-width=\"".5\""/>"","" <path d=\""M 52 50 L 48 50\"" stroke=\""black\"" stroke-width=\"".5\""/>"",""<circle cx=\""50\"" cy=\""50\"" r=\""10\"" fill=\""none\"" transform=\""translate(26 15)\"" stroke=\""red\"" />"",""<path d=\""M 50 57 L 50 43\"" stroke=\""black\"" transform=\""translate(26 15) rotate(0 50 50)\""/>"",""<circle cx=\""50\"" cy=\""50\"" r=\""10\"" fill=\""none\"" transform=\""translate(0 30)\"" stroke=\""cyan\"" />"",""<path d=\""M 50 57 L 50 43\"" stroke=\""black\"" transform=\""translate(0 30) rotate(45 50 50)\""/>"",""<circle cx=\""50\"" cy=\""50\"" r=\""10\"" fill=\""none\"" transform=\""translate(-26 15)\"" stroke=\""blueviolet\"" />"",""<path d=\""M 50 57 L 50 43\"" stroke=\""black\"" transform=\""translate(-26 15) rotate(-45 50 50)\""/>"",""<circle cx=\""50\"" cy=\""50\"" r=\""10\"" fill=\""none\"" transform=\""translate(-26 -15)\"" stroke=\""magenta\"" />"",""<path d=\""M 50 57 L 50 43\"" stroke=\""black\"" transform=\""translate(-26 -15) rotate(-45 50 50)\""/>"",""<circle cx=\""50\"" cy=\""50\"" r=\""10\"" fill=\""none\"" transform=\""translate(0 -30)\"" stroke=\""gold\"" />"",""<path d=\""M 50 57 L 50 43\"" stroke=\""black\"" transform=\""translate(0 -30) rotate(-45 50 50)\""/>"",""<circle cx=\""50\"" cy=\""50\"" r=\""10\"" fill=\""none\"" transform=\""translate(26 -15)\"" stroke=\""black\"" />"",""<path d=\""M 50 57 L 50 43\"" stroke=\""black\"" transform=\""translate(26 -15) rotate(-45 50 50)\""/>"",""</svg>""]","z","","","","VDACtest","red","0","v","false","low","","",""
"","html-keyboard-response","84","106474","0.0-4.0-1.0-2.6","x1y","[""red""]","null","<p style=""font-size:300%;"">Miss.</p><p style=""font-size:300%"">Total: 4 points.</p>","null","","","","","","","","","","4","",""
"","html-keyboard-response","85","108035","0.0-4.0-1.0-0.7","x1y","[""red""]","null","<svg viewBox=""0 0 100 100"" > <path d=""M 50 52 L 50 48"" stroke=""black"" stroke-width="".5""/> <path d=""M 52 50 L 48 50"" stroke=""black"" stroke-width="".5""/>","null","","","","","","","","","","","",""
"","html-keyboard-response","86","108059","0.0-4.0-1.0-1.7","x1y","[""red""]","20.900000035762787","[""<svg viewBox=\""0 0 100 100\"" >"",""<path d=\""M 50 52 L 50 48\"" stroke=\""black\"" stroke-width=\"".5\""/>"","" <path d=\""M 52 50 L 48 50\"" stroke=\""black\"" stroke-width=\"".5\""/>"",""<circle cx=\""50\"" cy=\""50\"" r=\""10\"" fill=\""none\"" transform=\""translate(26 15)\"" stroke=\""cyan\"" />"",""<path d=\""M 50 57 L 50 43\"" stroke=\""black\"" transform=\""translate(26 15) rotate(45 50 50)\""/>"",""<circle cx=\""50\"" cy=\""50\"" r=\""10\"" fill=\""none\"" transform=\""translate(0 30)\"" stroke=\""green\"" />"",""<path d=\""M 50 57 L 50 43\"" stroke=\""black\"" transform=\""translate(0 30) rotate(90 50 50)\""/>"",""<circle cx=\""50\"" cy=\""50\"" r=\""10\"" fill=\""none\"" transform=\""translate(-26 15)\"" stroke=\""black\"" />"",""<path d=\""M 50 57 L 50 43\"" stroke=\""black\"" transform=\""translate(-26 15) rotate(-45 50 50)\""/>"",""<circle cx=\""50\"" cy=\""50\"" r=\""10\"" fill=\""none\"" transform=\""translate(-26 -15)\"" stroke=\""blueviolet\"" />"",""<path d=\""M 50 57 L 50 43\"" stroke=\""black\"" transform=\""translate(-26 -15) rotate(-45 50 50)\""/>"",""<circle cx=\""50\"" cy=\""50\"" r=\""10\"" fill=\""none\"" transform=\""translate(0 -30)\"" stroke=\""magenta\"" />"",""<path d=\""M 50 57 L 50 43\"" stroke=\""black\"" transform=\""translate(0 -30) rotate(-45 50 50)\""/>"",""<circle cx=\""50\"" cy=\""50\"" r=\""10\"" fill=\""none\"" transform=\""translate(26 -15)\"" stroke=\""gold\"" />"",""<path d=\""M 50 57 L 50 43\"" stroke=\""black\"" transform=\""translate(26 -15) rotate(45 50 50)\""/>"",""</svg>""]","z","","","","VDACtest","green","1","h","true","high","","",""
"","html-keyboard-response","87","110564","0.0-4.0-1.0-2.7","x1y","[""red""]","null","<p style=""font-size:300%;""> + 10 points.</p><p style=""font-size:300%"">Total: 14 points.</p>","null","","","","","","","","","","14","",""
"","call-function","88","111570","0.0-5.0","x1y","[""red""]","","","","","","","","","","","","","","",""
"","instructions","89","115211","0.0-6.0-0.0","x1y","[""red""]","3639.400000035763","","","","","[{""page_index"":0,""viewing_time"":1663.9000000357628},{""page_index"":1,""viewing_time"":832},{""page_index"":2,""viewing_time"":448},{""page_index"":3,""viewing_time"":695.3000000119209}]","","","","","","","","",""
"","html-keyboard-response","90","115771","0.0-6.0-1.0-0.0","x1y","[""red""]","null","<svg viewBox=""0 0 100 100"" > <path d=""M 50 52 L 50 48"" stroke=""black"" stroke-width="".5""/> <path d=""M 52 50 L 48 50"" stroke=""black"" stroke-width="".5""/>","null","","","","","","","","","","","",""
"","html-keyboard-response","91","116775","0.0-6.0-1.0-1.0-0.0","x1y","[""red""]","null","[""<svg viewBox=\""0 0 100 100\"" >"",""<path d=\""M 50 52 L 50 48\"" stroke=\""black\"" stroke-width=\"".5\""/>"",""<path d=\""M 52 50 L 48 50\"" stroke=\""black\"" stroke-width=\"".5\""/>"",""text"",""<text dominant-baseline=\""middle\"" x=\""50\"" y=\""50\"" fill=red transform=\""translate(26 15)\"" class=\""bacs2\"">D</text>"",""<text dominant-baseline=\""middle\"" x=\""50\"" y=\""50\"" fill=black transform=\""translate(-26 15)\"" class=\""bacs1\"">n</text>"",""<text dominant-baseline=\""middle\"" x=\""50\"" y=\""50\"" fill=black transform=\""translate(0 -30)\"" class=\""bacs1\"">o</text>"",""</svg>""]","null","","","","","","","","","","","",""
"","html-keyboard-response","92","117277","0.0-6.0-1.0-1.0-1.0","x1y","[""red""]","null","[""<svg viewBox=\""0 0 100 100\"" >"",""<path d=\""M 50 52 L 50 48\"" stroke=\""black\"" stroke-width=\"".5\""/>"",""<path d=\""M 52 50 L 48 50\"" stroke=\""black\"" stroke-width=\"".5\""/>"",""<text dominant-baseline=\""middle\"" text-anchor= \""middle\"" x=\""50\"" y=\""50\"" fill=\""black\"" transform=\""translate(26 15)\"">X</text><text dominant-baseline=\""middle\"" text-anchor= \""middle\"" x=\""50\"" y=\""50\"" fill=\""black\"" transform=\""translate(31 15)\"">X</text><text dominant-baseline=\""middle\"" text-anchor= \""middle\"" x=\""50\"" y=\""50\"" fill=\""black\"" transform=\""translate(21 15)\"">X</text>"",""<text dominant-baseline=\""middle\"" text-anchor= \""middle\"" x=\""50\"" y=\""50\"" fill=\""black\"" transform=\""translate(-26 15)\"">X</text><text dominant-baseline=\""middle\"" text-anchor= \""middle\"" x=\""50\"" y=\""50\"" fill=\""black\"" transform=\""translate(-21 15)\"">X</text><text dominant-baseline=\""middle\"" text-anchor= \""middle\"" x=\""50\"" y=\""50\"" fill=\""black\"" transform=\""translate(-31 15)\"">X</text>"",""<text dominant-baseline=\""middle\"" text-anchor= \""middle\"" x=\""50\"" y=\""50\"" fill=\""black\"" transform=\""translate(0 -30)\"">X</text><text dominant-baseline=\""middle\"" text-anchor= \""middle\"" x=\""50\"" y=\""50\"" fill=\""black\"" transform=\""translate(5 -30)\"">X</text><text dominant-baseline=\""middle\"" text-anchor= \""middle\"" x=\""50\"" y=\""50\"" fill=\""black\"" transform=\""translate(-5 -30)\"">X</text>"",""</svg>""]","null","","","","","","","","","","","",""
"","html-keyboard-response","93","118278","0.0-6.0-1.0-1.0-2.0","x1y","[""red""]","null","<svg viewBox=""0 0 100 100"" > <path d=""M 50 52 L 50 48"" stroke=""black"" stroke-width="".5""/> <path d=""M 52 50 L 48 50"" stroke=""black"" stroke-width="".5""/>","null","","","","","","","","","","","",""
"","html-keyboard-response","94","118540","0.0-6.0-1.0-1.0-3.0","x1y","[""red""]","258.89999997615814","<svg viewBox=""0 0 100 100""><text dominant-baseline=""middle"" x=""50"" y=""50"" class=""bacs2"">D</text><text font-size=""10%"" text-anchor=""middle""  x=""50"" y=""75"">Press z for old or m for new</text>","z","","","","","","","","true","","","","1st"
"","html-keyboard-response","95","121043","0.0-6.0-1.0-2.0","x1y","[""red""]","null","<p style=""font-size:300%;"">Correct!</p>","null","","","","","","","","","","","",""
"","html-keyboard-response","96","122605","0.0-6.0-1.0-0.1","x1y","[""red""]","null","<svg viewBox=""0 0 100 100"" > <path d=""M 50 52 L 50 48"" stroke=""black"" stroke-width="".5""/> <path d=""M 52 50 L 48 50"" stroke=""black"" stroke-width="".5""/>","null","","","","","","","","","","","",""
"","html-keyboard-response","97","123608","0.0-6.0-1.0-1.1-0.1","x1y","[""red""]","null","[""<svg viewBox=\""0 0 100 100\"" >"",""<path d=\""M 50 52 L 50 48\"" stroke=\""black\"" stroke-width=\"".5\""/>"",""<path d=\""M 52 50 L 48 50\"" stroke=\""black\"" stroke-width=\"".5\""/>"",""text"",""<text dominant-baseline=\""middle\"" x=\""50\"" y=\""50\"" fill=black transform=\""translate(0 30)\"" class=\""bacs1\"">S</text>"",""<text dominant-baseline=\""middle\"" x=\""50\"" y=\""50\"" fill=green transform=\""translate(-26 -15)\"" class=\""bacs1\"">k</text>"",""<text dominant-baseline=\""middle\"" x=\""50\"" y=\""50\"" fill=black transform=\""translate(26 -15)\"" class=\""bacs1\"">A</text>"",""</svg>""]","null","","","","","","","","","","","",""
"","html-keyboard-response","98","124110","0.0-6.0-1.0-1.1-1.1","x1y","[""red""]","null","[""<svg viewBox=\""0 0 100 100\"" >"",""<path d=\""M 50 52 L 50 48\"" stroke=\""black\"" stroke-width=\"".5\""/>"",""<path d=\""M 52 50 L 48 50\"" stroke=\""black\"" stroke-width=\"".5\""/>"",""<text dominant-baseline=\""middle\"" text-anchor= \""middle\"" x=\""50\"" y=\""50\"" fill=\""black\"" transform=\""translate(0 30)\"">X</text><text dominant-baseline=\""middle\"" text-anchor= \""middle\"" x=\""50\"" y=\""50\"" fill=\""black\"" transform=\""translate(5 30)\"">X</text><text dominant-baseline=\""middle\"" text-anchor= \""middle\"" x=\""50\"" y=\""50\"" fill=\""black\"" transform=\""translate(-5 30)\"">X</text>"",""<text dominant-baseline=\""middle\"" text-anchor= \""middle\"" x=\""50\"" y=\""50\"" fill=\""black\"" transform=\""translate(-26 -15)\"">X</text><text dominant-baseline=\""middle\"" text-anchor= \""middle\"" x=\""50\"" y=\""50\"" fill=\""black\"" transform=\""translate(-21 -15)\"">X</text><text dominant-baseline=\""middle\"" text-anchor= \""middle\"" x=\""50\"" y=\""50\"" fill=\""black\"" transform=\""translate(-31 -15)\"">X</text>"",""<text dominant-baseline=\""middle\"" text-anchor= \""middle\"" x=\""50\"" y=\""50\"" fill=\""black\"" transform=\""translate(26 -15)\"">X</text><text dominant-baseline=\""middle\"" text-anchor= \""middle\"" x=\""50\"" y=\""50\"" fill=\""black\"" transform=\""translate(31 -15)\"">X</text><text dominant-baseline=\""middle\"" text-anchor= \""middle\"" x=\""50\"" y=\""50\"" fill=\""black\"" transform=\""translate(21 -15)\"">X</text>"",""</svg>""]","null","","","","","","","","","","","",""
"","html-keyboard-response","99","125113","0.0-6.0-1.0-1.1-2.1","x1y","[""red""]","null","<svg viewBox=""0 0 100 100"" > <path d=""M 50 52 L 50 48"" stroke=""black"" stroke-width="".5""/> <path d=""M 52 50 L 48 50"" stroke=""black"" stroke-width="".5""/>","null","","","","","","","","","","","",""
"","html-keyboard-response","100","126660","0.0-6.0-1.0-1.1-3.1","x1y","[""red""]","1544.6000000238419","<svg viewBox=""0 0 100 100""><text dominant-baseline=""middle"" x=""50"" y=""50"" class=""bacs1"">k</text><text font-size=""10%"" text-anchor=""middle""  x=""50"" y=""75"">Press z for old or m for new</text>","m","","","","","","","","false","","","","1st"
"","html-keyboard-response","101","129162","0.0-6.0-1.0-2.1","x1y","[""red""]","null","<p style=""font-size:300%;"">Miss.</p> <p style=""font-size:300%;"">Wrong response.</p>","null","","","","","","","","","","","",""
"","html-keyboard-response","102","130724","0.0-6.0-1.0-0.2","x1y","[""red""]","null","<svg viewBox=""0 0 100 100"" > <path d=""M 50 52 L 50 48"" stroke=""black"" stroke-width="".5""/> <path d=""M 52 50 L 48 50"" stroke=""black"" stroke-width="".5""/>","null","","","","","","","","","","","",""
"","html-keyboard-response","103","131727","0.0-6.0-1.0-1.2-0.2","x1y","[""red""]","null","[""<svg viewBox=\""0 0 100 100\"" >"",""<path d=\""M 50 52 L 50 48\"" stroke=\""black\"" stroke-width=\"".5\""/>"",""<path d=\""M 52 50 L 48 50\"" stroke=\""black\"" stroke-width=\"".5\""/>"",""text"",""<text dominant-baseline=\""middle\"" x=\""50\"" y=\""50\"" fill=black transform=\""translate(26 15)\"" class=\""bacs1\"">L</text>"",""<text dominant-baseline=\""middle\"" x=\""50\"" y=\""50\"" fill=black transform=\""translate(-26 15)\"" class=\""bacs2\"">e</text>"",""<text dominant-baseline=\""middle\"" x=\""50\"" y=\""50\"" fill=green transform=\""translate(0 -30)\"" class=\""bacs2\"">Y</text>"",""</svg>""]","null","","","","","","","","","","","",""
"","html-keyboard-response","104","132229","0.0-6.0-1.0-1.2-1.2","x1y","[""red""]","null","[""<svg viewBox=\""0 0 100 100\"" >"",""<path d=\""M 50 52 L 50 48\"" stroke=\""black\"" stroke-width=\"".5\""/>"",""<path d=\""M 52 50 L 48 50\"" stroke=\""black\"" stroke-width=\"".5\""/>"",""<text dominant-baseline=\""middle\"" text-anchor= \""middle\"" x=\""50\"" y=\""50\"" fill=\""black\"" transform=\""translate(26 15)\"">X</text><text dominant-baseline=\""middle\"" text-anchor= \""middle\"" x=\""50\"" y=\""50\"" fill=\""black\"" transform=\""translate(31 15)\"">X</text><text dominant-baseline=\""middle\"" text-anchor= \""middle\"" x=\""50\"" y=\""50\"" fill=\""black\"" transform=\""translate(21 15)\"">X</text>"",""<text dominant-baseline=\""middle\"" text-anchor= \""middle\"" x=\""50\"" y=\""50\"" fill=\""black\"" transform=\""translate(-26 15)\"">X</text><text dominant-baseline=\""middle\"" text-anchor= \""middle\"" x=\""50\"" y=\""50\"" fill=\""black\"" transform=\""translate(-21 15)\"">X</text><text dominant-baseline=\""middle\"" text-anchor= \""middle\"" x=\""50\"" y=\""50\"" fill=\""black\"" transform=\""translate(-31 15)\"">X</text>"",""<text dominant-baseline=\""middle\"" text-anchor= \""middle\"" x=\""50\"" y=\""50\"" fill=\""black\"" transform=\""translate(0 -30)\"">X</text><text dominant-baseline=\""middle\"" text-anchor= \""middle\"" x=\""50\"" y=\""50\"" fill=\""black\"" transform=\""translate(5 -30)\"">X</text><text dominant-baseline=\""middle\"" text-anchor= \""middle\"" x=\""50\"" y=\""50\"" fill=\""black\"" transform=\""translate(-5 -30)\"">X</text>"",""</svg>""]","null","","","","","","","","","","","",""
"","html-keyboard-response","105","133232","0.0-6.0-1.0-1.2-2.2","x1y","[""red""]","null","<svg viewBox=""0 0 100 100"" > <path d=""M 50 52 L 50 48"" stroke=""black"" stroke-width="".5""/> <path d=""M 52 50 L 48 50"" stroke=""black"" stroke-width="".5""/>","null","","","","","","","","","","","",""
"","html-keyboard-response","106","134307","0.0-6.0-1.0-1.2-3.2","x1y","[""red""]","1072.699999988079","<svg viewBox=""0 0 100 100""><text dominant-baseline=""middle"" x=""50"" y=""50"" class=""bacs1"">c</text><text font-size=""10%"" text-anchor=""middle""  x=""50"" y=""75"">Press z for old or m for new</text>","m","","","","","","","","true","","","","new"
"","html-keyboard-response","107","136809","0.0-6.0-1.0-2.2","x1y","[""red""]","null","<p style=""font-size:300%;"">Correct!</p>","null","","","","","","","","","","","",""
"","html-keyboard-response","108","138371","0.0-6.0-1.0-0.3","x1y","[""red""]","null","<svg viewBox=""0 0 100 100"" > <path d=""M 50 52 L 50 48"" stroke=""black"" stroke-width="".5""/> <path d=""M 52 50 L 48 50"" stroke=""black"" stroke-width="".5""/>","null","","","","","","","","","","","",""
"","html-keyboard-response","109","139374","0.0-6.0-1.0-1.3-0.3","x1y","[""red""]","null","[""<svg viewBox=\""0 0 100 100\"" >"",""<path d=\""M 50 52 L 50 48\"" stroke=\""black\"" stroke-width=\"".5\""/>"",""<path d=\""M 52 50 L 48 50\"" stroke=\""black\"" stroke-width=\"".5\""/>"",""text"",""<text dominant-baseline=\""middle\"" x=\""50\"" y=\""50\"" fill=red transform=\""translate(0 30)\"" class=\""bacs2\"">T</text>"",""<text dominant-baseline=\""middle\"" x=\""50\"" y=\""50\"" fill=black transform=\""translate(-26 -15)\"" class=\""bacs1\"">B</text>"",""<text dominant-baseline=\""middle\"" x=\""50\"" y=\""50\"" fill=black transform=\""translate(26 -15)\"" class=\""bacs1\"">T</text>"",""</svg>""]","null","","","","","","","","","","","",""
"","html-keyboard-response","110","139876","0.0-6.0-1.0-1.3-1.3","x1y","[""red""]","null","[""<svg viewBox=\""0 0 100 100\"" >"",""<path d=\""M 50 52 L 50 48\"" stroke=\""black\"" stroke-width=\"".5\""/>"",""<path d=\""M 52 50 L 48 50\"" stroke=\""black\"" stroke-width=\"".5\""/>"",""<text dominant-baseline=\""middle\"" text-anchor= \""middle\"" x=\""50\"" y=\""50\"" fill=\""black\"" transform=\""translate(0 30)\"">X</text><text dominant-baseline=\""middle\"" text-anchor= \""middle\"" x=\""50\"" y=\""50\"" fill=\""black\"" transform=\""translate(5 30)\"">X</text><text dominant-baseline=\""middle\"" text-anchor= \""middle\"" x=\""50\"" y=\""50\"" fill=\""black\"" transform=\""translate(-5 30)\"">X</text>"",""<text dominant-baseline=\""middle\"" text-anchor= \""middle\"" x=\""50\"" y=\""50\"" fill=\""black\"" transform=\""translate(-26 -15)\"">X</text><text dominant-baseline=\""middle\"" text-anchor= \""middle\"" x=\""50\"" y=\""50\"" fill=\""black\"" transform=\""translate(-21 -15)\"">X</text><text dominant-baseline=\""middle\"" text-anchor= \""middle\"" x=\""50\"" y=\""50\"" fill=\""black\"" transform=\""translate(-31 -15)\"">X</text>"",""<text dominant-baseline=\""middle\"" text-anchor= \""middle\"" x=\""50\"" y=\""50\"" fill=\""black\"" transform=\""translate(26 -15)\"">X</text><text dominant-baseline=\""middle\"" text-anchor= \""middle\"" x=\""50\"" y=\""50\"" fill=\""black\"" transform=\""translate(31 -15)\"">X</text><text dominant-baseline=\""middle\"" text-anchor= \""middle\"" x=\""50\"" y=\""50\"" fill=\""black\"" transform=\""translate(21 -15)\"">X</text>"",""</svg>""]","null","","","","","","","","","","","",""
"","html-keyboard-response","111","140878","0.0-6.0-1.0-1.3-2.3","x1y","[""red""]","null","<svg viewBox=""0 0 100 100"" > <path d=""M 50 52 L 50 48"" stroke=""black"" stroke-width="".5""/> <path d=""M 52 50 L 48 50"" stroke=""black"" stroke-width="".5""/>","null","","","","","","","","","","","",""
"","html-keyboard-response","112","141332","0.0-6.0-1.0-1.3-3.3","x1y","[""red""]","450.69999998807907","<svg viewBox=""0 0 100 100""><text dominant-baseline=""middle"" x=""50"" y=""50"" class=""bacs2"">n</text><text font-size=""10%"" text-anchor=""middle""  x=""50"" y=""75"">Press z for old or m for new</text>","z","","","","","","","","false","","","","new"
"","html-keyboard-response","113","143834","0.0-6.0-1.0-2.3","x1y","[""red""]","null","<p style=""font-size:300%;"">Miss.</p> <p style=""font-size:300%;"">Wrong response.</p>","null","","","","","","","","","","","",""
"","html-keyboard-response","114","145395","0.0-6.0-1.0-0.4","x1y","[""red""]","null","<svg viewBox=""0 0 100 100"" > <path d=""M 50 52 L 50 48"" stroke=""black"" stroke-width="".5""/> <path d=""M 52 50 L 48 50"" stroke=""black"" stroke-width="".5""/>","null","","","","","","","","","","","",""
"","html-keyboard-response","115","146398","0.0-6.0-1.0-1.4-0.4","x1y","[""red""]","null","[""<svg viewBox=\""0 0 100 100\"" >"",""<path d=\""M 50 52 L 50 48\"" stroke=\""black\"" stroke-width=\"".5\""/>"",""<path d=\""M 52 50 L 48 50\"" stroke=\""black\"" stroke-width=\"".5\""/>"",""text"",""<text dominant-baseline=\""middle\"" x=\""50\"" y=\""50\"" fill=black transform=\""translate(26 15)\"" class=\""bacs1\"">n</text>"",""<text dominant-baseline=\""middle\"" x=\""50\"" y=\""50\"" fill=black transform=\""translate(-26 15)\"" class=\""bacs2\"">L</text>"",""<text dominant-baseline=\""middle\"" x=\""50\"" y=\""50\"" fill=black transform=\""translate(0 -30)\"" class=\""bacs1\"">b</text>"",""</svg>""]","null","","","","","","","","","","","",""
"","html-keyboard-response","116","146902","0.0-6.0-1.0-1.4-1.4","x1y","[""red""]","null","[""<svg viewBox=\""0 0 100 100\"" >"",""<path d=\""M 50 52 L 50 48\"" stroke=\""black\"" stroke-width=\"".5\""/>"",""<path d=\""M 52 50 L 48 50\"" stroke=\""black\"" stroke-width=\"".5\""/>"",""<text dominant-baseline=\""middle\"" text-anchor= \""middle\"" x=\""50\"" y=\""50\"" fill=\""black\"" transform=\""translate(26 15)\"">X</text><text dominant-baseline=\""middle\"" text-anchor= \""middle\"" x=\""50\"" y=\""50\"" fill=\""black\"" transform=\""translate(31 15)\"">X</text><text dominant-baseline=\""middle\"" text-anchor= \""middle\"" x=\""50\"" y=\""50\"" fill=\""black\"" transform=\""translate(21 15)\"">X</text>"",""<text dominant-baseline=\""middle\"" text-anchor= \""middle\"" x=\""50\"" y=\""50\"" fill=\""black\"" transform=\""translate(-26 15)\"">X</text><text dominant-baseline=\""middle\"" text-anchor= \""middle\"" x=\""50\"" y=\""50\"" fill=\""black\"" transform=\""translate(-21 15)\"">X</text><text dominant-baseline=\""middle\"" text-anchor= \""middle\"" x=\""50\"" y=\""50\"" fill=\""black\"" transform=\""translate(-31 15)\"">X</text>"",""<text dominant-baseline=\""middle\"" text-anchor= \""middle\"" x=\""50\"" y=\""50\"" fill=\""black\"" transform=\""translate(0 -30)\"">X</text><text dominant-baseline=\""middle\"" text-anchor= \""middle\"" x=\""50\"" y=\""50\"" fill=\""black\"" transform=\""translate(5 -30)\"">X</text><text dominant-baseline=\""middle\"" text-anchor= \""middle\"" x=\""50\"" y=\""50\"" fill=\""black\"" transform=\""translate(-5 -30)\"">X</text>"",""</svg>""]","null","","","","","","","","","","","",""
"","html-keyboard-response","117","147908","0.0-6.0-1.0-1.4-2.4","x1y","[""red""]","null","<svg viewBox=""0 0 100 100"" > <path d=""M 50 52 L 50 48"" stroke=""black"" stroke-width="".5""/> <path d=""M 52 50 L 48 50"" stroke=""black"" stroke-width="".5""/>","null","","","","","","","","","","","",""
"","html-keyboard-response","118","148619","0.0-6.0-1.0-1.4-3.4","x1y","[""red""]","708.4000000357628","<svg viewBox=""0 0 100 100""><text dominant-baseline=""middle"" x=""50"" y=""50"" class=""bacs1"">b</text><text font-size=""10%"" text-anchor=""middle""  x=""50"" y=""75"">Press z for old or m for new</text>","m","","","","","","","","false","","","","1st"
"","html-keyboard-response","119","151123","0.0-6.0-1.0-2.4","x1y","[""red""]","null","<p style=""font-size:300%;"">Miss.</p> <p style=""font-size:300%;"">Wrong response.</p>","null","","","","","","","","","","","",""
"","html-keyboard-response","120","152684","0.0-6.0-1.0-0.5","x1y","[""red""]","null","<svg viewBox=""0 0 100 100"" > <path d=""M 50 52 L 50 48"" stroke=""black"" stroke-width="".5""/> <path d=""M 52 50 L 48 50"" stroke=""black"" stroke-width="".5""/>","null","","","","","","","","","","","",""
"","html-keyboard-response","121","153687","0.0-6.0-1.0-1.5-0.5","x1y","[""red""]","null","[""<svg viewBox=\""0 0 100 100\"" >"",""<path d=\""M 50 52 L 50 48\"" stroke=\""black\"" stroke-width=\"".5\""/>"",""<path d=\""M 52 50 L 48 50\"" stroke=\""black\"" stroke-width=\"".5\""/>"",""text"",""<text dominant-baseline=\""middle\"" x=\""50\"" y=\""50\"" fill=black transform=\""translate(0 30)\"" class=\""bacs2\"">l</text>"",""<text dominant-baseline=\""middle\"" x=\""50\"" y=\""50\"" fill=black transform=\""translate(-26 -15)\"" class=\""bacs1\"">v</text>"",""<text dominant-baseline=\""middle\"" x=\""50\"" y=\""50\"" fill=black transform=\""translate(26 -15)\"" class=\""bacs1\"">V</text>"",""</svg>""]","null","","","","","","","","","","","",""
"","html-keyboard-response","122","154189","0.0-6.0-1.0-1.5-1.5","x1y","[""red""]","null","[""<svg viewBox=\""0 0 100 100\"" >"",""<path d=\""M 50 52 L 50 48\"" stroke=\""black\"" stroke-width=\"".5\""/>"",""<path d=\""M 52 50 L 48 50\"" stroke=\""black\"" stroke-width=\"".5\""/>"",""<text dominant-baseline=\""middle\"" text-anchor= \""middle\"" x=\""50\"" y=\""50\"" fill=\""black\"" transform=\""translate(0 30)\"">X</text><text dominant-baseline=\""middle\"" text-anchor= \""middle\"" x=\""50\"" y=\""50\"" fill=\""black\"" transform=\""translate(5 30)\"">X</text><text dominant-baseline=\""middle\"" text-anchor= \""middle\"" x=\""50\"" y=\""50\"" fill=\""black\"" transform=\""translate(-5 30)\"">X</text>"",""<text dominant-baseline=\""middle\"" text-anchor= \""middle\"" x=\""50\"" y=\""50\"" fill=\""black\"" transform=\""translate(-26 -15)\"">X</text><text dominant-baseline=\""middle\"" text-anchor= \""middle\"" x=\""50\"" y=\""50\"" fill=\""black\"" transform=\""translate(-21 -15)\"">X</text><text dominant-baseline=\""middle\"" text-anchor= \""middle\"" x=\""50\"" y=\""50\"" fill=\""black\"" transform=\""translate(-31 -15)\"">X</text>"",""<text dominant-baseline=\""middle\"" text-anchor= \""middle\"" x=\""50\"" y=\""50\"" fill=\""black\"" transform=\""translate(26 -15)\"">X</text><text dominant-baseline=\""middle\"" text-anchor= \""middle\"" x=\""50\"" y=\""50\"" fill=\""black\"" transform=\""translate(31 -15)\"">X</text><text dominant-baseline=\""middle\"" text-anchor= \""middle\"" x=\""50\"" y=\""50\"" fill=\""black\"" transform=\""translate(21 -15)\"">X</text>"",""</svg>""]","null","","","","","","","","","","","",""
"","html-keyboard-response","123","155192","0.0-6.0-1.0-1.5-2.5","x1y","[""red""]","null","<svg viewBox=""0 0 100 100"" > <path d=""M 50 52 L 50 48"" stroke=""black"" stroke-width="".5""/> <path d=""M 52 50 L 48 50"" stroke=""black"" stroke-width="".5""/>","null","","","","","","","","","","","",""
"","html-keyboard-response","124","156260","0.0-6.0-1.0-1.5-3.5","x1y","[""red""]","1065.1000000238419","<svg viewBox=""0 0 100 100""><text dominant-baseline=""middle"" x=""50"" y=""50"" class=""bacs1"">c</text><text font-size=""10%"" text-anchor=""middle""  x=""50"" y=""75"">Press z for old or m for new</text>","m","","","","","","","","true","","","","new"
"","html-keyboard-response","125","158763","0.0-6.0-1.0-2.5","x1y","[""red""]","null","<p style=""font-size:300%;"">Correct!</p>","null","","","","","","","","","","","",""
"","html-keyboard-response","126","161587","0.0-6.0-2.0","x1y","[""red""]","1822.7000000476837","<p>You have now finished the training exercise. If you would like to repeat the instructions and training exercise, press <b>R</b>. If you are ready to continue to the task, press <b>C</b>. </p>","c","","","","","","","","","","","",""
"","html-keyboard-response","127","162563","0.0-7.0-0.0","x1y","[""red""]","973.7999999523163","<p>Place your fingers on the <b>z</b> and <b>m</b> keys.The experiment will begin shortly.</p> <p></p>","m","","","","","","","","","","","",""
"","html-keyboard-response","128","162763","0.0-7.0-1.0","x1y","[""red""]","198.69999998807907","<p>Place your fingers on the <b>z</b> and <b>m</b> keys.</b> keys. The experiment will begin shortly.</p><p>5</p>","z","","","","","","","","","","","",""
"","html-keyboard-response","129","163251","0.0-7.0-2.0","x1y","[""red""]","486.80000001192093","<p>Place your fingers on the <b>z</b> and <b>m</b> keys.</b> keys. The experiment will begin shortly.</p><p>4</p>","m","","","","","","","","","","","",""
"","html-keyboard-response","130","163507","0.0-7.0-3.0","x1y","[""red""]","254.69999998807907","<p>Place your fingers on the <b>z</b> and <b>m</b> keys.</b> keys. The experiment will begin shortly.</p><p>3</p>","z","","","","","","","","","","","",""
"","html-keyboard-response","131","164243","0.0-7.0-4.0","x1y","[""red""]","734.6999999880791","<p>Place your fingers on the <b>z</b> and <b>m</b> keys.</b> keys. The experiment will begin shortly.</p><p>2</p>","m","","","","","","","","","","","",""
"","html-keyboard-response","132","165245","0.0-7.0-5.0","x1y","[""red""]","null","<p>Place your fingers on the <b>z</b> and <b>m</b> keys.</b> keys. The experiment will begin shortly.</p><p>1</p>","null","","","","","","","","","","","",""
"","html-keyboard-response","133","165806","0.0-8.0-1.0-0.0","x1y","[""red""]","null","<svg viewBox=""0 0 100 100"" > <path d=""M 50 52 L 50 48"" stroke=""black"" stroke-width="".5""/> <path d=""M 52 50 L 48 50"" stroke=""black"" stroke-width="".5""/>","null","","","","","","","","","","","",""
"","html-keyboard-response","134","166809","0.0-8.0-1.0-1.0-0.0","x1y","[""red""]","null","[""<svg viewBox=\""0 0 100 100\"" >"",""<path d=\""M 50 52 L 50 48\"" stroke=\""black\"" stroke-width=\"".5\""/>"",""<path d=\""M 52 50 L 48 50\"" stroke=\""black\"" stroke-width=\"".5\""/>"",""<text dominant-baseline=\""middle\"" x=\""50\"" y=\""50\"" fill=red transform=\""translate(26 15)\"" class=\""bacs1\"">r</text>"",""<text dominant-baseline=\""middle\"" x=\""50\"" y=\""50\"" fill=black transform=\""translate(-26 15)\"" class=\""bacs1\"">N</text>"",""<text dominant-baseline=\""middle\"" x=\""50\"" y=\""50\"" fill=black transform=\""translate(0 -30)\"" class=\""bacs1\"">J</text>"",""</svg>""]","null","","","","","","","","","","","",""
"","html-keyboard-response","135","167312","0.0-8.0-1.0-1.0-1.0","x1y","[""red""]","null","[""<svg viewBox=\""0 0 100 100\"" >"",""<path d=\""M 50 52 L 50 48\"" stroke=\""black\"" stroke-width=\"".5\""/>"",""<path d=\""M 52 50 L 48 50\"" stroke=\""black\"" stroke-width=\"".5\""/>"",""<text dominant-baseline=\""middle\"" text-anchor= \""middle\"" x=\""50\"" y=\""50\"" fill=\""black\"" transform=\""translate(26 15)\"">X</text><text dominant-baseline=\""middle\"" text-anchor= \""middle\"" x=\""50\"" y=\""50\"" fill=\""black\"" transform=\""translate(31 15)\"">X</text><text dominant-baseline=\""middle\"" text-anchor= \""middle\"" x=\""50\"" y=\""50\"" fill=\""black\"" transform=\""translate(21 15)\"">X</text>"",""<text dominant-baseline=\""middle\"" text-anchor= \""middle\"" x=\""50\"" y=\""50\"" fill=\""black\"" transform=\""translate(-26 15)\"">X</text><text dominant-baseline=\""middle\"" text-anchor= \""middle\"" x=\""50\"" y=\""50\"" fill=\""black\"" transform=\""translate(-21 15)\"">X</text><text dominant-baseline=\""middle\"" text-anchor= \""middle\"" x=\""50\"" y=\""50\"" fill=\""black\"" transform=\""translate(-31 15)\"">X</text>"",""<text dominant-baseline=\""middle\"" text-anchor= \""middle\"" x=\""50\"" y=\""50\"" fill=\""black\"" transform=\""translate(0 -30)\"">X</text><text dominant-baseline=\""middle\"" text-anchor= \""middle\"" x=\""50\"" y=\""50\"" fill=\""black\"" transform=\""translate(5 -30)\"">X</text><text dominant-baseline=\""middle\"" text-anchor= \""middle\"" x=\""50\"" y=\""50\"" fill=\""black\"" transform=\""translate(-5 -30)\"">X</text>"",""</svg>""]","null","","","","","","","","","","","",""
"","html-keyboard-response","136","168314","0.0-8.0-1.0-1.0-2.0","x1y","[""red""]","null","<svg viewBox=""0 0 100 100"" > <path d=""M 50 52 L 50 48"" stroke=""black"" stroke-width="".5""/> <path d=""M 52 50 L 48 50"" stroke=""black"" stroke-width="".5""/>","null","","","","","","","","","","","",""
"","html-keyboard-response","137","169179","0.0-8.0-1.0-1.0-3.0","x1y","[""red""]","863.1999999880791","<svg viewBox=""0 0 100 100""><text dominant-baseline=""middle"" x=""50"" y=""50"" class=""bacs1"">r</text></svg>","z","","","","RSVPtest","","","","true","","","","1st"
"","html-keyboard-response","138","171684","0.0-8.0-1.0-2.0","x1y","[""red""]","null","<p style=""font-size:300%;"">Correct!</p>","null","","","","","","","","","","","",""
"","html-keyboard-response","139","173247","0.0-8.0-1.0-0.1","x1y","[""red""]","null","<svg viewBox=""0 0 100 100"" > <path d=""M 50 52 L 50 48"" stroke=""black"" stroke-width="".5""/> <path d=""M 52 50 L 48 50"" stroke=""black"" stroke-width="".5""/>","null","","","","","","","","","","","",""
"","html-keyboard-response","140","174250","0.0-8.0-1.0-1.1-0.1","x1y","[""red""]","null","[""<svg viewBox=\""0 0 100 100\"" >"",""<path d=\""M 50 52 L 50 48\"" stroke=\""black\"" stroke-width=\"".5\""/>"",""<path d=\""M 52 50 L 48 50\"" stroke=\""black\"" stroke-width=\"".5\""/>"",""<text dominant-baseline=\""middle\"" x=\""50\"" y=\""50\"" fill=black transform=\""translate(0 30)\"" class=\""bacs1\"">L</text>"",""<text dominant-baseline=\""middle\"" x=\""50\"" y=\""50\"" fill=green transform=\""translate(-26 -15)\"" class=\""bacs2\"">y</text>"",""<text dominant-baseline=\""middle\"" x=\""50\"" y=\""50\"" fill=black transform=\""translate(26 -15)\"" class=\""bacs1\"">e</text>"",""</svg>""]","null","","","","","","","","","","","",""
"","html-keyboard-response","141","174753","0.0-8.0-1.0-1.1-1.1","x1y","[""red""]","null","[""<svg viewBox=\""0 0 100 100\"" >"",""<path d=\""M 50 52 L 50 48\"" stroke=\""black\"" stroke-width=\"".5\""/>"",""<path d=\""M 52 50 L 48 50\"" stroke=\""black\"" stroke-width=\"".5\""/>"",""<text dominant-baseline=\""middle\"" text-anchor= \""middle\"" x=\""50\"" y=\""50\"" fill=\""black\"" transform=\""translate(0 30)\"">X</text><text dominant-baseline=\""middle\"" text-anchor= \""middle\"" x=\""50\"" y=\""50\"" fill=\""black\"" transform=\""translate(5 30)\"">X</text><text dominant-baseline=\""middle\"" text-anchor= \""middle\"" x=\""50\"" y=\""50\"" fill=\""black\"" transform=\""translate(-5 30)\"">X</text>"",""<text dominant-baseline=\""middle\"" text-anchor= \""middle\"" x=\""50\"" y=\""50\"" fill=\""black\"" transform=\""translate(-26 -15)\"">X</text><text dominant-baseline=\""middle\"" text-anchor= \""middle\"" x=\""50\"" y=\""50\"" fill=\""black\"" transform=\""translate(-21 -15)\"">X</text><text dominant-baseline=\""middle\"" text-anchor= \""middle\"" x=\""50\"" y=\""50\"" fill=\""black\"" transform=\""translate(-31 -15)\"">X</text>"",""<text dominant-baseline=\""middle\"" text-anchor= \""middle\"" x=\""50\"" y=\""50\"" fill=\""black\"" transform=\""translate(26 -15)\"">X</text><text dominant-baseline=\""middle\"" text-anchor= \""middle\"" x=\""50\"" y=\""50\"" fill=\""black\"" transform=\""translate(31 -15)\"">X</text><text dominant-baseline=\""middle\"" text-anchor= \""middle\"" x=\""50\"" y=\""50\"" fill=\""black\"" transform=\""translate(21 -15)\"">X</text>"",""</svg>""]","null","","","","","","","","","","","",""
"","html-keyboard-response","142","175754","0.0-8.0-1.0-1.1-2.1","x1y","[""red""]","null","<svg viewBox=""0 0 100 100"" > <path d=""M 50 52 L 50 48"" stroke=""black"" stroke-width="".5""/> <path d=""M 52 50 L 48 50"" stroke=""black"" stroke-width="".5""/>","null","","","","","","","","","","","",""
"","html-keyboard-response","143","176667","0.0-8.0-1.0-1.1-3.1","x1y","[""red""]","911.1000000238419","<svg viewBox=""0 0 100 100""><text dominant-baseline=""middle"" x=""50"" y=""50"" class=""bacs2"">y</text></svg>","z","","","","RSVPtest","","","","true","","","","1st"
"","html-keyboard-response","144","179170","0.0-8.0-1.0-2.1","x1y","[""red""]","null","<p style=""font-size:300%;"">Correct!</p>","null","","","","","","","","","","","",""
"","html-keyboard-response","145","181436","0.0-8.0-1.0-4.1-0.1","x1y","[""red""]","1261.6000000238419","<p>You have finished block 1 of 4.<p>You responded correctly on 100% of the trials.<p>On the next screen, you will be given a 30 second break. Press the <b>g</b> key to start your break.","g","","","","","","","","","","","",""
"","html-keyboard-response","146","182438","0.0-8.0-1.0-4.1-1.1-0.1","x1y","[""red""]","null","<p>The experiment will resume in 30 seconds. (press g to skip - Demo only)<p> Remember, press <b>z</b> if the symbol is old or <b>m</b> if the symbol is new.","null","","","","","","","","","","","",""
"","html-keyboard-response","147","183043","0.0-8.0-1.0-4.1-1.1-1.1","x1y","[""red""]","603.3999999761581","<p>The experiment will resume in 29 seconds. (press g to skip - Demo only)<p> Remember, press <b>z</b> if the symbol is old or <b>m</b> if the symbol is new.","g","","","","","","","","","","","",""
"","html-keyboard-response","148","183387","0.0-8.0-1.0-4.1-2.1-0.1","x1y","[""red""]","342.5999999642372","<p>Place your fingers on the <b>z</b> and <b>m</b> keys.The experiment will begin shortly.</p> <p></p>","g","","","","","","","","","","","",""
"","html-keyboard-response","149","183715","0.0-8.0-1.0-4.1-2.1-1.1","x1y","[""red""]","326.5999999642372","<p>Place your fingers on the <b>z</b> and <b>m</b> keys.</b> keys. The experiment will begin shortly.</p><p>5</p>","z","","","","","","","","","","","",""
"","html-keyboard-response","150","184251","0.0-8.0-1.0-4.1-2.1-2.1","x1y","[""red""]","534.6999999880791","<p>Place your fingers on the <b>z</b> and <b>m</b> keys.</b> keys. The experiment will begin shortly.</p><p>4</p>","z","","","","","","","","","","","",""
"","html-keyboard-response","151","184459","0.0-8.0-1.0-4.1-2.1-3.1","x1y","[""red""]","206.69999998807907","<p>Place your fingers on the <b>z</b> and <b>m</b> keys.</b> keys. The experiment will begin shortly.</p><p>3</p>","z","","","","","","","","","","","",""
"","html-keyboard-response","152","184675","0.0-8.0-1.0-4.1-2.1-4.1","x1y","[""red""]","214.5999999642372","<p>Place your fingers on the <b>z</b> and <b>m</b> keys.</b> keys. The experiment will begin shortly.</p><p>2</p>","z","","","","","","","","","","","",""
"","html-keyboard-response","153","185677","0.0-8.0-1.0-4.1-2.1-5.1","x1y","[""red""]","null","<p>Place your fingers on the <b>z</b> and <b>m</b> keys.</b> keys. The experiment will begin shortly.</p><p>1</p>","null","","","","","","","","","","","",""
"","html-keyboard-response","154","186238","0.0-8.0-1.0-0.2","x1y","[""red""]","null","<svg viewBox=""0 0 100 100"" > <path d=""M 50 52 L 50 48"" stroke=""black"" stroke-width="".5""/> <path d=""M 52 50 L 48 50"" stroke=""black"" stroke-width="".5""/>","null","","","","","","","","","","","",""
"","html-keyboard-response","155","187242","0.0-8.0-1.0-1.2-0.2","x1y","[""red""]","null","[""<svg viewBox=\""0 0 100 100\"" >"",""<path d=\""M 50 52 L 50 48\"" stroke=\""black\"" stroke-width=\"".5\""/>"",""<path d=\""M 52 50 L 48 50\"" stroke=\""black\"" stroke-width=\"".5\""/>"",""<text dominant-baseline=\""middle\"" x=\""50\"" y=\""50\"" fill=black transform=\""translate(26 15)\"" class=\""bacs1\"">r</text>"",""<text dominant-baseline=\""middle\"" x=\""50\"" y=\""50\"" fill=black transform=\""translate(-26 15)\"" class=\""bacs1\"">h</text>"",""<text dominant-baseline=\""middle\"" x=\""50\"" y=\""50\"" fill=black transform=\""translate(0 -30)\"" class=\""bacs2\"">u</text>"",""</svg>""]","null","","","","","","","","","","","",""
"","html-keyboard-response","156","187745","0.0-8.0-1.0-1.2-1.2","x1y","[""red""]","null","[""<svg viewBox=\""0 0 100 100\"" >"",""<path d=\""M 50 52 L 50 48\"" stroke=\""black\"" stroke-width=\"".5\""/>"",""<path d=\""M 52 50 L 48 50\"" stroke=\""black\"" stroke-width=\"".5\""/>"",""<text dominant-baseline=\""middle\"" text-anchor= \""middle\"" x=\""50\"" y=\""50\"" fill=\""black\"" transform=\""translate(26 15)\"">X</text><text dominant-baseline=\""middle\"" text-anchor= \""middle\"" x=\""50\"" y=\""50\"" fill=\""black\"" transform=\""translate(31 15)\"">X</text><text dominant-baseline=\""middle\"" text-anchor= \""middle\"" x=\""50\"" y=\""50\"" fill=\""black\"" transform=\""translate(21 15)\"">X</text>"",""<text dominant-baseline=\""middle\"" text-anchor= \""middle\"" x=\""50\"" y=\""50\"" fill=\""black\"" transform=\""translate(-26 15)\"">X</text><text dominant-baseline=\""middle\"" text-anchor= \""middle\"" x=\""50\"" y=\""50\"" fill=\""black\"" transform=\""translate(-21 15)\"">X</text><text dominant-baseline=\""middle\"" text-anchor= \""middle\"" x=\""50\"" y=\""50\"" fill=\""black\"" transform=\""translate(-31 15)\"">X</text>"",""<text dominant-baseline=\""middle\"" text-anchor= \""middle\"" x=\""50\"" y=\""50\"" fill=\""black\"" transform=\""translate(0 -30)\"">X</text><text dominant-baseline=\""middle\"" text-anchor= \""middle\"" x=\""50\"" y=\""50\"" fill=\""black\"" transform=\""translate(5 -30)\"">X</text><text dominant-baseline=\""middle\"" text-anchor= \""middle\"" x=\""50\"" y=\""50\"" fill=\""black\"" transform=\""translate(-5 -30)\"">X</text>"",""</svg>""]","null","","","","","","","","","","","",""
"","html-keyboard-response","157","188746","0.0-8.0-1.0-1.2-2.2","x1y","[""red""]","null","<svg viewBox=""0 0 100 100"" > <path d=""M 50 52 L 50 48"" stroke=""black"" stroke-width="".5""/> <path d=""M 52 50 L 48 50"" stroke=""black"" stroke-width="".5""/>","null","","","","","","","","","","","",""
"","html-keyboard-response","158","189507","0.0-8.0-1.0-1.2-3.2","x1y","[""red""]","758.8999999761581","<svg viewBox=""0 0 100 100""><text dominant-baseline=""middle"" x=""50"" y=""50"" class=""bacs2"">u</text></svg>","z","","","","RSVPtest","","","","true","","","","1st"
"","html-keyboard-response","159","192010","0.0-8.0-1.0-2.2","x1y","[""red""]","null","<p style=""font-size:300%;"">Correct!</p>","null","","","","","","","","","","","",""
"","html-keyboard-response","160","193573","0.0-8.0-1.0-0.3","x1y","[""red""]","null","<svg viewBox=""0 0 100 100"" > <path d=""M 50 52 L 50 48"" stroke=""black"" stroke-width="".5""/> <path d=""M 52 50 L 48 50"" stroke=""black"" stroke-width="".5""/>","null","","","","","","","","","","","",""
"","html-keyboard-response","161","194576","0.0-8.0-1.0-1.3-0.3","x1y","[""red""]","null","[""<svg viewBox=\""0 0 100 100\"" >"",""<path d=\""M 50 52 L 50 48\"" stroke=\""black\"" stroke-width=\"".5\""/>"",""<path d=\""M 52 50 L 48 50\"" stroke=\""black\"" stroke-width=\"".5\""/>"",""<text dominant-baseline=\""middle\"" x=\""50\"" y=\""50\"" fill=black transform=\""translate(0 30)\"" class=\""bacs1\"">P</text>"",""<text dominant-baseline=\""middle\"" x=\""50\"" y=\""50\"" fill=black transform=\""translate(-26 -15)\"" class=\""bacs1\"">p</text>"",""<text dominant-baseline=\""middle\"" x=\""50\"" y=\""50\"" fill=black transform=\""translate(26 -15)\"" class=\""bacs1\"">Q</text>"",""</svg>""]","null","","","","","","","","","","","",""
"","html-keyboard-response","162","195078","0.0-8.0-1.0-1.3-1.3","x1y","[""red""]","null","[""<svg viewBox=\""0 0 100 100\"" >"",""<path d=\""M 50 52 L 50 48\"" stroke=\""black\"" stroke-width=\"".5\""/>"",""<path d=\""M 52 50 L 48 50\"" stroke=\""black\"" stroke-width=\"".5\""/>"",""<text dominant-baseline=\""middle\"" text-anchor= \""middle\"" x=\""50\"" y=\""50\"" fill=\""black\"" transform=\""translate(0 30)\"">X</text><text dominant-baseline=\""middle\"" text-anchor= \""middle\"" x=\""50\"" y=\""50\"" fill=\""black\"" transform=\""translate(5 30)\"">X</text><text dominant-baseline=\""middle\"" text-anchor= \""middle\"" x=\""50\"" y=\""50\"" fill=\""black\"" transform=\""translate(-5 30)\"">X</text>"",""<text dominant-baseline=\""middle\"" text-anchor= \""middle\"" x=\""50\"" y=\""50\"" fill=\""black\"" transform=\""translate(-26 -15)\"">X</text><text dominant-baseline=\""middle\"" text-anchor= \""middle\"" x=\""50\"" y=\""50\"" fill=\""black\"" transform=\""translate(-21 -15)\"">X</text><text dominant-baseline=\""middle\"" text-anchor= \""middle\"" x=\""50\"" y=\""50\"" fill=\""black\"" transform=\""translate(-31 -15)\"">X</text>"",""<text dominant-baseline=\""middle\"" text-anchor= \""middle\"" x=\""50\"" y=\""50\"" fill=\""black\"" transform=\""translate(26 -15)\"">X</text><text dominant-baseline=\""middle\"" text-anchor= \""middle\"" x=\""50\"" y=\""50\"" fill=\""black\"" transform=\""translate(31 -15)\"">X</text><text dominant-baseline=\""middle\"" text-anchor= \""middle\"" x=\""50\"" y=\""50\"" fill=\""black\"" transform=\""translate(21 -15)\"">X</text>"",""</svg>""]","null","","","","","","","","","","","",""
"","html-keyboard-response","163","196080","0.0-8.0-1.0-1.3-2.3","x1y","[""red""]","null","<svg viewBox=""0 0 100 100"" > <path d=""M 50 52 L 50 48"" stroke=""black"" stroke-width="".5""/> <path d=""M 52 50 L 48 50"" stroke=""black"" stroke-width="".5""/>","null","","","","","","","","","","","",""
"","html-keyboard-response","164","196948","0.0-8.0-1.0-1.3-3.3","x1y","[""red""]","864.8999999761581","<svg viewBox=""0 0 100 100""><text dominant-baseline=""middle"" x=""50"" y=""50"" class=""bacs1"">Q</text></svg>","z","","","","RSVPtest","","","","true","","","","1st"
"","html-keyboard-response","165","199451","0.0-8.0-1.0-2.3","x1y","[""red""]","null","<p style=""font-size:300%;"">Correct!</p>","null","","","","","","","","","","","",""
"","html-keyboard-response","166","201555","0.0-8.0-1.0-4.3-0.3","x1y","[""red""]","1101","<p>You have finished block 2 of 4.<p>You responded correctly on 100% of the trials.<p>On the next screen, you will be given a 30 second break. Press the <b>g</b> key to start your break.","g","","","","","","","","","","","",""
"","html-keyboard-response","167","202539","0.0-8.0-1.0-4.3-1.3-0.3","x1y","[""red""]","982.3999999761581","<p>The experiment will resume in 30 seconds. (press g to skip - Demo only)<p> Remember, press <b>z</b> if the symbol is old or <b>m</b> if the symbol is new.","g","","","","","","","","","","","",""
"","html-keyboard-response","168","202859","0.0-8.0-1.0-4.3-2.3-0.3","x1y","[""red""]","318.69999998807907","<p>Place your fingers on the <b>z</b> and <b>m</b> keys.The experiment will begin shortly.</p> <p></p>","z","","","","","","","","","","","",""
"","html-keyboard-response","169","203090","0.0-8.0-1.0-4.3-2.3-1.3","x1y","[""red""]","229.80000001192093","<p>Place your fingers on the <b>z</b> and <b>m</b> keys.</b> keys. The experiment will begin shortly.</p><p>5</p>","z","","","","","","","","","","","",""
"","html-keyboard-response","170","203291","0.0-8.0-1.0-4.3-2.3-2.3","x1y","[""red""]","199.80000001192093","<p>Place your fingers on the <b>z</b> and <b>m</b> keys.</b> keys. The experiment will begin shortly.</p><p>4</p>","z","","","","","","","","","","","",""
"","html-keyboard-response","171","203483","0.0-8.0-1.0-4.3-2.3-3.3","x1y","[""red""]","190.5","<p>Place your fingers on the <b>z</b> and <b>m</b> keys.</b> keys. The experiment will begin shortly.</p><p>3</p>","z","","","","","","","","","","","",""
"","html-keyboard-response","172","203667","0.0-8.0-1.0-4.3-2.3-4.3","x1y","[""red""]","182.89999997615814","<p>Place your fingers on the <b>z</b> and <b>m</b> keys.</b> keys. The experiment will begin shortly.</p><p>2</p>","z","","","","","","","","","","","",""
"","html-keyboard-response","173","203851","0.0-8.0-1.0-4.3-2.3-5.3","x1y","[""red""]","182.69999998807907","<p>Place your fingers on the <b>z</b> and <b>m</b> keys.</b> keys. The experiment will begin shortly.</p><p>1</p>","z","","","","","","","","","","","",""
"","html-keyboard-response","174","204413","0.0-8.0-1.0-0.4","x1y","[""red""]","null","<svg viewBox=""0 0 100 100"" > <path d=""M 50 52 L 50 48"" stroke=""black"" stroke-width="".5""/> <path d=""M 52 50 L 48 50"" stroke=""black"" stroke-width="".5""/>","null","","","","","","","","","","","",""
"","html-keyboard-response","175","205416","0.0-8.0-1.0-1.4-0.4","x1y","[""red""]","null","[""<svg viewBox=\""0 0 100 100\"" >"",""<path d=\""M 50 52 L 50 48\"" stroke=\""black\"" stroke-width=\"".5\""/>"",""<path d=\""M 52 50 L 48 50\"" stroke=\""black\"" stroke-width=\"".5\""/>"",""<text dominant-baseline=\""middle\"" x=\""50\"" y=\""50\"" fill=black transform=\""translate(26 15)\"" class=\""bacs2\"">P</text>"",""<text dominant-baseline=\""middle\"" x=\""50\"" y=\""50\"" fill=black transform=\""translate(-26 15)\"" class=\""bacs1\"">I</text>"",""<text dominant-baseline=\""middle\"" x=\""50\"" y=\""50\"" fill=green transform=\""translate(0 -30)\"" class=\""bacs1\"">s</text>"",""</svg>""]","null","","","","","","","","","","","",""
"","html-keyboard-response","176","205919","0.0-8.0-1.0-1.4-1.4","x1y","[""red""]","null","[""<svg viewBox=\""0 0 100 100\"" >"",""<path d=\""M 50 52 L 50 48\"" stroke=\""black\"" stroke-width=\"".5\""/>"",""<path d=\""M 52 50 L 48 50\"" stroke=\""black\"" stroke-width=\"".5\""/>"",""<text dominant-baseline=\""middle\"" text-anchor= \""middle\"" x=\""50\"" y=\""50\"" fill=\""black\"" transform=\""translate(26 15)\"">X</text><text dominant-baseline=\""middle\"" text-anchor= \""middle\"" x=\""50\"" y=\""50\"" fill=\""black\"" transform=\""translate(31 15)\"">X</text><text dominant-baseline=\""middle\"" text-anchor= \""middle\"" x=\""50\"" y=\""50\"" fill=\""black\"" transform=\""translate(21 15)\"">X</text>"",""<text dominant-baseline=\""middle\"" text-anchor= \""middle\"" x=\""50\"" y=\""50\"" fill=\""black\"" transform=\""translate(-26 15)\"">X</text><text dominant-baseline=\""middle\"" text-anchor= \""middle\"" x=\""50\"" y=\""50\"" fill=\""black\"" transform=\""translate(-21 15)\"">X</text><text dominant-baseline=\""middle\"" text-anchor= \""middle\"" x=\""50\"" y=\""50\"" fill=\""black\"" transform=\""translate(-31 15)\"">X</text>"",""<text dominant-baseline=\""middle\"" text-anchor= \""middle\"" x=\""50\"" y=\""50\"" fill=\""black\"" transform=\""translate(0 -30)\"">X</text><text dominant-baseline=\""middle\"" text-anchor= \""middle\"" x=\""50\"" y=\""50\"" fill=\""black\"" transform=\""translate(5 -30)\"">X</text><text dominant-baseline=\""middle\"" text-anchor= \""middle\"" x=\""50\"" y=\""50\"" fill=\""black\"" transform=\""translate(-5 -30)\"">X</text>"",""</svg>""]","null","","","","","","","","","","","",""
"","html-keyboard-response","177","206921","0.0-8.0-1.0-1.4-2.4","x1y","[""red""]","null","<svg viewBox=""0 0 100 100"" > <path d=""M 50 52 L 50 48"" stroke=""black"" stroke-width="".5""/> <path d=""M 52 50 L 48 50"" stroke=""black"" stroke-width="".5""/>","null","","","","","","","","","","","",""
"","html-keyboard-response","178","207916","0.0-8.0-1.0-1.4-3.4","x1y","[""red""]","991.8999999761581","<svg viewBox=""0 0 100 100""><text dominant-baseline=""middle"" x=""50"" y=""50"" class=""bacs1"">V</text></svg>","z","","","","RSVPtest","","","","false","","","","new"
"","html-keyboard-response","179","210418","0.0-8.0-1.0-2.4","x1y","[""red""]","null","<p style=""font-size:300%;"">Miss.</p>","null","","","","","","","","","","","",""
"","html-keyboard-response","180","211980","0.0-8.0-1.0-0.5","x1y","[""red""]","null","<svg viewBox=""0 0 100 100"" > <path d=""M 50 52 L 50 48"" stroke=""black"" stroke-width="".5""/> <path d=""M 52 50 L 48 50"" stroke=""black"" stroke-width="".5""/>","null","","","","","","","","","","","",""
"","html-keyboard-response","181","212983","0.0-8.0-1.0-1.5-0.5","x1y","[""red""]","null","[""<svg viewBox=\""0 0 100 100\"" >"",""<path d=\""M 50 52 L 50 48\"" stroke=\""black\"" stroke-width=\"".5\""/>"",""<path d=\""M 52 50 L 48 50\"" stroke=\""black\"" stroke-width=\"".5\""/>"",""<text dominant-baseline=\""middle\"" x=\""50\"" y=\""50\"" fill=red transform=\""translate(0 30)\"" class=\""bacs2\"">Y</text>"",""<text dominant-baseline=\""middle\"" x=\""50\"" y=\""50\"" fill=black transform=\""translate(-26 -15)\"" class=\""bacs1\"">t</text>"",""<text dominant-baseline=\""middle\"" x=\""50\"" y=\""50\"" fill=black transform=\""translate(26 -15)\"" class=\""bacs1\"">Y</text>"",""</svg>""]","null","","","","","","","","","","","",""
"","html-keyboard-response","182","213486","0.0-8.0-1.0-1.5-1.5","x1y","[""red""]","null","[""<svg viewBox=\""0 0 100 100\"" >"",""<path d=\""M 50 52 L 50 48\"" stroke=\""black\"" stroke-width=\"".5\""/>"",""<path d=\""M 52 50 L 48 50\"" stroke=\""black\"" stroke-width=\"".5\""/>"",""<text dominant-baseline=\""middle\"" text-anchor= \""middle\"" x=\""50\"" y=\""50\"" fill=\""black\"" transform=\""translate(0 30)\"">X</text><text dominant-baseline=\""middle\"" text-anchor= \""middle\"" x=\""50\"" y=\""50\"" fill=\""black\"" transform=\""translate(5 30)\"">X</text><text dominant-baseline=\""middle\"" text-anchor= \""middle\"" x=\""50\"" y=\""50\"" fill=\""black\"" transform=\""translate(-5 30)\"">X</text>"",""<text dominant-baseline=\""middle\"" text-anchor= \""middle\"" x=\""50\"" y=\""50\"" fill=\""black\"" transform=\""translate(-26 -15)\"">X</text><text dominant-baseline=\""middle\"" text-anchor= \""middle\"" x=\""50\"" y=\""50\"" fill=\""black\"" transform=\""translate(-21 -15)\"">X</text><text dominant-baseline=\""middle\"" text-anchor= \""middle\"" x=\""50\"" y=\""50\"" fill=\""black\"" transform=\""translate(-31 -15)\"">X</text>"",""<text dominant-baseline=\""middle\"" text-anchor= \""middle\"" x=\""50\"" y=\""50\"" fill=\""black\"" transform=\""translate(26 -15)\"">X</text><text dominant-baseline=\""middle\"" text-anchor= \""middle\"" x=\""50\"" y=\""50\"" fill=\""black\"" transform=\""translate(31 -15)\"">X</text><text dominant-baseline=\""middle\"" text-anchor= \""middle\"" x=\""50\"" y=\""50\"" fill=\""black\"" transform=\""translate(21 -15)\"">X</text>"",""</svg>""]","null","","","","","","","","","","","",""
"","html-keyboard-response","183","214488","0.0-8.0-1.0-1.5-2.5","x1y","[""red""]","null","<svg viewBox=""0 0 100 100"" > <path d=""M 50 52 L 50 48"" stroke=""black"" stroke-width="".5""/> <path d=""M 52 50 L 48 50"" stroke=""black"" stroke-width="".5""/>","null","","","","","","","","","","","",""
"","html-keyboard-response","184","215043","0.0-8.0-1.0-1.5-3.5","x1y","[""red""]","553.1000000238419","<svg viewBox=""0 0 100 100""><text dominant-baseline=""middle"" x=""50"" y=""50"" class=""bacs1"">b</text></svg>","z","","","","RSVPtest","","","","false","","","","new"
"","html-keyboard-response","185","217547","0.0-8.0-1.0-2.5","x1y","[""red""]","null","<p style=""font-size:300%;"">Miss.</p>","null","","","","","","","","","","","",""
"","html-keyboard-response","186","219332","0.0-8.0-1.0-4.5-0.5","x1y","[""red""]","782.9000000357628","<p>You have finished block 3 of 4.<p>You responded correctly on 67% of the trials.<p>On the next screen, you will be given a 30 second break. Press the <b>g</b> key to start your break.","g","","","","","","","","","","","",""
"","html-keyboard-response","187","220075","0.0-8.0-1.0-4.5-1.5-0.5","x1y","[""red""]","742.0999999642372","<p>The experiment will resume in 30 seconds. (press g to skip - Demo only)<p> Remember, press <b>z</b> if the symbol is old or <b>m</b> if the symbol is new.","g","","","","","","","","","","","",""
"","html-keyboard-response","188","220315","0.0-8.0-1.0-4.5-2.5-0.5","x1y","[""red""]","238.5999999642372","<p>Place your fingers on the <b>z</b> and <b>m</b> keys.The experiment will begin shortly.</p> <p></p>","z","","","","","","","","","","","",""
"","html-keyboard-response","189","220474","0.0-8.0-1.0-4.5-2.5-1.5","x1y","[""red""]","157.89999997615814","<p>Place your fingers on the <b>z</b> and <b>m</b> keys.</b> keys. The experiment will begin shortly.</p><p>5</p>","g","","","","","","","","","","","",""
"","html-keyboard-response","190","220652","0.0-8.0-1.0-4.5-2.5-2.5","x1y","[""red""]","176.5","<p>Place your fingers on the <b>z</b> and <b>m</b> keys.</b> keys. The experiment will begin shortly.</p><p>4</p>","z","","","","","","","","","","","",""
"","html-keyboard-response","191","220787","0.0-8.0-1.0-4.5-2.5-3.5","x1y","[""red""]","134.30000001192093","<p>Place your fingers on the <b>z</b> and <b>m</b> keys.</b> keys. The experiment will begin shortly.</p><p>3</p>","g","","","","","","","","","","","",""
"","html-keyboard-response","192","220955","0.0-8.0-1.0-4.5-2.5-4.5","x1y","[""red""]","166.69999998807907","<p>Place your fingers on the <b>z</b> and <b>m</b> keys.</b> keys. The experiment will begin shortly.</p><p>2</p>","z","","","","","","","","","","","",""
"","html-keyboard-response","193","221099","0.0-8.0-1.0-4.5-2.5-5.5","x1y","[""red""]","142.69999998807907","<p>Place your fingers on the <b>z</b> and <b>m</b> keys.</b> keys. The experiment will begin shortly.</p><p>1</p>","g","","","","","","","","","","","",""
"","html-keyboard-response","194","221660","0.0-8.0-1.0-0.6","x1y","[""red""]","null","<svg viewBox=""0 0 100 100"" > <path d=""M 50 52 L 50 48"" stroke=""black"" stroke-width="".5""/> <path d=""M 52 50 L 48 50"" stroke=""black"" stroke-width="".5""/>","null","","","","","","","","","","","",""
"","html-keyboard-response","195","222664","0.0-8.0-1.0-1.6-0.6","x1y","[""red""]","null","[""<svg viewBox=\""0 0 100 100\"" >"",""<path d=\""M 50 52 L 50 48\"" stroke=\""black\"" stroke-width=\"".5\""/>"",""<path d=\""M 52 50 L 48 50\"" stroke=\""black\"" stroke-width=\"".5\""/>"",""<text dominant-baseline=\""middle\"" x=\""50\"" y=\""50\"" fill=black transform=\""translate(26 15)\"" class=\""bacs1\"">m</text>"",""<text dominant-baseline=\""middle\"" x=\""50\"" y=\""50\"" fill=black transform=\""translate(-26 15)\"" class=\""bacs2\"">Q</text>"",""<text dominant-baseline=\""middle\"" x=\""50\"" y=\""50\"" fill=black transform=\""translate(0 -30)\"" class=\""bacs2\"">p</text>"",""</svg>""]","null","","","","","","","","","","","",""
"","html-keyboard-response","196","223167","0.0-8.0-1.0-1.6-1.6","x1y","[""red""]","null","[""<svg viewBox=\""0 0 100 100\"" >"",""<path d=\""M 50 52 L 50 48\"" stroke=\""black\"" stroke-width=\"".5\""/>"",""<path d=\""M 52 50 L 48 50\"" stroke=\""black\"" stroke-width=\"".5\""/>"",""<text dominant-baseline=\""middle\"" text-anchor= \""middle\"" x=\""50\"" y=\""50\"" fill=\""black\"" transform=\""translate(26 15)\"">X</text><text dominant-baseline=\""middle\"" text-anchor= \""middle\"" x=\""50\"" y=\""50\"" fill=\""black\"" transform=\""translate(31 15)\"">X</text><text dominant-baseline=\""middle\"" text-anchor= \""middle\"" x=\""50\"" y=\""50\"" fill=\""black\"" transform=\""translate(21 15)\"">X</text>"",""<text dominant-baseline=\""middle\"" text-anchor= \""middle\"" x=\""50\"" y=\""50\"" fill=\""black\"" transform=\""translate(-26 15)\"">X</text><text dominant-baseline=\""middle\"" text-anchor= \""middle\"" x=\""50\"" y=\""50\"" fill=\""black\"" transform=\""translate(-21 15)\"">X</text><text dominant-baseline=\""middle\"" text-anchor= \""middle\"" x=\""50\"" y=\""50\"" fill=\""black\"" transform=\""translate(-31 15)\"">X</text>"",""<text dominant-baseline=\""middle\"" text-anchor= \""middle\"" x=\""50\"" y=\""50\"" fill=\""black\"" transform=\""translate(0 -30)\"">X</text><text dominant-baseline=\""middle\"" text-anchor= \""middle\"" x=\""50\"" y=\""50\"" fill=\""black\"" transform=\""translate(5 -30)\"">X</text><text dominant-baseline=\""middle\"" text-anchor= \""middle\"" x=\""50\"" y=\""50\"" fill=\""black\"" transform=\""translate(-5 -30)\"">X</text>"",""</svg>""]","null","","","","","","","","","","","",""
"","html-keyboard-response","197","224169","0.0-8.0-1.0-1.6-2.6","x1y","[""red""]","null","<svg viewBox=""0 0 100 100"" > <path d=""M 50 52 L 50 48"" stroke=""black"" stroke-width="".5""/> <path d=""M 52 50 L 48 50"" stroke=""black"" stroke-width="".5""/>","null","","","","","","","","","","","",""
"","html-keyboard-response","198","224987","0.0-8.0-1.0-1.6-3.6","x1y","[""red""]","816","<svg viewBox=""0 0 100 100""><text dominant-baseline=""middle"" x=""50"" y=""50"" class=""bacs2"">X</text></svg>","z","","","","RSVPtest","","","","false","","","","new"
"","html-keyboard-response","199","227491","0.0-8.0-1.0-2.6","x1y","[""red""]","null","<p style=""font-size:300%;"">Miss.</p>","null","","","","","","","","","","","",""
"","html-keyboard-response","200","229053","0.0-8.0-1.0-0.7","x1y","[""red""]","null","<svg viewBox=""0 0 100 100"" > <path d=""M 50 52 L 50 48"" stroke=""black"" stroke-width="".5""/> <path d=""M 52 50 L 48 50"" stroke=""black"" stroke-width="".5""/>","null","","","","","","","","","","","",""
"","html-keyboard-response","201","230056","0.0-8.0-1.0-1.7-0.7","x1y","[""red""]","null","[""<svg viewBox=\""0 0 100 100\"" >"",""<path d=\""M 50 52 L 50 48\"" stroke=\""black\"" stroke-width=\"".5\""/>"",""<path d=\""M 52 50 L 48 50\"" stroke=\""black\"" stroke-width=\"".5\""/>"",""<text dominant-baseline=\""middle\"" x=\""50\"" y=\""50\"" fill=black transform=\""translate(0 30)\"" class=\""bacs1\"">u</text>"",""<text dominant-baseline=\""middle\"" x=\""50\"" y=\""50\"" fill=black transform=\""translate(-26 -15)\"" class=\""bacs2\"">F</text>"",""<text dominant-baseline=\""middle\"" x=\""50\"" y=\""50\"" fill=black transform=\""translate(26 -15)\"" class=\""bacs1\"">B</text>"",""</svg>""]","null","","","","","","","","","","","",""
