"success","trial_type","trial_index","time_elapsed","internal_node_id","subject","condition","rt","url","responses","question_order","value","view_history","stimulus","key_press","trialType","color","tgtPosition","orientation","correct","rewardType","reward","colorPosition"
"true","fullscreen","0","3517","0.0-0.0-0.0","tt73e0bxfc","red","","","","","","","","","","","","","","","",""
"","external-html","1","7498","0.0-0.0-1.0","tt73e0bxfc","red","3854.414999950677","http://labs.psychology.illinois.edu/~jy57/memory_capture/supportFiles/Consent.html","","","","","","","","","","","","","",""
"","survey-text","2","21296","0.0-1.0-0.0","tt73e0bxfc","red","13774.745000060648","","{""Q0"":""22"",""Q1"":""3.5""}","","","","","","","","","","","","",""
"","survey-multi-select","3","27179","0.0-1.0-1.0","tt73e0bxfc","red","5878.435000078753","","{""Q0"":[""Asian"",""White""]}","[0]","","","","","","","","","","","",""
"","survey-multi-choice","4","33108","0.0-1.0-2.0","tt73e0bxfc","red","5919.735000003129","","{""Q0"":""Female"",""Q1"":""No"",""Q2"":""Much better than average""}","[0,1,2]","","","","","","","","","","","",""
"","call-function","5","33113","0.0-1.0-3.0","tt73e0bxfc","red","","","","","","","","","","","","","","","",""
"","instructions","6","54535","0.0-2.0-0.0","tt73e0bxfc","red","21420.54499988444","","","","","[{""page_index"":0,""viewing_time"":15192.034999839962},{""page_index"":1,""viewing_time"":3610.6400000862777},{""page_index"":2,""viewing_time"":890.3500000014901},{""page_index"":3,""viewing_time"":1726.204999955371}]","","","","","","","","","",""
"","html-keyboard-response","7","56541","0.0-2.0-1.0-0.0","tt73e0bxfc","red","null","","","","","","<p>Place your fingers on the z and m keys. The experiment will continue shortly.</p><p>&nbsp</p>","null","","","","","","","",""
"","html-keyboard-response","8","57547","0.0-2.0-1.0-1.0","tt73e0bxfc","red","null","","","","","","<p>Place your fingers on the z and m keys. The experiment will continue shortly.</p><p>3</p>","null","","","","","","","",""
"","html-keyboard-response","9","58548","0.0-2.0-1.0-2.0","tt73e0bxfc","red","null","","","","","","<p>Place your fingers on the z and m keys. The experiment will continue shortly.</p><p>2</p>","null","","","","","","","",""
"","html-keyboard-response","10","59550","0.0-2.0-1.0-3.0","tt73e0bxfc","red","null","","","","","","<p>Place your fingers on the z and m keys. The experiment will continue shortly.</p><p>1</p>","null","","","","","","","",""
"","html-keyboard-response","11","60049","0.0-2.0-2.0-0.0","tt73e0bxfc","red","null","","","","","","<svg viewBox=""0 0 100 100"" > <path d=""M 50 52 L 50 48"" stroke=""black"" stroke-width="".5""/> <path d=""M 52 50 L 48 50"" stroke=""black"" stroke-width="".5""/>","null","","","","","","","",""
"","html-keyboard-response","12","61057","0.0-2.0-2.0-1.0","tt73e0bxfc","red","null","","","","","","<svg viewBox=""0 0 100 100"" ><text font-size=""10%"" text-anchor=""middle""  x=""50"" y=""98"">Press z for horizontal or m for vertical</text><circle cx=""50"" cy=""50"" r=""10"" fill=""none"" transform=""translate( 26  15)"" stroke=""magenta"" /><circle cx=""50"" cy=""50"" r=""10"" fill=""none"" transform=""translate(  0  30)"" stroke=""black"" /><circle cx=""50"" cy=""50"" r=""10"" fill=""none"" transform=""translate(-26  15)"" stroke=""gold"" /><circle cx=""50"" cy=""50"" r=""10"" fill=""none"" transform=""translate(-26 -15)"" stroke=""cyan"" /><circle cx=""50"" cy=""50"" r=""10"" fill=""none"" transform=""translate(  0 -30)"" stroke=""red"" /><circle cx=""50"" cy=""50"" r=""10"" fill=""none"" transform=""translate( 26 -15)"" stroke=""blueviolet"" /><path d=""M 50 57 L 50 43"" stroke=""black"" transform=""translate( 26  15) rotate(-45 50 50)""/><path d=""M 50 57 L 50 43"" stroke=""black"" transform=""translate(  0  30) rotate(45 50 50)""/><path d=""M 50 57 L 50 43"" stroke=""black"" transform=""translate(-26  15) rotate(45 50 50)""/><path d=""M 50 57 L 50 43"" stroke=""black"" transform=""translate(-26 -15) rotate(45 50 50)""/><path d=""M 50 57 L 50 43"" stroke=""black"" transform=""translate(  0 -30) rotate(90 50 50)""/><path d=""M 50 57 L 50 43"" stroke=""black"" transform=""translate( 26 -15) rotate(-45 50 50)""/><path d=""M 50 52 L 50 48"" stroke=""black"" stroke-width="".5""/> <path d=""M 52 50 L 48 50"" stroke=""black"" stroke-width="".5""/></svg>","null","VDACtraining","red","4","horizontal","null","","",""
"","html-keyboard-response","13","63563","0.0-2.0-2.0-2.0","tt73e0bxfc","red","null","","","","","","<p style=""font-size:300%;"">Miss.</p> <p style=""font-size:300%;"">Too slow.</p>","null","","","","","","","",""
"","html-keyboard-response","14","65064","0.0-2.0-2.0-0.1","tt73e0bxfc","red","null","","","","","","<svg viewBox=""0 0 100 100"" > <path d=""M 50 52 L 50 48"" stroke=""black"" stroke-width="".5""/> <path d=""M 52 50 L 48 50"" stroke=""black"" stroke-width="".5""/>","null","","","","","","","",""
"","html-keyboard-response","15","65729","0.0-2.0-2.0-1.1","tt73e0bxfc","red","663.9749999158084","","","","","","<svg viewBox=""0 0 100 100"" ><text font-size=""10%"" text-anchor=""middle""  x=""50"" y=""98"">Press z for horizontal or m for vertical</text><circle cx=""50"" cy=""50"" r=""10"" fill=""none"" transform=""translate( 26  15)"" stroke=""blueviolet"" /><circle cx=""50"" cy=""50"" r=""10"" fill=""none"" transform=""translate(  0  30)"" stroke=""magenta"" /><circle cx=""50"" cy=""50"" r=""10"" fill=""none"" transform=""translate(-26  15)"" stroke=""black"" /><circle cx=""50"" cy=""50"" r=""10"" fill=""none"" transform=""translate(-26 -15)"" stroke=""green"" /><circle cx=""50"" cy=""50"" r=""10"" fill=""none"" transform=""translate(  0 -30)"" stroke=""gold"" /><circle cx=""50"" cy=""50"" r=""10"" fill=""none"" transform=""translate( 26 -15)"" stroke=""cyan"" /><path d=""M 50 57 L 50 43"" stroke=""black"" transform=""translate( 26  15) rotate(-45 50 50)""/><path d=""M 50 57 L 50 43"" stroke=""black"" transform=""translate(  0  30) rotate(-45 50 50)""/><path d=""M 50 57 L 50 43"" stroke=""black"" transform=""translate(-26  15) rotate(-45 50 50)""/><path d=""M 50 57 L 50 43"" stroke=""black"" transform=""translate(-26 -15) rotate(90 50 50)""/><path d=""M 50 57 L 50 43"" stroke=""black"" transform=""translate(  0 -30) rotate(-45 50 50)""/><path d=""M 50 57 L 50 43"" stroke=""black"" transform=""translate( 26 -15) rotate(-45 50 50)""/><path d=""M 50 52 L 50 48"" stroke=""black"" stroke-width="".5""/> <path d=""M 52 50 L 48 50"" stroke=""black"" stroke-width="".5""/></svg>","90","VDACtraining","green","3","horizontal","true","","",""
"","html-keyboard-response","16","68236","0.0-2.0-2.0-2.1","tt73e0bxfc","red","null","","","","","","<p style=""font-size:300%;"">Correct!</p>","null","","","","","","","",""
"","html-keyboard-response","17","69742","0.0-2.0-2.0-0.2","tt73e0bxfc","red","null","","","","","","<svg viewBox=""0 0 100 100"" > <path d=""M 50 52 L 50 48"" stroke=""black"" stroke-width="".5""/> <path d=""M 52 50 L 48 50"" stroke=""black"" stroke-width="".5""/>","null","","","","","","","",""
"","html-keyboard-response","18","70319","0.0-2.0-2.0-1.2","tt73e0bxfc","red","575.3800000529736","","","","","","<svg viewBox=""0 0 100 100"" ><text font-size=""10%"" text-anchor=""middle""  x=""50"" y=""98"">Press z for horizontal or m for vertical</text><circle cx=""50"" cy=""50"" r=""10"" fill=""none"" transform=""translate( 26  15)"" stroke=""blueviolet"" /><circle cx=""50"" cy=""50"" r=""10"" fill=""none"" transform=""translate(  0  30)"" stroke=""black"" /><circle cx=""50"" cy=""50"" r=""10"" fill=""none"" transform=""translate(-26  15)"" stroke=""cyan"" /><circle cx=""50"" cy=""50"" r=""10"" fill=""none"" transform=""translate(-26 -15)"" stroke=""red"" /><circle cx=""50"" cy=""50"" r=""10"" fill=""none"" transform=""translate(  0 -30)"" stroke=""gold"" /><circle cx=""50"" cy=""50"" r=""10"" fill=""none"" transform=""translate( 26 -15)"" stroke=""magenta"" /><path d=""M 50 57 L 50 43"" stroke=""black"" transform=""translate( 26  15) rotate(45 50 50)""/><path d=""M 50 57 L 50 43"" stroke=""black"" transform=""translate(  0  30) rotate(-45 50 50)""/><path d=""M 50 57 L 50 43"" stroke=""black"" transform=""translate(-26  15) rotate(45 50 50)""/><path d=""M 50 57 L 50 43"" stroke=""black"" transform=""translate(-26 -15) rotate(0 50 50)""/><path d=""M 50 57 L 50 43"" stroke=""black"" transform=""translate(  0 -30) rotate(-45 50 50)""/><path d=""M 50 57 L 50 43"" stroke=""black"" transform=""translate( 26 -15) rotate(-45 50 50)""/><path d=""M 50 52 L 50 48"" stroke=""black"" stroke-width="".5""/> <path d=""M 52 50 L 48 50"" stroke=""black"" stroke-width="".5""/></svg>","90","VDACtraining","red","3","vertical","false","","",""
"","html-keyboard-response","19","72830","0.0-2.0-2.0-2.2","tt73e0bxfc","red","null","","","","","","<p style=""font-size:300%;"">Miss.</p> <p style=""font-size:300%;"">Wrong response.</p>","null","","","","","","","",""
"","html-keyboard-response","20","74334","0.0-2.0-2.0-0.3","tt73e0bxfc","red","null","","","","","","<svg viewBox=""0 0 100 100"" > <path d=""M 50 52 L 50 48"" stroke=""black"" stroke-width="".5""/> <path d=""M 52 50 L 48 50"" stroke=""black"" stroke-width="".5""/>","null","","","","","","","",""
"","html-keyboard-response","21","74860","0.0-2.0-2.0-1.3","tt73e0bxfc","red","523.930000141263","","","","","","<svg viewBox=""0 0 100 100"" ><text font-size=""10%"" text-anchor=""middle""  x=""50"" y=""98"">Press z for horizontal or m for vertical</text><circle cx=""50"" cy=""50"" r=""10"" fill=""none"" transform=""translate( 26  15)"" stroke=""blueviolet"" /><circle cx=""50"" cy=""50"" r=""10"" fill=""none"" transform=""translate(  0  30)"" stroke=""magenta"" /><circle cx=""50"" cy=""50"" r=""10"" fill=""none"" transform=""translate(-26  15)"" stroke=""green"" /><circle cx=""50"" cy=""50"" r=""10"" fill=""none"" transform=""translate(-26 -15)"" stroke=""cyan"" /><circle cx=""50"" cy=""50"" r=""10"" fill=""none"" transform=""translate(  0 -30)"" stroke=""gold"" /><circle cx=""50"" cy=""50"" r=""10"" fill=""none"" transform=""translate( 26 -15)"" stroke=""black"" /><path d=""M 50 57 L 50 43"" stroke=""black"" transform=""translate( 26  15) rotate(45 50 50)""/><path d=""M 50 57 L 50 43"" stroke=""black"" transform=""translate(  0  30) rotate(45 50 50)""/><path d=""M 50 57 L 50 43"" stroke=""black"" transform=""translate(-26  15) rotate(0 50 50)""/><path d=""M 50 57 L 50 43"" stroke=""black"" transform=""translate(-26 -15) rotate(45 50 50)""/><path d=""M 50 57 L 50 43"" stroke=""black"" transform=""translate(  0 -30) rotate(-45 50 50)""/><path d=""M 50 57 L 50 43"" stroke=""black"" transform=""translate( 26 -15) rotate(45 50 50)""/><path d=""M 50 52 L 50 48"" stroke=""black"" stroke-width="".5""/> <path d=""M 52 50 L 48 50"" stroke=""black"" stroke-width="".5""/></svg>","77","VDACtraining","green","2","vertical","true","","",""
"","html-keyboard-response","22","77366","0.0-2.0-2.0-2.3","tt73e0bxfc","red","null","","","","","","<p style=""font-size:300%;"">Correct!</p>","null","","","","","","","",""
"","html-keyboard-response","23","78867","0.0-2.0-2.0-0.4","tt73e0bxfc","red","null","","","","","","<svg viewBox=""0 0 100 100"" > <path d=""M 50 52 L 50 48"" stroke=""black"" stroke-width="".5""/> <path d=""M 52 50 L 48 50"" stroke=""black"" stroke-width="".5""/>","null","","","","","","","",""
"","html-keyboard-response","24","79598","0.0-2.0-2.0-1.4","tt73e0bxfc","red","728.4399999771267","","","","","","<svg viewBox=""0 0 100 100"" ><text font-size=""10%"" text-anchor=""middle""  x=""50"" y=""98"">Press z for horizontal or m for vertical</text><circle cx=""50"" cy=""50"" r=""10"" fill=""none"" transform=""translate( 26  15)"" stroke=""green"" /><circle cx=""50"" cy=""50"" r=""10"" fill=""none"" transform=""translate(  0  30)"" stroke=""black"" /><circle cx=""50"" cy=""50"" r=""10"" fill=""none"" transform=""translate(-26  15)"" stroke=""gold"" /><circle cx=""50"" cy=""50"" r=""10"" fill=""none"" transform=""translate(-26 -15)"" stroke=""cyan"" /><circle cx=""50"" cy=""50"" r=""10"" fill=""none"" transform=""translate(  0 -30)"" stroke=""magenta"" /><circle cx=""50"" cy=""50"" r=""10"" fill=""none"" transform=""translate( 26 -15)"" stroke=""blueviolet"" /><path d=""M 50 57 L 50 43"" stroke=""black"" transform=""translate( 26  15) rotate(0 50 50)""/><path d=""M 50 57 L 50 43"" stroke=""black"" transform=""translate(  0  30) rotate(-45 50 50)""/><path d=""M 50 57 L 50 43"" stroke=""black"" transform=""translate(-26  15) rotate(-45 50 50)""/><path d=""M 50 57 L 50 43"" stroke=""black"" transform=""translate(-26 -15) rotate(-45 50 50)""/><path d=""M 50 57 L 50 43"" stroke=""black"" transform=""translate(  0 -30) rotate(45 50 50)""/><path d=""M 50 57 L 50 43"" stroke=""black"" transform=""translate( 26 -15) rotate(-45 50 50)""/><path d=""M 50 52 L 50 48"" stroke=""black"" stroke-width="".5""/> <path d=""M 52 50 L 48 50"" stroke=""black"" stroke-width="".5""/></svg>","77","VDACtraining","green","0","vertical","true","","",""
"","html-keyboard-response","25","82105","0.0-2.0-2.0-2.4","tt73e0bxfc","red","null","","","","","","<p style=""font-size:300%;"">Correct!</p>","null","","","","","","","",""
"","html-keyboard-response","26","83609","0.0-2.0-2.0-0.5","tt73e0bxfc","red","null","","","","","","<svg viewBox=""0 0 100 100"" > <path d=""M 50 52 L 50 48"" stroke=""black"" stroke-width="".5""/> <path d=""M 52 50 L 48 50"" stroke=""black"" stroke-width="".5""/>","null","","","","","","","",""
"","html-keyboard-response","27","84444","0.0-2.0-2.0-1.5","tt73e0bxfc","red","832.7550000976771","","","","","","<svg viewBox=""0 0 100 100"" ><text font-size=""10%"" text-anchor=""middle""  x=""50"" y=""98"">Press z for horizontal or m for vertical</text><circle cx=""50"" cy=""50"" r=""10"" fill=""none"" transform=""translate( 26  15)"" stroke=""blueviolet"" /><circle cx=""50"" cy=""50"" r=""10"" fill=""none"" transform=""translate(  0  30)"" stroke=""gold"" /><circle cx=""50"" cy=""50"" r=""10"" fill=""none"" transform=""translate(-26  15)"" stroke=""red"" /><circle cx=""50"" cy=""50"" r=""10"" fill=""none"" transform=""translate(-26 -15)"" stroke=""magenta"" /><circle cx=""50"" cy=""50"" r=""10"" fill=""none"" transform=""translate(  0 -30)"" stroke=""black"" /><circle cx=""50"" cy=""50"" r=""10"" fill=""none"" transform=""translate( 26 -15)"" stroke=""cyan"" /><path d=""M 50 57 L 50 43"" stroke=""black"" transform=""translate( 26  15) rotate(45 50 50)""/><path d=""M 50 57 L 50 43"" stroke=""black"" transform=""translate(  0  30) rotate(-45 50 50)""/><path d=""M 50 57 L 50 43"" stroke=""black"" transform=""translate(-26  15) rotate(90 50 50)""/><path d=""M 50 57 L 50 43"" stroke=""black"" transform=""translate(-26 -15) rotate(45 50 50)""/><path d=""M 50 57 L 50 43"" stroke=""black"" transform=""translate(  0 -30) rotate(45 50 50)""/><path d=""M 50 57 L 50 43"" stroke=""black"" transform=""translate( 26 -15) rotate(45 50 50)""/><path d=""M 50 52 L 50 48"" stroke=""black"" stroke-width="".5""/> <path d=""M 52 50 L 48 50"" stroke=""black"" stroke-width="".5""/></svg>","77","VDACtraining","red","2","horizontal","false","","",""
"","html-keyboard-response","28","86954","0.0-2.0-2.0-2.5","tt73e0bxfc","red","null","","","","","","<p style=""font-size:300%;"">Miss.</p> <p style=""font-size:300%;"">Wrong response.</p>","null","","","","","","","",""
"","html-keyboard-response","29","88459","0.0-2.0-2.0-0.6","tt73e0bxfc","red","null","","","","","","<svg viewBox=""0 0 100 100"" > <path d=""M 50 52 L 50 48"" stroke=""black"" stroke-width="".5""/> <path d=""M 52 50 L 48 50"" stroke=""black"" stroke-width="".5""/>","null","","","","","","","",""
"","html-keyboard-response","30","89224","0.0-2.0-2.0-1.6","tt73e0bxfc","red","762.794999871403","","","","","","<svg viewBox=""0 0 100 100"" ><text font-size=""10%"" text-anchor=""middle""  x=""50"" y=""98"">Press z for horizontal or m for vertical</text><circle cx=""50"" cy=""50"" r=""10"" fill=""none"" transform=""translate( 26  15)"" stroke=""magenta"" /><circle cx=""50"" cy=""50"" r=""10"" fill=""none"" transform=""translate(  0  30)"" stroke=""green"" /><circle cx=""50"" cy=""50"" r=""10"" fill=""none"" transform=""translate(-26  15)"" stroke=""black"" /><circle cx=""50"" cy=""50"" r=""10"" fill=""none"" transform=""translate(-26 -15)"" stroke=""blueviolet"" /><circle cx=""50"" cy=""50"" r=""10"" fill=""none"" transform=""translate(  0 -30)"" stroke=""gold"" /><circle cx=""50"" cy=""50"" r=""10"" fill=""none"" transform=""translate( 26 -15)"" stroke=""cyan"" /><path d=""M 50 57 L 50 43"" stroke=""black"" transform=""translate( 26  15) rotate(-45 50 50)""/><path d=""M 50 57 L 50 43"" stroke=""black"" transform=""translate(  0  30) rotate(90 50 50)""/><path d=""M 50 57 L 50 43"" stroke=""black"" transform=""translate(-26  15) rotate(45 50 50)""/><path d=""M 50 57 L 50 43"" stroke=""black"" transform=""translate(-26 -15) rotate(45 50 50)""/><path d=""M 50 57 L 50 43"" stroke=""black"" transform=""translate(  0 -30) rotate(45 50 50)""/><path d=""M 50 57 L 50 43"" stroke=""black"" transform=""translate( 26 -15) rotate(-45 50 50)""/><path d=""M 50 52 L 50 48"" stroke=""black"" stroke-width="".5""/> <path d=""M 52 50 L 48 50"" stroke=""black"" stroke-width="".5""/></svg>","90","VDACtraining","green","1","horizontal","true","","",""
"","html-keyboard-response","31","91731","0.0-2.0-2.0-2.6","tt73e0bxfc","red","null","","","","","","<p style=""font-size:300%;"">Correct!</p>","null","","","","","","","",""
"","html-keyboard-response","32","93234","0.0-2.0-2.0-0.7","tt73e0bxfc","red","null","","","","","","<svg viewBox=""0 0 100 100"" > <path d=""M 50 52 L 50 48"" stroke=""black"" stroke-width="".5""/> <path d=""M 52 50 L 48 50"" stroke=""black"" stroke-width="".5""/>","null","","","","","","","",""
"","html-keyboard-response","33","93929","0.0-2.0-2.0-1.7","tt73e0bxfc","red","692.5750002264977","","","","","","<svg viewBox=""0 0 100 100"" ><text font-size=""10%"" text-anchor=""middle""  x=""50"" y=""98"">Press z for horizontal or m for vertical</text><circle cx=""50"" cy=""50"" r=""10"" fill=""none"" transform=""translate( 26  15)"" stroke=""black"" /><circle cx=""50"" cy=""50"" r=""10"" fill=""none"" transform=""translate(  0  30)"" stroke=""gold"" /><circle cx=""50"" cy=""50"" r=""10"" fill=""none"" transform=""translate(-26  15)"" stroke=""magenta"" /><circle cx=""50"" cy=""50"" r=""10"" fill=""none"" transform=""translate(-26 -15)"" stroke=""blueviolet"" /><circle cx=""50"" cy=""50"" r=""10"" fill=""none"" transform=""translate(  0 -30)"" stroke=""cyan"" /><circle cx=""50"" cy=""50"" r=""10"" fill=""none"" transform=""translate( 26 -15)"" stroke=""red"" /><path d=""M 50 57 L 50 43"" stroke=""black"" transform=""translate( 26  15) rotate(45 50 50)""/><path d=""M 50 57 L 50 43"" stroke=""black"" transform=""translate(  0  30) rotate(-45 50 50)""/><path d=""M 50 57 L 50 43"" stroke=""black"" transform=""translate(-26  15) rotate(45 50 50)""/><path d=""M 50 57 L 50 43"" stroke=""black"" transform=""translate(-26 -15) rotate(45 50 50)""/><path d=""M 50 57 L 50 43"" stroke=""black"" transform=""translate(  0 -30) rotate(45 50 50)""/><path d=""M 50 57 L 50 43"" stroke=""black"" transform=""translate( 26 -15) rotate(0 50 50)""/><path d=""M 50 52 L 50 48"" stroke=""black"" stroke-width="".5""/> <path d=""M 52 50 L 48 50"" stroke=""black"" stroke-width="".5""/></svg>","77","VDACtraining","red","5","vertical","true","","",""
"","html-keyboard-response","34","96440","0.0-2.0-2.0-2.7","tt73e0bxfc","red","null","","","","","","<p style=""font-size:300%;"">Correct!</p>","null","","","","","","","",""
"","html-keyboard-response","35","97944","0.0-2.0-2.0-0.8","tt73e0bxfc","red","null","","","","","","<svg viewBox=""0 0 100 100"" > <path d=""M 50 52 L 50 48"" stroke=""black"" stroke-width="".5""/> <path d=""M 52 50 L 48 50"" stroke=""black"" stroke-width="".5""/>","null","","","","","","","",""
"","html-keyboard-response","36","98517","0.0-2.0-2.0-1.8","tt73e0bxfc","red","570.7050000783056","","","","","","<svg viewBox=""0 0 100 100"" ><text font-size=""10%"" text-anchor=""middle""  x=""50"" y=""98"">Press z for horizontal or m for vertical</text><circle cx=""50"" cy=""50"" r=""10"" fill=""none"" transform=""translate( 26  15)"" stroke=""blueviolet"" /><circle cx=""50"" cy=""50"" r=""10"" fill=""none"" transform=""translate(  0  30)"" stroke=""red"" /><circle cx=""50"" cy=""50"" r=""10"" fill=""none"" transform=""translate(-26  15)"" stroke=""gold"" /><circle cx=""50"" cy=""50"" r=""10"" fill=""none"" transform=""translate(-26 -15)"" stroke=""cyan"" /><circle cx=""50"" cy=""50"" r=""10"" fill=""none"" transform=""translate(  0 -30)"" stroke=""black"" /><circle cx=""50"" cy=""50"" r=""10"" fill=""none"" transform=""translate( 26 -15)"" stroke=""magenta"" /><path d=""M 50 57 L 50 43"" stroke=""black"" transform=""translate( 26  15) rotate(45 50 50)""/><path d=""M 50 57 L 50 43"" stroke=""black"" transform=""translate(  0  30) rotate(0 50 50)""/><path d=""M 50 57 L 50 43"" stroke=""black"" transform=""translate(-26  15) rotate(-45 50 50)""/><path d=""M 50 57 L 50 43"" stroke=""black"" transform=""translate(-26 -15) rotate(45 50 50)""/><path d=""M 50 57 L 50 43"" stroke=""black"" transform=""translate(  0 -30) rotate(-45 50 50)""/><path d=""M 50 57 L 50 43"" stroke=""black"" transform=""translate( 26 -15) rotate(-45 50 50)""/><path d=""M 50 52 L 50 48"" stroke=""black"" stroke-width="".5""/> <path d=""M 52 50 L 48 50"" stroke=""black"" stroke-width="".5""/></svg>","77","VDACtraining","red","1","vertical","true","","",""
"","html-keyboard-response","37","101025","0.0-2.0-2.0-2.8","tt73e0bxfc","red","null","","","","","","<p style=""font-size:300%;"">Correct!</p>","null","","","","","","","",""
"","html-keyboard-response","38","102526","0.0-2.0-2.0-0.9","tt73e0bxfc","red","null","","","","","","<svg viewBox=""0 0 100 100"" > <path d=""M 50 52 L 50 48"" stroke=""black"" stroke-width="".5""/> <path d=""M 52 50 L 48 50"" stroke=""black"" stroke-width="".5""/>","null","","","","","","","",""
"","html-keyboard-response","39","103064","0.0-2.0-2.0-1.9","tt73e0bxfc","red","535.8949999790639","","","","","","<svg viewBox=""0 0 100 100"" ><text font-size=""10%"" text-anchor=""middle""  x=""50"" y=""98"">Press z for horizontal or m for vertical</text><circle cx=""50"" cy=""50"" r=""10"" fill=""none"" transform=""translate( 26  15)"" stroke=""cyan"" /><circle cx=""50"" cy=""50"" r=""10"" fill=""none"" transform=""translate(  0  30)"" stroke=""magenta"" /><circle cx=""50"" cy=""50"" r=""10"" fill=""none"" transform=""translate(-26  15)"" stroke=""blueviolet"" /><circle cx=""50"" cy=""50"" r=""10"" fill=""none"" transform=""translate(-26 -15)"" stroke=""black"" /><circle cx=""50"" cy=""50"" r=""10"" fill=""none"" transform=""translate(  0 -30)"" stroke=""gold"" /><circle cx=""50"" cy=""50"" r=""10"" fill=""none"" transform=""translate( 26 -15)"" stroke=""green"" /><path d=""M 50 57 L 50 43"" stroke=""black"" transform=""translate( 26  15) rotate(45 50 50)""/><path d=""M 50 57 L 50 43"" stroke=""black"" transform=""translate(  0  30) rotate(45 50 50)""/><path d=""M 50 57 L 50 43"" stroke=""black"" transform=""translate(-26  15) rotate(-45 50 50)""/><path d=""M 50 57 L 50 43"" stroke=""black"" transform=""translate(-26 -15) rotate(45 50 50)""/><path d=""M 50 57 L 50 43"" stroke=""black"" transform=""translate(  0 -30) rotate(45 50 50)""/><path d=""M 50 57 L 50 43"" stroke=""black"" transform=""translate( 26 -15) rotate(90 50 50)""/><path d=""M 50 52 L 50 48"" stroke=""black"" stroke-width="".5""/> <path d=""M 52 50 L 48 50"" stroke=""black"" stroke-width="".5""/></svg>","90","VDACtraining","green","5","horizontal","true","","",""
"","html-keyboard-response","40","105571","0.0-2.0-2.0-2.9","tt73e0bxfc","red","null","","","","","","<p style=""font-size:300%;"">Correct!</p>","null","","","","","","","",""
"","html-keyboard-response","41","110758","0.0-2.0-3.0","tt73e0bxfc","red","4182.754999957979","","","","","","<p>You have now finished the training exercise. If you would like to repeat the instructions and training exercise, press r to repeat this trial or press c if you would like to continue.</p>","67","","","","","","","",""
"","html-keyboard-response","42","112761","0.0-3.0-0.0","tt73e0bxfc","red","null","","","","","","<p>Place your fingers on the z and m keys. The experiment will continue shortly.</p><p>&nbsp</p>","null","","","","","","","",""
"","html-keyboard-response","43","113762","0.0-3.0-1.0","tt73e0bxfc","red","null","","","","","","<p>Place your fingers on the z and m keys. The experiment will continue shortly.</p><p>3</p>","null","","","","","","","",""
"","html-keyboard-response","44","114769","0.0-3.0-2.0","tt73e0bxfc","red","null","","","","","","<p>Place your fingers on the z and m keys. The experiment will continue shortly.</p><p>2</p>","null","","","","","","","",""
"","html-keyboard-response","45","115774","0.0-3.0-3.0","tt73e0bxfc","red","null","","","","","","<p>Place your fingers on the z and m keys. The experiment will continue shortly.</p><p>1</p>","null","","","","","","","",""
"","html-keyboard-response","46","116275","0.0-4.0-1.0-0.0","tt73e0bxfc","red","null","","","","","","<svg viewBox=""0 0 100 100"" > <path d=""M 50 52 L 50 48"" stroke=""black"" stroke-width="".5""/> <path d=""M 52 50 L 48 50"" stroke=""black"" stroke-width="".5""/>","null","","","","","","","",""
"","html-keyboard-response","47","117002","0.0-4.0-1.0-1.0","tt73e0bxfc","red","724.9849999789149","","","","","","<svg viewBox=""0 0 100 100"" ><circle cx=""50"" cy=""50"" r=""10"" fill=""none"" transform=""translate( 26  15)"" stroke=""green"" /><circle cx=""50"" cy=""50"" r=""10"" fill=""none"" transform=""translate(  0  30)"" stroke=""gold"" /><circle cx=""50"" cy=""50"" r=""10"" fill=""none"" transform=""translate(-26  15)"" stroke=""cyan"" /><circle cx=""50"" cy=""50"" r=""10"" fill=""none"" transform=""translate(-26 -15)"" stroke=""black"" /><circle cx=""50"" cy=""50"" r=""10"" fill=""none"" transform=""translate(  0 -30)"" stroke=""blueviolet"" /><circle cx=""50"" cy=""50"" r=""10"" fill=""none"" transform=""translate( 26 -15)"" stroke=""magenta"" /><path d=""M 50 57 L 50 43"" stroke=""black"" transform=""translate( 26  15) rotate(90 50 50)""/><path d=""M 50 57 L 50 43"" stroke=""black"" transform=""translate(  0  30) rotate(-45 50 50)""/><path d=""M 50 57 L 50 43"" stroke=""black"" transform=""translate(-26  15) rotate(45 50 50)""/><path d=""M 50 57 L 50 43"" stroke=""black"" transform=""translate(-26 -15) rotate(-45 50 50)""/><path d=""M 50 57 L 50 43"" stroke=""black"" transform=""translate(  0 -30) rotate(45 50 50)""/><path d=""M 50 57 L 50 43"" stroke=""black"" transform=""translate( 26 -15) rotate(45 50 50)""/><path d=""M 50 52 L 50 48"" stroke=""black"" stroke-width="".5""/> <path d=""M 52 50 L 48 50"" stroke=""black"" stroke-width="".5""/></svg>","77","VDACtest","green","1st","horizontal","false","low","",""
"","html-keyboard-response","48","119514","0.0-4.0-1.0-2.0","tt73e0bxfc","red","null","","","","","","<p style=""font-size:300%;"">Miss.</p><p style=""font-size:300%"">Total: 0 points.</p>","null","","","","","","","0",""
"","html-keyboard-response","49","121016","0.0-4.0-1.0-0.1","tt73e0bxfc","red","null","","","","","","<svg viewBox=""0 0 100 100"" > <path d=""M 50 52 L 50 48"" stroke=""black"" stroke-width="".5""/> <path d=""M 52 50 L 48 50"" stroke=""black"" stroke-width="".5""/>","null","","","","","","","",""
"","html-keyboard-response","50","121584","0.0-4.0-1.0-1.1","tt73e0bxfc","red","565.3099999763072","","","","","","<svg viewBox=""0 0 100 100"" ><circle cx=""50"" cy=""50"" r=""10"" fill=""none"" transform=""translate( 26  15)"" stroke=""cyan"" /><circle cx=""50"" cy=""50"" r=""10"" fill=""none"" transform=""translate(  0  30)"" stroke=""green"" /><circle cx=""50"" cy=""50"" r=""10"" fill=""none"" transform=""translate(-26  15)"" stroke=""black"" /><circle cx=""50"" cy=""50"" r=""10"" fill=""none"" transform=""translate(-26 -15)"" stroke=""blueviolet"" /><circle cx=""50"" cy=""50"" r=""10"" fill=""none"" transform=""translate(  0 -30)"" stroke=""magenta"" /><circle cx=""50"" cy=""50"" r=""10"" fill=""none"" transform=""translate( 26 -15)"" stroke=""gold"" /><path d=""M 50 57 L 50 43"" stroke=""black"" transform=""translate( 26  15) rotate(-45 50 50)""/><path d=""M 50 57 L 50 43"" stroke=""black"" transform=""translate(  0  30) rotate(0 50 50)""/><path d=""M 50 57 L 50 43"" stroke=""black"" transform=""translate(-26  15) rotate(45 50 50)""/><path d=""M 50 57 L 50 43"" stroke=""black"" transform=""translate(-26 -15) rotate(45 50 50)""/><path d=""M 50 57 L 50 43"" stroke=""black"" transform=""translate(  0 -30) rotate(-45 50 50)""/><path d=""M 50 57 L 50 43"" stroke=""black"" transform=""translate( 26 -15) rotate(-45 50 50)""/><path d=""M 50 52 L 50 48"" stroke=""black"" stroke-width="".5""/> <path d=""M 52 50 L 48 50"" stroke=""black"" stroke-width="".5""/></svg>","77","VDACtest","green","2nd","vertical","true","low","",""
"","html-keyboard-response","51","124094","0.0-4.0-1.0-2.1","tt73e0bxfc","red","null","","","","","","<p style=""font-size:300%;""> + 2 points.</p><p style=""font-size:300%"">Total: 2 points.</p>","null","","","","","","","2",""
"","html-keyboard-response","52","125595","0.0-4.0-1.0-0.2","tt73e0bxfc","red","null","","","","","","<svg viewBox=""0 0 100 100"" > <path d=""M 50 52 L 50 48"" stroke=""black"" stroke-width="".5""/> <path d=""M 52 50 L 48 50"" stroke=""black"" stroke-width="".5""/>","null","","","","","","","",""
"","html-keyboard-response","53","126250","0.0-4.0-1.0-1.2","tt73e0bxfc","red","652.1799999754876","","","","","","<svg viewBox=""0 0 100 100"" ><circle cx=""50"" cy=""50"" r=""10"" fill=""none"" transform=""translate( 26  15)"" stroke=""black"" /><circle cx=""50"" cy=""50"" r=""10"" fill=""none"" transform=""translate(  0  30)"" stroke=""gold"" /><circle cx=""50"" cy=""50"" r=""10"" fill=""none"" transform=""translate(-26  15)"" stroke=""magenta"" /><circle cx=""50"" cy=""50"" r=""10"" fill=""none"" transform=""translate(-26 -15)"" stroke=""cyan"" /><circle cx=""50"" cy=""50"" r=""10"" fill=""none"" transform=""translate(  0 -30)"" stroke=""green"" /><circle cx=""50"" cy=""50"" r=""10"" fill=""none"" transform=""translate( 26 -15)"" stroke=""blueviolet"" /><path d=""M 50 57 L 50 43"" stroke=""black"" transform=""translate( 26  15) rotate(45 50 50)""/><path d=""M 50 57 L 50 43"" stroke=""black"" transform=""translate(  0  30) rotate(45 50 50)""/><path d=""M 50 57 L 50 43"" stroke=""black"" transform=""translate(-26  15) rotate(-45 50 50)""/><path d=""M 50 57 L 50 43"" stroke=""black"" transform=""translate(-26 -15) rotate(45 50 50)""/><path d=""M 50 57 L 50 43"" stroke=""black"" transform=""translate(  0 -30) rotate(0 50 50)""/><path d=""M 50 57 L 50 43"" stroke=""black"" transform=""translate( 26 -15) rotate(45 50 50)""/><path d=""M 50 52 L 50 48"" stroke=""black"" stroke-width="".5""/> <path d=""M 52 50 L 48 50"" stroke=""black"" stroke-width="".5""/></svg>","90","VDACtest","green","5th","vertical","false","low","",""
"","html-keyboard-response","54","128762","0.0-4.0-1.0-2.2","tt73e0bxfc","red","null","","","","","","<p style=""font-size:300%;"">Miss.</p><p style=""font-size:300%"">Total: 2 points.</p>","null","","","","","","","2",""
"","html-keyboard-response","55","130267","0.0-4.0-1.0-0.3","tt73e0bxfc","red","null","","","","","","<svg viewBox=""0 0 100 100"" > <path d=""M 50 52 L 50 48"" stroke=""black"" stroke-width="".5""/> <path d=""M 52 50 L 48 50"" stroke=""black"" stroke-width="".5""/>","null","","","","","","","",""
"","html-keyboard-response","56","130899","0.0-4.0-1.0-1.3","tt73e0bxfc","red","630.0500000361353","","","","","","<svg viewBox=""0 0 100 100"" ><circle cx=""50"" cy=""50"" r=""10"" fill=""none"" transform=""translate( 26  15)"" stroke=""blueviolet"" /><circle cx=""50"" cy=""50"" r=""10"" fill=""none"" transform=""translate(  0  30)"" stroke=""cyan"" /><circle cx=""50"" cy=""50"" r=""10"" fill=""none"" transform=""translate(-26  15)"" stroke=""black"" /><circle cx=""50"" cy=""50"" r=""10"" fill=""none"" transform=""translate(-26 -15)"" stroke=""green"" /><circle cx=""50"" cy=""50"" r=""10"" fill=""none"" transform=""translate(  0 -30)"" stroke=""magenta"" /><circle cx=""50"" cy=""50"" r=""10"" fill=""none"" transform=""translate( 26 -15)"" stroke=""gold"" /><path d=""M 50 57 L 50 43"" stroke=""black"" transform=""translate( 26  15) rotate(-45 50 50)""/><path d=""M 50 57 L 50 43"" stroke=""black"" transform=""translate(  0  30) rotate(45 50 50)""/><path d=""M 50 57 L 50 43"" stroke=""black"" transform=""translate(-26  15) rotate(-45 50 50)""/><path d=""M 50 57 L 50 43"" stroke=""black"" transform=""translate(-26 -15) rotate(90 50 50)""/><path d=""M 50 57 L 50 43"" stroke=""black"" transform=""translate(  0 -30) rotate(45 50 50)""/><path d=""M 50 57 L 50 43"" stroke=""black"" transform=""translate( 26 -15) rotate(-45 50 50)""/><path d=""M 50 52 L 50 48"" stroke=""black"" stroke-width="".5""/> <path d=""M 52 50 L 48 50"" stroke=""black"" stroke-width="".5""/></svg>","90","VDACtest","green","4th","horizontal","true","low","",""
"","html-keyboard-response","57","133411","0.0-4.0-1.0-2.3","tt73e0bxfc","red","null","","","","","","<p style=""font-size:300%;""> + 10 points.</p><p style=""font-size:300%"">Total: 12 points.</p>","null","","","","","","","12",""
"","html-keyboard-response","58","134915","0.0-4.0-1.0-0.4","tt73e0bxfc","red","null","","","","","","<svg viewBox=""0 0 100 100"" > <path d=""M 50 52 L 50 48"" stroke=""black"" stroke-width="".5""/> <path d=""M 52 50 L 48 50"" stroke=""black"" stroke-width="".5""/>","null","","","","","","","",""
"","html-keyboard-response","59","135444","0.0-4.0-1.0-1.4","tt73e0bxfc","red","526.3699998613447","","","","","","<svg viewBox=""0 0 100 100"" ><circle cx=""50"" cy=""50"" r=""10"" fill=""none"" transform=""translate( 26  15)"" stroke=""cyan"" /><circle cx=""50"" cy=""50"" r=""10"" fill=""none"" transform=""translate(  0  30)"" stroke=""red"" /><circle cx=""50"" cy=""50"" r=""10"" fill=""none"" transform=""translate(-26  15)"" stroke=""gold"" /><circle cx=""50"" cy=""50"" r=""10"" fill=""none"" transform=""translate(-26 -15)"" stroke=""blueviolet"" /><circle cx=""50"" cy=""50"" r=""10"" fill=""none"" transform=""translate(  0 -30)"" stroke=""black"" /><circle cx=""50"" cy=""50"" r=""10"" fill=""none"" transform=""translate( 26 -15)"" stroke=""magenta"" /><path d=""M 50 57 L 50 43"" stroke=""black"" transform=""translate( 26  15) rotate(45 50 50)""/><path d=""M 50 57 L 50 43"" stroke=""black"" transform=""translate(  0  30) rotate(90 50 50)""/><path d=""M 50 57 L 50 43"" stroke=""black"" transform=""translate(-26  15) rotate(45 50 50)""/><path d=""M 50 57 L 50 43"" stroke=""black"" transform=""translate(-26 -15) rotate(-45 50 50)""/><path d=""M 50 57 L 50 43"" stroke=""black"" transform=""translate(  0 -30) rotate(45 50 50)""/><path d=""M 50 57 L 50 43"" stroke=""black"" transform=""translate( 26 -15) rotate(-45 50 50)""/><path d=""M 50 52 L 50 48"" stroke=""black"" stroke-width="".5""/> <path d=""M 52 50 L 48 50"" stroke=""black"" stroke-width="".5""/></svg>","90","VDACtest","red","2nd","horizontal","true","high","",""
"","html-keyboard-response","60","137955","0.0-4.0-1.0-2.4","tt73e0bxfc","red","null","","","","","","<p style=""font-size:300%;""> + 10 points.</p><p style=""font-size:300%"">Total: 22 points.</p>","null","","","","","","","22",""
"","html-keyboard-response","61","140619","0.0-4.0-1.0-4.4-0.4","tt73e0bxfc","red","1657.2999998461455","","","","","","<p>You may now take a 30 second break. If you wish to continue with the experiment now, press any key to start.</p>","90","","","","","","","",""
"","html-keyboard-response","62","142626","0.0-4.0-1.0-4.4-1.4-0.4","tt73e0bxfc","red","null","","","","","","<p>Place your fingers on the z and m keys. The experiment will continue shortly.</p><p>&nbsp</p>","null","","","","","","","",""
"","html-keyboard-response","63","143632","0.0-4.0-1.0-4.4-1.4-1.4","tt73e0bxfc","red","null","","","","","","<p>Place your fingers on the z and m keys. The experiment will continue shortly.</p><p>3</p>","null","","","","","","","",""
"","html-keyboard-response","64","144637","0.0-4.0-1.0-4.4-1.4-2.4","tt73e0bxfc","red","null","","","","","","<p>Place your fingers on the z and m keys. The experiment will continue shortly.</p><p>2</p>","null","","","","","","","",""
"","html-keyboard-response","65","145638","0.0-4.0-1.0-4.4-1.4-3.4","tt73e0bxfc","red","null","","","","","","<p>Place your fingers on the z and m keys. The experiment will continue shortly.</p><p>1</p>","null","","","","","","","",""
"","html-keyboard-response","66","146139","0.0-4.0-1.0-0.5","tt73e0bxfc","red","null","","","","","","<svg viewBox=""0 0 100 100"" > <path d=""M 50 52 L 50 48"" stroke=""black"" stroke-width="".5""/> <path d=""M 52 50 L 48 50"" stroke=""black"" stroke-width="".5""/>","null","","","","","","","",""
"","html-keyboard-response","67","146925","0.0-4.0-1.0-1.5","tt73e0bxfc","red","784.0899999719113","","","","","","<svg viewBox=""0 0 100 100"" ><circle cx=""50"" cy=""50"" r=""10"" fill=""none"" transform=""translate( 26  15)"" stroke=""blueviolet"" /><circle cx=""50"" cy=""50"" r=""10"" fill=""none"" transform=""translate(  0  30)"" stroke=""red"" /><circle cx=""50"" cy=""50"" r=""10"" fill=""none"" transform=""translate(-26  15)"" stroke=""gold"" /><circle cx=""50"" cy=""50"" r=""10"" fill=""none"" transform=""translate(-26 -15)"" stroke=""cyan"" /><circle cx=""50"" cy=""50"" r=""10"" fill=""none"" transform=""translate(  0 -30)"" stroke=""magenta"" /><circle cx=""50"" cy=""50"" r=""10"" fill=""none"" transform=""translate( 26 -15)"" stroke=""black"" /><path d=""M 50 57 L 50 43"" stroke=""black"" transform=""translate( 26  15) rotate(45 50 50)""/><path d=""M 50 57 L 50 43"" stroke=""black"" transform=""translate(  0  30) rotate(0 50 50)""/><path d=""M 50 57 L 50 43"" stroke=""black"" transform=""translate(-26  15) rotate(45 50 50)""/><path d=""M 50 57 L 50 43"" stroke=""black"" transform=""translate(-26 -15) rotate(45 50 50)""/><path d=""M 50 57 L 50 43"" stroke=""black"" transform=""translate(  0 -30) rotate(-45 50 50)""/><path d=""M 50 57 L 50 43"" stroke=""black"" transform=""translate( 26 -15) rotate(-45 50 50)""/><path d=""M 50 52 L 50 48"" stroke=""black"" stroke-width="".5""/> <path d=""M 52 50 L 48 50"" stroke=""black"" stroke-width="".5""/></svg>","90","VDACtest","red","2nd","vertical","false","high","",""
"","html-keyboard-response","68","149437","0.0-4.0-1.0-2.5","tt73e0bxfc","red","null","","","","","","<p style=""font-size:300%;"">Miss.</p><p style=""font-size:300%"">Total: 22 points.</p>","null","","","","","","","22",""
"","html-keyboard-response","69","150946","0.0-4.0-1.0-0.6","tt73e0bxfc","red","null","","","","","","<svg viewBox=""0 0 100 100"" > <path d=""M 50 52 L 50 48"" stroke=""black"" stroke-width="".5""/> <path d=""M 52 50 L 48 50"" stroke=""black"" stroke-width="".5""/>","null","","","","","","","",""
"","html-keyboard-response","70","151709","0.0-4.0-1.0-1.6","tt73e0bxfc","red","760.2199998218566","","","","","","<svg viewBox=""0 0 100 100"" ><circle cx=""50"" cy=""50"" r=""10"" fill=""none"" transform=""translate( 26  15)"" stroke=""magenta"" /><circle cx=""50"" cy=""50"" r=""10"" fill=""none"" transform=""translate(  0  30)"" stroke=""black"" /><circle cx=""50"" cy=""50"" r=""10"" fill=""none"" transform=""translate(-26  15)"" stroke=""green"" /><circle cx=""50"" cy=""50"" r=""10"" fill=""none"" transform=""translate(-26 -15)"" stroke=""gold"" /><circle cx=""50"" cy=""50"" r=""10"" fill=""none"" transform=""translate(  0 -30)"" stroke=""blueviolet"" /><circle cx=""50"" cy=""50"" r=""10"" fill=""none"" transform=""translate( 26 -15)"" stroke=""cyan"" /><path d=""M 50 57 L 50 43"" stroke=""black"" transform=""translate( 26  15) rotate(-45 50 50)""/><path d=""M 50 57 L 50 43"" stroke=""black"" transform=""translate(  0  30) rotate(45 50 50)""/><path d=""M 50 57 L 50 43"" stroke=""black"" transform=""translate(-26  15) rotate(0 50 50)""/><path d=""M 50 57 L 50 43"" stroke=""black"" transform=""translate(-26 -15) rotate(45 50 50)""/><path d=""M 50 57 L 50 43"" stroke=""black"" transform=""translate(  0 -30) rotate(-45 50 50)""/><path d=""M 50 57 L 50 43"" stroke=""black"" transform=""translate( 26 -15) rotate(-45 50 50)""/><path d=""M 50 52 L 50 48"" stroke=""black"" stroke-width="".5""/> <path d=""M 52 50 L 48 50"" stroke=""black"" stroke-width="".5""/></svg>","77","VDACtest","green","3rd","vertical","true","low","",""
"","html-keyboard-response","71","154217","0.0-4.0-1.0-2.6","tt73e0bxfc","red","null","","","","","","<p style=""font-size:300%;""> + 2 points.</p><p style=""font-size:300%"">Total: 24 points.</p>","null","","","","","","","24",""
"","html-keyboard-response","72","155719","0.0-4.0-1.0-0.7","tt73e0bxfc","red","null","","","","","","<svg viewBox=""0 0 100 100"" > <path d=""M 50 52 L 50 48"" stroke=""black"" stroke-width="".5""/> <path d=""M 52 50 L 48 50"" stroke=""black"" stroke-width="".5""/>","null","","","","","","","",""
"","html-keyboard-response","73","156537","0.0-4.0-1.0-1.7","tt73e0bxfc","red","815.8500001300126","","","","","","<svg viewBox=""0 0 100 100"" ><circle cx=""50"" cy=""50"" r=""10"" fill=""none"" transform=""translate( 26  15)"" stroke=""gold"" /><circle cx=""50"" cy=""50"" r=""10"" fill=""none"" transform=""translate(  0  30)"" stroke=""black"" /><circle cx=""50"" cy=""50"" r=""10"" fill=""none"" transform=""translate(-26  15)"" stroke=""red"" /><circle cx=""50"" cy=""50"" r=""10"" fill=""none"" transform=""translate(-26 -15)"" stroke=""magenta"" /><circle cx=""50"" cy=""50"" r=""10"" fill=""none"" transform=""translate(  0 -30)"" stroke=""blueviolet"" /><circle cx=""50"" cy=""50"" r=""10"" fill=""none"" transform=""translate( 26 -15)"" stroke=""cyan"" /><path d=""M 50 57 L 50 43"" stroke=""black"" transform=""translate( 26  15) rotate(45 50 50)""/><path d=""M 50 57 L 50 43"" stroke=""black"" transform=""translate(  0  30) rotate(45 50 50)""/><path d=""M 50 57 L 50 43"" stroke=""black"" transform=""translate(-26  15) rotate(0 50 50)""/><path d=""M 50 57 L 50 43"" stroke=""black"" transform=""translate(-26 -15) rotate(-45 50 50)""/><path d=""M 50 57 L 50 43"" stroke=""black"" transform=""translate(  0 -30) rotate(-45 50 50)""/><path d=""M 50 57 L 50 43"" stroke=""black"" transform=""translate( 26 -15) rotate(45 50 50)""/><path d=""M 50 52 L 50 48"" stroke=""black"" stroke-width="".5""/> <path d=""M 52 50 L 48 50"" stroke=""black"" stroke-width="".5""/></svg>","77","VDACtest","red","3rd","vertical","true","high","",""
"","html-keyboard-response","74","159044","0.0-4.0-1.0-2.7","tt73e0bxfc","red","null","","","","","","<p style=""font-size:300%;""> + 10 points.</p><p style=""font-size:300%"">Total: 34 points.</p>","null","","","","","","","34",""
"","html-keyboard-response","75","160546","0.0-4.0-1.0-0.8","tt73e0bxfc","red","null","","","","","","<svg viewBox=""0 0 100 100"" > <path d=""M 50 52 L 50 48"" stroke=""black"" stroke-width="".5""/> <path d=""M 52 50 L 48 50"" stroke=""black"" stroke-width="".5""/>","null","","","","","","","",""
"","html-keyboard-response","76","161550","0.0-4.0-1.0-1.8","tt73e0bxfc","red","null","","","","","","<svg viewBox=""0 0 100 100"" ><circle cx=""50"" cy=""50"" r=""10"" fill=""none"" transform=""translate( 26  15)"" stroke=""cyan"" /><circle cx=""50"" cy=""50"" r=""10"" fill=""none"" transform=""translate(  0  30)"" stroke=""black"" /><circle cx=""50"" cy=""50"" r=""10"" fill=""none"" transform=""translate(-26  15)"" stroke=""blueviolet"" /><circle cx=""50"" cy=""50"" r=""10"" fill=""none"" transform=""translate(-26 -15)"" stroke=""gold"" /><circle cx=""50"" cy=""50"" r=""10"" fill=""none"" transform=""translate(  0 -30)"" stroke=""green"" /><circle cx=""50"" cy=""50"" r=""10"" fill=""none"" transform=""translate( 26 -15)"" stroke=""magenta"" /><path d=""M 50 57 L 50 43"" stroke=""black"" transform=""translate( 26  15) rotate(-45 50 50)""/><path d=""M 50 57 L 50 43"" stroke=""black"" transform=""translate(  0  30) rotate(45 50 50)""/><path d=""M 50 57 L 50 43"" stroke=""black"" transform=""translate(-26  15) rotate(-45 50 50)""/><path d=""M 50 57 L 50 43"" stroke=""black"" transform=""translate(-26 -15) rotate(-45 50 50)""/><path d=""M 50 57 L 50 43"" stroke=""black"" transform=""translate(  0 -30) rotate(90 50 50)""/><path d=""M 50 57 L 50 43"" stroke=""black"" transform=""translate( 26 -15) rotate(45 50 50)""/><path d=""M 50 52 L 50 48"" stroke=""black"" stroke-width="".5""/> <path d=""M 52 50 L 48 50"" stroke=""black"" stroke-width="".5""/></svg>","null","VDACtest","green","5th","horizontal","null","low","",""
"","html-keyboard-response","77","164058","0.0-4.0-1.0-2.8","tt73e0bxfc","red","null","","","","","","<p style=""font-size:300%;"">Miss.</p><p style=""font-size:300%"">Total: 34 points.</p>","null","","","","","","","34",""
"","html-keyboard-response","78","165562","0.0-4.0-1.0-0.9","tt73e0bxfc","red","null","","","","","","<svg viewBox=""0 0 100 100"" > <path d=""M 50 52 L 50 48"" stroke=""black"" stroke-width="".5""/> <path d=""M 52 50 L 48 50"" stroke=""black"" stroke-width="".5""/>","null","","","","","","","",""
"","html-keyboard-response","79","166198","0.0-4.0-1.0-1.9","tt73e0bxfc","red","634.0599998366088","","","","","","<svg viewBox=""0 0 100 100"" ><circle cx=""50"" cy=""50"" r=""10"" fill=""none"" transform=""translate( 26  15)"" stroke=""cyan"" /><circle cx=""50"" cy=""50"" r=""10"" fill=""none"" transform=""translate(  0  30)"" stroke=""magenta"" /><circle cx=""50"" cy=""50"" r=""10"" fill=""none"" transform=""translate(-26  15)"" stroke=""black"" /><circle cx=""50"" cy=""50"" r=""10"" fill=""none"" transform=""translate(-26 -15)"" stroke=""gold"" /><circle cx=""50"" cy=""50"" r=""10"" fill=""none"" transform=""translate(  0 -30)"" stroke=""red"" /><circle cx=""50"" cy=""50"" r=""10"" fill=""none"" transform=""translate( 26 -15)"" stroke=""blueviolet"" /><path d=""M 50 57 L 50 43"" stroke=""black"" transform=""translate( 26  15) rotate(45 50 50)""/><path d=""M 50 57 L 50 43"" stroke=""black"" transform=""translate(  0  30) rotate(-45 50 50)""/><path d=""M 50 57 L 50 43"" stroke=""black"" transform=""translate(-26  15) rotate(45 50 50)""/><path d=""M 50 57 L 50 43"" stroke=""black"" transform=""translate(-26 -15) rotate(45 50 50)""/><path d=""M 50 57 L 50 43"" stroke=""black"" transform=""translate(  0 -30) rotate(0 50 50)""/><path d=""M 50 57 L 50 43"" stroke=""black"" transform=""translate( 26 -15) rotate(-45 50 50)""/><path d=""M 50 52 L 50 48"" stroke=""black"" stroke-width="".5""/> <path d=""M 52 50 L 48 50"" stroke=""black"" stroke-width="".5""/></svg>","77","VDACtest","red","5th","vertical","true","high","",""
"","html-keyboard-response","80","168706","0.0-4.0-1.0-2.9","tt73e0bxfc","red","null","","","","","","<p style=""font-size:300%;""> + 10 points.</p><p style=""font-size:300%"">Total: 44 points.</p>","null","","","","","","","44",""
"","html-keyboard-response","81","170798","0.0-4.0-1.0-4.9-0.9","tt73e0bxfc","red","1085.1600000169128","","","","","","<p>You may now take a 30 second break. If you wish to continue with the experiment now, press any key to start.</p>","77","","","","","","","",""
"","html-keyboard-response","82","172804","0.0-4.0-1.0-4.9-1.9-0.9","tt73e0bxfc","red","null","","","","","","<p>Place your fingers on the z and m keys. The experiment will continue shortly.</p><p>&nbsp</p>","null","","","","","","","",""
"","html-keyboard-response","83","173810","0.0-4.0-1.0-4.9-1.9-1.9","tt73e0bxfc","red","null","","","","","","<p>Place your fingers on the z and m keys. The experiment will continue shortly.</p><p>3</p>","null","","","","","","","",""
"","html-keyboard-response","84","174816","0.0-4.0-1.0-4.9-1.9-2.9","tt73e0bxfc","red","null","","","","","","<p>Place your fingers on the z and m keys. The experiment will continue shortly.</p><p>2</p>","null","","","","","","","",""
"","html-keyboard-response","85","175818","0.0-4.0-1.0-4.9-1.9-3.9","tt73e0bxfc","red","null","","","","","","<p>Place your fingers on the z and m keys. The experiment will continue shortly.</p><p>1</p>","null","","","","","","","",""
"","html-keyboard-response","86","176315","0.0-4.0-1.0-0.10","tt73e0bxfc","red","null","","","","","","<svg viewBox=""0 0 100 100"" > <path d=""M 50 52 L 50 48"" stroke=""black"" stroke-width="".5""/> <path d=""M 52 50 L 48 50"" stroke=""black"" stroke-width="".5""/>","null","","","","","","","",""
"","html-keyboard-response","87","177259","0.0-4.0-1.0-1.10","tt73e0bxfc","red","941.9550001621246","","","","","","<svg viewBox=""0 0 100 100"" ><circle cx=""50"" cy=""50"" r=""10"" fill=""none"" transform=""translate( 26  15)"" stroke=""magenta"" /><circle cx=""50"" cy=""50"" r=""10"" fill=""none"" transform=""translate(  0  30)"" stroke=""green"" /><circle cx=""50"" cy=""50"" r=""10"" fill=""none"" transform=""translate(-26  15)"" stroke=""blueviolet"" /><circle cx=""50"" cy=""50"" r=""10"" fill=""none"" transform=""translate(-26 -15)"" stroke=""gold"" /><circle cx=""50"" cy=""50"" r=""10"" fill=""none"" transform=""translate(  0 -30)"" stroke=""cyan"" /><circle cx=""50"" cy=""50"" r=""10"" fill=""none"" transform=""translate( 26 -15)"" stroke=""black"" /><path d=""M 50 57 L 50 43"" stroke=""black"" transform=""translate( 26  15) rotate(-45 50 50)""/><path d=""M 50 57 L 50 43"" stroke=""black"" transform=""translate(  0  30) rotate(90 50 50)""/><path d=""M 50 57 L 50 43"" stroke=""black"" transform=""translate(-26  15) rotate(45 50 50)""/><path d=""M 50 57 L 50 43"" stroke=""black"" transform=""translate(-26 -15) rotate(45 50 50)""/><path d=""M 50 57 L 50 43"" stroke=""black"" transform=""translate(  0 -30) rotate(45 50 50)""/><path d=""M 50 57 L 50 43"" stroke=""black"" transform=""translate( 26 -15) rotate(45 50 50)""/><path d=""M 50 52 L 50 48"" stroke=""black"" stroke-width="".5""/> <path d=""M 52 50 L 48 50"" stroke=""black"" stroke-width="".5""/></svg>","77","VDACtest","green","2nd","horizontal","false","low","",""
"","html-keyboard-response","88","179767","0.0-4.0-1.0-2.10","tt73e0bxfc","red","null","","","","","","<p style=""font-size:300%;"">Miss.</p><p style=""font-size:300%"">Total: 44 points.</p>","null","","","","","","","44",""
"","html-keyboard-response","89","181272","0.0-4.0-1.0-0.11","tt73e0bxfc","red","null","","","","","","<svg viewBox=""0 0 100 100"" > <path d=""M 50 52 L 50 48"" stroke=""black"" stroke-width="".5""/> <path d=""M 52 50 L 48 50"" stroke=""black"" stroke-width="".5""/>","null","","","","","","","",""
"","html-keyboard-response","90","181900","0.0-4.0-1.0-1.11","tt73e0bxfc","red","625.8499999530613","","","","","","<svg viewBox=""0 0 100 100"" ><circle cx=""50"" cy=""50"" r=""10"" fill=""none"" transform=""translate( 26  15)"" stroke=""gold"" /><circle cx=""50"" cy=""50"" r=""10"" fill=""none"" transform=""translate(  0  30)"" stroke=""magenta"" /><circle cx=""50"" cy=""50"" r=""10"" fill=""none"" transform=""translate(-26  15)"" stroke=""black"" /><circle cx=""50"" cy=""50"" r=""10"" fill=""none"" transform=""translate(-26 -15)"" stroke=""cyan"" /><circle cx=""50"" cy=""50"" r=""10"" fill=""none"" transform=""translate(  0 -30)"" stroke=""blueviolet"" /><circle cx=""50"" cy=""50"" r=""10"" fill=""none"" transform=""translate( 26 -15)"" stroke=""green"" /><path d=""M 50 57 L 50 43"" stroke=""black"" transform=""translate( 26  15) rotate(-45 50 50)""/><path d=""M 50 57 L 50 43"" stroke=""black"" transform=""translate(  0  30) rotate(45 50 50)""/><path d=""M 50 57 L 50 43"" stroke=""black"" transform=""translate(-26  15) rotate(-45 50 50)""/><path d=""M 50 57 L 50 43"" stroke=""black"" transform=""translate(-26 -15) rotate(45 50 50)""/><path d=""M 50 57 L 50 43"" stroke=""black"" transform=""translate(  0 -30) rotate(-45 50 50)""/><path d=""M 50 57 L 50 43"" stroke=""black"" transform=""translate( 26 -15) rotate(90 50 50)""/><path d=""M 50 52 L 50 48"" stroke=""black"" stroke-width="".5""/> <path d=""M 52 50 L 48 50"" stroke=""black"" stroke-width="".5""/></svg>","90","VDACtest","green","6th","horizontal","true","low","",""
"","html-keyboard-response","91","184409","0.0-4.0-1.0-2.11","tt73e0bxfc","red","null","","","","","","<p style=""font-size:300%;""> + 2 points.</p><p style=""font-size:300%"">Total: 46 points.</p>","null","","","","","","","46",""
"","html-keyboard-response","92","185913","0.0-4.0-1.0-0.12","tt73e0bxfc","red","null","","","","","","<svg viewBox=""0 0 100 100"" > <path d=""M 50 52 L 50 48"" stroke=""black"" stroke-width="".5""/> <path d=""M 52 50 L 48 50"" stroke=""black"" stroke-width="".5""/>","null","","","","","","","",""
"","html-keyboard-response","93","186521","0.0-4.0-1.0-1.12","tt73e0bxfc","red","605.659999884665","","","","","","<svg viewBox=""0 0 100 100"" ><circle cx=""50"" cy=""50"" r=""10"" fill=""none"" transform=""translate( 26  15)"" stroke=""red"" /><circle cx=""50"" cy=""50"" r=""10"" fill=""none"" transform=""translate(  0  30)"" stroke=""gold"" /><circle cx=""50"" cy=""50"" r=""10"" fill=""none"" transform=""translate(-26  15)"" stroke=""black"" /><circle cx=""50"" cy=""50"" r=""10"" fill=""none"" transform=""translate(-26 -15)"" stroke=""cyan"" /><circle cx=""50"" cy=""50"" r=""10"" fill=""none"" transform=""translate(  0 -30)"" stroke=""magenta"" /><circle cx=""50"" cy=""50"" r=""10"" fill=""none"" transform=""translate( 26 -15)"" stroke=""blueviolet"" /><path d=""M 50 57 L 50 43"" stroke=""black"" transform=""translate( 26  15) rotate(0 50 50)""/><path d=""M 50 57 L 50 43"" stroke=""black"" transform=""translate(  0  30) rotate(45 50 50)""/><path d=""M 50 57 L 50 43"" stroke=""black"" transform=""translate(-26  15) rotate(45 50 50)""/><path d=""M 50 57 L 50 43"" stroke=""black"" transform=""translate(-26 -15) rotate(-45 50 50)""/><path d=""M 50 57 L 50 43"" stroke=""black"" transform=""translate(  0 -30) rotate(45 50 50)""/><path d=""M 50 57 L 50 43"" stroke=""black"" transform=""translate( 26 -15) rotate(-45 50 50)""/><path d=""M 50 52 L 50 48"" stroke=""black"" stroke-width="".5""/> <path d=""M 52 50 L 48 50"" stroke=""black"" stroke-width="".5""/></svg>","77","VDACtest","red","1st","vertical","true","high","",""
"","html-keyboard-response","94","189028","0.0-4.0-1.0-2.12","tt73e0bxfc","red","null","","","","","","<p style=""font-size:300%;""> + 10 points.</p><p style=""font-size:300%"">Total: 56 points.</p>","null","","","","","","","56",""
"","html-keyboard-response","95","190531","0.0-4.0-1.0-0.13","tt73e0bxfc","red","null","","","","","","<svg viewBox=""0 0 100 100"" > <path d=""M 50 52 L 50 48"" stroke=""black"" stroke-width="".5""/> <path d=""M 52 50 L 48 50"" stroke=""black"" stroke-width="".5""/>","null","","","","","","","",""
"","html-keyboard-response","96","191461","0.0-4.0-1.0-1.13","tt73e0bxfc","red","928.3050000667572","","","","","","<svg viewBox=""0 0 100 100"" ><circle cx=""50"" cy=""50"" r=""10"" fill=""none"" transform=""translate( 26  15)"" stroke=""black"" /><circle cx=""50"" cy=""50"" r=""10"" fill=""none"" transform=""translate(  0  30)"" stroke=""magenta"" /><circle cx=""50"" cy=""50"" r=""10"" fill=""none"" transform=""translate(-26  15)"" stroke=""green"" /><circle cx=""50"" cy=""50"" r=""10"" fill=""none"" transform=""translate(-26 -15)"" stroke=""blueviolet"" /><circle cx=""50"" cy=""50"" r=""10"" fill=""none"" transform=""translate(  0 -30)"" stroke=""cyan"" /><circle cx=""50"" cy=""50"" r=""10"" fill=""none"" transform=""translate( 26 -15)"" stroke=""gold"" /><path d=""M 50 57 L 50 43"" stroke=""black"" transform=""translate( 26  15) rotate(-45 50 50)""/><path d=""M 50 57 L 50 43"" stroke=""black"" transform=""translate(  0  30) rotate(-45 50 50)""/><path d=""M 50 57 L 50 43"" stroke=""black"" transform=""translate(-26  15) rotate(90 50 50)""/><path d=""M 50 57 L 50 43"" stroke=""black"" transform=""translate(-26 -15) rotate(-45 50 50)""/><path d=""M 50 57 L 50 43"" stroke=""black"" transform=""translate(  0 -30) rotate(-45 50 50)""/><path d=""M 50 57 L 50 43"" stroke=""black"" transform=""translate( 26 -15) rotate(45 50 50)""/><path d=""M 50 52 L 50 48"" stroke=""black"" stroke-width="".5""/> <path d=""M 52 50 L 48 50"" stroke=""black"" stroke-width="".5""/></svg>","90","VDACtest","green","3rd","horizontal","true","low","",""
"","html-keyboard-response","97","193966","0.0-4.0-1.0-2.13","tt73e0bxfc","red","null","","","","","","<p style=""font-size:300%;""> + 10 points.</p><p style=""font-size:300%"">Total: 66 points.</p>","null","","","","","","","66",""
"","html-keyboard-response","98","195472","0.0-4.0-1.0-0.14","tt73e0bxfc","red","null","","","","","","<svg viewBox=""0 0 100 100"" > <path d=""M 50 52 L 50 48"" stroke=""black"" stroke-width="".5""/> <path d=""M 52 50 L 48 50"" stroke=""black"" stroke-width="".5""/>","null","","","","","","","",""
"","html-keyboard-response","99","196011","0.0-4.0-1.0-1.14","tt73e0bxfc","red","536.6399998310953","","","","","","<svg viewBox=""0 0 100 100"" ><circle cx=""50"" cy=""50"" r=""10"" fill=""none"" transform=""translate( 26  15)"" stroke=""cyan"" /><circle cx=""50"" cy=""50"" r=""10"" fill=""none"" transform=""translate(  0  30)"" stroke=""magenta"" /><circle cx=""50"" cy=""50"" r=""10"" fill=""none"" transform=""translate(-26  15)"" stroke=""red"" /><circle cx=""50"" cy=""50"" r=""10"" fill=""none"" transform=""translate(-26 -15)"" stroke=""black"" /><circle cx=""50"" cy=""50"" r=""10"" fill=""none"" transform=""translate(  0 -30)"" stroke=""blueviolet"" /><circle cx=""50"" cy=""50"" r=""10"" fill=""none"" transform=""translate( 26 -15)"" stroke=""gold"" /><path d=""M 50 57 L 50 43"" stroke=""black"" transform=""translate( 26  15) rotate(-45 50 50)""/><path d=""M 50 57 L 50 43"" stroke=""black"" transform=""translate(  0  30) rotate(45 50 50)""/><path d=""M 50 57 L 50 43"" stroke=""black"" transform=""translate(-26  15) rotate(90 50 50)""/><path d=""M 50 57 L 50 43"" stroke=""black"" transform=""translate(-26 -15) rotate(45 50 50)""/><path d=""M 50 57 L 50 43"" stroke=""black"" transform=""translate(  0 -30) rotate(-45 50 50)""/><path d=""M 50 57 L 50 43"" stroke=""black"" transform=""translate( 26 -15) rotate(45 50 50)""/><path d=""M 50 52 L 50 48"" stroke=""black"" stroke-width="".5""/> <path d=""M 52 50 L 48 50"" stroke=""black"" stroke-width="".5""/></svg>","90","VDACtest","red","3rd","horizontal","true","high","",""
"","html-keyboard-response","100","198519","0.0-4.0-1.0-2.14","tt73e0bxfc","red","null","","","","","","<p style=""font-size:300%;""> + 10 points.</p><p style=""font-size:300%"">Total: 76 points.</p>","null","","","","","","","76",""
"","html-keyboard-response","101","200390","0.0-4.0-1.0-4.14-0.14","tt73e0bxfc","red","866.2000000476837","","","","","","<p>You may now take a 30 second break. If you wish to continue with the experiment now, press any key to start.</p>","90","","","","","","","",""
"","html-keyboard-response","102","202396","0.0-4.0-1.0-4.14-1.14-0.14","tt73e0bxfc","red","null","","","","","","<p>Place your fingers on the z and m keys. The experiment will continue shortly.</p><p>&nbsp</p>","null","","","","","","","",""
"","html-keyboard-response","103","203402","0.0-4.0-1.0-4.14-1.14-1.14","tt73e0bxfc","red","null","","","","","","<p>Place your fingers on the z and m keys. The experiment will continue shortly.</p><p>3</p>","null","","","","","","","",""
"","html-keyboard-response","104","204408","0.0-4.0-1.0-4.14-1.14-2.14","tt73e0bxfc","red","null","","","","","","<p>Place your fingers on the z and m keys. The experiment will continue shortly.</p><p>2</p>","null","","","","","","","",""
"","html-keyboard-response","105","205411","0.0-4.0-1.0-4.14-1.14-3.14","tt73e0bxfc","red","null","","","","","","<p>Place your fingers on the z and m keys. The experiment will continue shortly.</p><p>1</p>","null","","","","","","","",""
"","html-keyboard-response","106","205907","0.0-4.0-1.0-0.15","tt73e0bxfc","red","null","","","","","","<svg viewBox=""0 0 100 100"" > <path d=""M 50 52 L 50 48"" stroke=""black"" stroke-width="".5""/> <path d=""M 52 50 L 48 50"" stroke=""black"" stroke-width="".5""/>","null","","","","","","","",""
"","html-keyboard-response","107","206629","0.0-4.0-1.0-1.15","tt73e0bxfc","red","719.5600001141429","","","","","","<svg viewBox=""0 0 100 100"" ><circle cx=""50"" cy=""50"" r=""10"" fill=""none"" transform=""translate( 26  15)"" stroke=""cyan"" /><circle cx=""50"" cy=""50"" r=""10"" fill=""none"" transform=""translate(  0  30)"" stroke=""magenta"" /><circle cx=""50"" cy=""50"" r=""10"" fill=""none"" transform=""translate(-26  15)"" stroke=""blueviolet"" /><circle cx=""50"" cy=""50"" r=""10"" fill=""none"" transform=""translate(-26 -15)"" stroke=""black"" /><circle cx=""50"" cy=""50"" r=""10"" fill=""none"" transform=""translate(  0 -30)"" stroke=""red"" /><circle cx=""50"" cy=""50"" r=""10"" fill=""none"" transform=""translate( 26 -15)"" stroke=""gold"" /><path d=""M 50 57 L 50 43"" stroke=""black"" transform=""translate( 26  15) rotate(45 50 50)""/><path d=""M 50 57 L 50 43"" stroke=""black"" transform=""translate(  0  30) rotate(-45 50 50)""/><path d=""M 50 57 L 50 43"" stroke=""black"" transform=""translate(-26  15) rotate(-45 50 50)""/><path d=""M 50 57 L 50 43"" stroke=""black"" transform=""translate(-26 -15) rotate(-45 50 50)""/><path d=""M 50 57 L 50 43"" stroke=""black"" transform=""translate(  0 -30) rotate(90 50 50)""/><path d=""M 50 57 L 50 43"" stroke=""black"" transform=""translate( 26 -15) rotate(-45 50 50)""/><path d=""M 50 52 L 50 48"" stroke=""black"" stroke-width="".5""/> <path d=""M 52 50 L 48 50"" stroke=""black"" stroke-width="".5""/></svg>","90","VDACtest","red","5th","horizontal","true","high","",""
"","html-keyboard-response","108","209140","0.0-4.0-1.0-2.15","tt73e0bxfc","red","null","","","","","","<p style=""font-size:300%;""> + 10 points.</p><p style=""font-size:300%"">Total: 86 points.</p>","null","","","","","","","86",""
"","html-keyboard-response","109","210645","0.0-4.0-1.0-0.16","tt73e0bxfc","red","null","","","","","","<svg viewBox=""0 0 100 100"" > <path d=""M 50 52 L 50 48"" stroke=""black"" stroke-width="".5""/> <path d=""M 52 50 L 48 50"" stroke=""black"" stroke-width="".5""/>","null","","","","","","","",""
"","html-keyboard-response","110","211175","0.0-4.0-1.0-1.16","tt73e0bxfc","red","528.2550000119954","","","","","","<svg viewBox=""0 0 100 100"" ><circle cx=""50"" cy=""50"" r=""10"" fill=""none"" transform=""translate( 26  15)"" stroke=""gold"" /><circle cx=""50"" cy=""50"" r=""10"" fill=""none"" transform=""translate(  0  30)"" stroke=""cyan"" /><circle cx=""50"" cy=""50"" r=""10"" fill=""none"" transform=""translate(-26  15)"" stroke=""black"" /><circle cx=""50"" cy=""50"" r=""10"" fill=""none"" transform=""translate(-26 -15)"" stroke=""magenta"" /><circle cx=""50"" cy=""50"" r=""10"" fill=""none"" transform=""translate(  0 -30)"" stroke=""blueviolet"" /><circle cx=""50"" cy=""50"" r=""10"" fill=""none"" transform=""translate( 26 -15)"" stroke=""red"" /><path d=""M 50 57 L 50 43"" stroke=""black"" transform=""translate( 26  15) rotate(45 50 50)""/><path d=""M 50 57 L 50 43"" stroke=""black"" transform=""translate(  0  30) rotate(-45 50 50)""/><path d=""M 50 57 L 50 43"" stroke=""black"" transform=""translate(-26  15) rotate(45 50 50)""/><path d=""M 50 57 L 50 43"" stroke=""black"" transform=""translate(-26 -15) rotate(-45 50 50)""/><path d=""M 50 57 L 50 43"" stroke=""black"" transform=""translate(  0 -30) rotate(45 50 50)""/><path d=""M 50 57 L 50 43"" stroke=""black"" transform=""translate( 26 -15) rotate(0 50 50)""/><path d=""M 50 52 L 50 48"" stroke=""black"" stroke-width="".5""/> <path d=""M 52 50 L 48 50"" stroke=""black"" stroke-width="".5""/></svg>","77","VDACtest","red","6th","vertical","true","high","",""
"","html-keyboard-response","111","213678","0.0-4.0-1.0-2.16","tt73e0bxfc","red","null","","","","","","<p style=""font-size:300%;""> + 10 points.</p><p style=""font-size:300%"">Total: 96 points.</p>","null","","","","","","","96",""
"","html-keyboard-response","112","215179","0.0-4.0-1.0-0.17","tt73e0bxfc","red","null","","","","","","<svg viewBox=""0 0 100 100"" > <path d=""M 50 52 L 50 48"" stroke=""black"" stroke-width="".5""/> <path d=""M 52 50 L 48 50"" stroke=""black"" stroke-width="".5""/>","null","","","","","","","",""
"","html-keyboard-response","113","216184","0.0-4.0-1.0-1.17","tt73e0bxfc","red","null","","","","","","<svg viewBox=""0 0 100 100"" ><circle cx=""50"" cy=""50"" r=""10"" fill=""none"" transform=""translate( 26  15)"" stroke=""black"" /><circle cx=""50"" cy=""50"" r=""10"" fill=""none"" transform=""translate(  0  30)"" stroke=""blueviolet"" /><circle cx=""50"" cy=""50"" r=""10"" fill=""none"" transform=""translate(-26  15)"" stroke=""cyan"" /><circle cx=""50"" cy=""50"" r=""10"" fill=""none"" transform=""translate(-26 -15)"" stroke=""green"" /><circle cx=""50"" cy=""50"" r=""10"" fill=""none"" transform=""translate(  0 -30)"" stroke=""magenta"" /><circle cx=""50"" cy=""50"" r=""10"" fill=""none"" transform=""translate( 26 -15)"" stroke=""gold"" /><path d=""M 50 57 L 50 43"" stroke=""black"" transform=""translate( 26  15) rotate(-45 50 50)""/><path d=""M 50 57 L 50 43"" stroke=""black"" transform=""translate(  0  30) rotate(45 50 50)""/><path d=""M 50 57 L 50 43"" stroke=""black"" transform=""translate(-26  15) rotate(45 50 50)""/><path d=""M 50 57 L 50 43"" stroke=""black"" transform=""translate(-26 -15) rotate(0 50 50)""/><path d=""M 50 57 L 50 43"" stroke=""black"" transform=""translate(  0 -30) rotate(-45 50 50)""/><path d=""M 50 57 L 50 43"" stroke=""black"" transform=""translate( 26 -15) rotate(-45 50 50)""/><path d=""M 50 52 L 50 48"" stroke=""black"" stroke-width="".5""/> <path d=""M 52 50 L 48 50"" stroke=""black"" stroke-width="".5""/></svg>","null","VDACtest","green","4th","vertical","null","low","",""
"","html-keyboard-response","114","218691","0.0-4.0-1.0-2.17","tt73e0bxfc","red","null","","","","","","<p style=""font-size:300%;"">Miss.</p><p style=""font-size:300%"">Total: 96 points.</p>","null","","","","","","","96",""
"","html-keyboard-response","115","220195","0.0-4.0-1.0-0.18","tt73e0bxfc","red","null","","","","","","<svg viewBox=""0 0 100 100"" > <path d=""M 50 52 L 50 48"" stroke=""black"" stroke-width="".5""/> <path d=""M 52 50 L 48 50"" stroke=""black"" stroke-width="".5""/>","null","","","","","","","",""
"","html-keyboard-response","116","220844","0.0-4.0-1.0-1.18","tt73e0bxfc","red","646.9450001604855","","","","","","<svg viewBox=""0 0 100 100"" ><circle cx=""50"" cy=""50"" r=""10"" fill=""none"" transform=""translate( 26  15)"" stroke=""black"" /><circle cx=""50"" cy=""50"" r=""10"" fill=""none"" transform=""translate(  0  30)"" stroke=""blueviolet"" /><circle cx=""50"" cy=""50"" r=""10"" fill=""none"" transform=""translate(-26  15)"" stroke=""magenta"" /><circle cx=""50"" cy=""50"" r=""10"" fill=""none"" transform=""translate(-26 -15)"" stroke=""red"" /><circle cx=""50"" cy=""50"" r=""10"" fill=""none"" transform=""translate(  0 -30)"" stroke=""cyan"" /><circle cx=""50"" cy=""50"" r=""10"" fill=""none"" transform=""translate( 26 -15)"" stroke=""gold"" /><path d=""M 50 57 L 50 43"" stroke=""black"" transform=""translate( 26  15) rotate(45 50 50)""/><path d=""M 50 57 L 50 43"" stroke=""black"" transform=""translate(  0  30) rotate(45 50 50)""/><path d=""M 50 57 L 50 43"" stroke=""black"" transform=""translate(-26  15) rotate(-45 50 50)""/><path d=""M 50 57 L 50 43"" stroke=""black"" transform=""translate(-26 -15) rotate(90 50 50)""/><path d=""M 50 57 L 50 43"" stroke=""black"" transform=""translate(  0 -30) rotate(-45 50 50)""/><path d=""M 50 57 L 50 43"" stroke=""black"" transform=""translate( 26 -15) rotate(45 50 50)""/><path d=""M 50 52 L 50 48"" stroke=""black"" stroke-width="".5""/> <path d=""M 52 50 L 48 50"" stroke=""black"" stroke-width="".5""/></svg>","90","VDACtest","red","4th","horizontal","true","high","",""
"","html-keyboard-response","117","223354","0.0-4.0-1.0-2.18","tt73e0bxfc","red","null","","","","","","<p style=""font-size:300%;""> + 10 points.</p><p style=""font-size:300%"">Total: 106 points.</p>","null","","","","","","","106",""
"","html-keyboard-response","118","224859","0.0-4.0-1.0-0.19","tt73e0bxfc","red","null","","","","","","<svg viewBox=""0 0 100 100"" > <path d=""M 50 52 L 50 48"" stroke=""black"" stroke-width="".5""/> <path d=""M 52 50 L 48 50"" stroke=""black"" stroke-width="".5""/>","null","","","","","","","",""
"","html-keyboard-response","119","225631","0.0-4.0-1.0-1.19","tt73e0bxfc","red","769.1750000230968","","","","","","<svg viewBox=""0 0 100 100"" ><circle cx=""50"" cy=""50"" r=""10"" fill=""none"" transform=""translate( 26  15)"" stroke=""red"" /><circle cx=""50"" cy=""50"" r=""10"" fill=""none"" transform=""translate(  0  30)"" stroke=""blueviolet"" /><circle cx=""50"" cy=""50"" r=""10"" fill=""none"" transform=""translate(-26  15)"" stroke=""gold"" /><circle cx=""50"" cy=""50"" r=""10"" fill=""none"" transform=""translate(-26 -15)"" stroke=""magenta"" /><circle cx=""50"" cy=""50"" r=""10"" fill=""none"" transform=""translate(  0 -30)"" stroke=""black"" /><circle cx=""50"" cy=""50"" r=""10"" fill=""none"" transform=""translate( 26 -15)"" stroke=""cyan"" /><path d=""M 50 57 L 50 43"" stroke=""black"" transform=""translate( 26  15) rotate(90 50 50)""/><path d=""M 50 57 L 50 43"" stroke=""black"" transform=""translate(  0  30) rotate(45 50 50)""/><path d=""M 50 57 L 50 43"" stroke=""black"" transform=""translate(-26  15) rotate(-45 50 50)""/><path d=""M 50 57 L 50 43"" stroke=""black"" transform=""translate(-26 -15) rotate(-45 50 50)""/><path d=""M 50 57 L 50 43"" stroke=""black"" transform=""translate(  0 -30) rotate(-45 50 50)""/><path d=""M 50 57 L 50 43"" stroke=""black"" transform=""translate( 26 -15) rotate(45 50 50)""/><path d=""M 50 52 L 50 48"" stroke=""black"" stroke-width="".5""/> <path d=""M 52 50 L 48 50"" stroke=""black"" stroke-width="".5""/></svg>","77","VDACtest","red","1st","horizontal","false","high","",""
"","html-keyboard-response","120","228142","0.0-4.0-1.0-2.19","tt73e0bxfc","red","null","","","","","","<p style=""font-size:300%;"">Miss.</p><p style=""font-size:300%"">Total: 106 points.</p>","null","","","","","","","106",""
"","call-function","121","229149","0.0-5.0","tt73e0bxfc","red","","","","","","","","","","","","","","","",""
"","instructions","122","246443","0.0-6.0-0.0","tt73e0bxfc","red","17292.710000183433","","","","","[{""page_index"":0,""viewing_time"":8873.785000061616},{""page_index"":1,""viewing_time"":8418.689999962226}]","","","","","","","","","",""
"","html-keyboard-response","123","246941","0.0-6.0-1.0-0.0","tt73e0bxfc","red","null","","","","","","<svg viewBox=""0 0 100 100"" > <path d=""M 50 52 L 50 48"" stroke=""black"" stroke-width="".5""/> <path d=""M 52 50 L 48 50"" stroke=""black"" stroke-width="".5""/>","null","","","","","","","",""
"","html-keyboard-response","124","247443","0.0-6.0-1.0-1.0-0.0","tt73e0bxfc","red","null","","","","","","<p style=""color: black; text-align:center; font-family: BACS2; font-size:1000%;"">f</p>","null","","","","","","","",""
"","html-keyboard-response","125","247949","0.0-6.0-1.0-1.0-1.0","tt73e0bxfc","red","null","","","","","","<p style=""color: black; text-align:center; font-family: BACS2; font-size:1000%;"">K</p>","null","","","","","","","",""
"","html-keyboard-response","126","248451","0.0-6.0-1.0-1.0-2.0","tt73e0bxfc","red","null","","","","","","<p style=""color: black; text-align:center; font-family: BACS1; font-size:1000%;"">z</p>","null","","","","","","","",""
"","html-keyboard-response","127","248954","0.0-6.0-1.0-1.0-3.0","tt73e0bxfc","red","null","","","","","","<svg xmlns=""http://www.w3.org/2000/svg"" width=""500"" height=""500"" viewBox=""-5 -5 20 20""> <rect x=""0"" y=""0"" width=""10"" height=""10"" /><path fill=""#FFF"" d=""M 0,1 H 10 v 1 H 0 z m 0,2 H 10 v 1 H 0 zm 0,2 H 10 v 1 H 0 zm 0,2 H 10 v 1 H 0 zm 0,2 H 10 v 1 H 0 zM 1,0 V 10 h 1 V 0 zm 2,0 V 10 h 1 V 0 zm 2,0 V 10 h 1 V 0 zm 2,0 V 10 h 1 V 0 zm 2,0 V 10 h 1 V 0 z""/></svg>","null","","","","","","","",""
"","html-keyboard-response","128","250178","0.0-6.0-1.0-1.0-4.0","tt73e0bxfc","red","1222.465000115335","","","","","","<p style=""color: black; text-align:center; font-family: BACS1; font-size:1000%;"">f</p>","90","RSVPtraining","","new","","false","","",""
"","html-keyboard-response","129","251684","0.0-6.0-1.0-2.0","tt73e0bxfc","red","null","","","","","","<p style=""font-size:300%;"">Miss.</p> <p style=""font-size:300%;"">Wrong response.</p>","null","","","","","","","",""
"","html-keyboard-response","130","253188","0.0-6.0-1.0-0.1","tt73e0bxfc","red","null","","","","","","<svg viewBox=""0 0 100 100"" > <path d=""M 50 52 L 50 48"" stroke=""black"" stroke-width="".5""/> <path d=""M 52 50 L 48 50"" stroke=""black"" stroke-width="".5""/>","null","","","","","","","",""
"","html-keyboard-response","131","253695","0.0-6.0-1.0-1.1-0.1","tt73e0bxfc","red","null","","","","","","<p style=""color: black; text-align:center; font-family: BACS2; font-size:1000%;"">G</p>","null","","","","","","","",""
"","html-keyboard-response","132","254201","0.0-6.0-1.0-1.1-1.1","tt73e0bxfc","red","null","","","","","","<p style=""color: black; text-align:center; font-family: BACS2; font-size:1000%;"">A</p>","null","","","","","","","",""
"","html-keyboard-response","133","254702","0.0-6.0-1.0-1.1-2.1","tt73e0bxfc","red","null","","","","","","<p style=""color: black; text-align:center; font-family: BACS2; font-size:1000%;"">l</p>","null","","","","","","","",""
"","html-keyboard-response","134","255207","0.0-6.0-1.0-1.1-3.1","tt73e0bxfc","red","null","","","","","","<svg xmlns=""http://www.w3.org/2000/svg"" width=""500"" height=""500"" viewBox=""-5 -5 20 20""> <rect x=""0"" y=""0"" width=""10"" height=""10"" /><path fill=""#FFF"" d=""M 0,1 H 10 v 1 H 0 z m 0,2 H 10 v 1 H 0 zm 0,2 H 10 v 1 H 0 zm 0,2 H 10 v 1 H 0 zm 0,2 H 10 v 1 H 0 zM 1,0 V 10 h 1 V 0 zm 2,0 V 10 h 1 V 0 zm 2,0 V 10 h 1 V 0 zm 2,0 V 10 h 1 V 0 zm 2,0 V 10 h 1 V 0 z""/></svg>","null","","","","","","","",""
"","html-keyboard-response","135","255968","0.0-6.0-1.0-1.1-4.1","tt73e0bxfc","red","758.9000000152737","","","","","","<p style=""color: black; text-align:center; font-family: BACS2; font-size:1000%;"">R</p>","90","RSVPtraining","","new","","false","","",""
"","html-keyboard-response","136","257474","0.0-6.0-1.0-2.1","tt73e0bxfc","red","null","","","","","","<p style=""font-size:300%;"">Miss.</p> <p style=""font-size:300%;"">Wrong response.</p>","null","","","","","","","",""
"","html-keyboard-response","137","258975","0.0-6.0-1.0-0.2","tt73e0bxfc","red","null","","","","","","<svg viewBox=""0 0 100 100"" > <path d=""M 50 52 L 50 48"" stroke=""black"" stroke-width="".5""/> <path d=""M 52 50 L 48 50"" stroke=""black"" stroke-width="".5""/>","null","","","","","","","",""
"","html-keyboard-response","138","259481","0.0-6.0-1.0-1.2-0.2","tt73e0bxfc","red","null","","","","","","<p style=""color: black; text-align:center; font-family: BACS1; font-size:1000%;"">E</p>","null","","","","","","","",""
"","html-keyboard-response","139","259989","0.0-6.0-1.0-1.2-1.2","tt73e0bxfc","red","null","","","","","","<p style=""color: black; text-align:center; font-family: BACS1; font-size:1000%;"">C</p>","null","","","","","","","",""
"","html-keyboard-response","140","260490","0.0-6.0-1.0-1.2-2.2","tt73e0bxfc","red","null","","","","","","<p style=""color: black; text-align:center; font-family: BACS2; font-size:1000%;"">I</p>","null","","","","","","","",""
"","html-keyboard-response","141","260992","0.0-6.0-1.0-1.2-3.2","tt73e0bxfc","red","null","","","","","","<svg xmlns=""http://www.w3.org/2000/svg"" width=""500"" height=""500"" viewBox=""-5 -5 20 20""> <rect x=""0"" y=""0"" width=""10"" height=""10"" /><path fill=""#FFF"" d=""M 0,1 H 10 v 1 H 0 z m 0,2 H 10 v 1 H 0 zm 0,2 H 10 v 1 H 0 zm 0,2 H 10 v 1 H 0 zm 0,2 H 10 v 1 H 0 zM 1,0 V 10 h 1 V 0 zm 2,0 V 10 h 1 V 0 zm 2,0 V 10 h 1 V 0 zm 2,0 V 10 h 1 V 0 zm 2,0 V 10 h 1 V 0 z""/></svg>","null","","","","","","","",""
"","html-keyboard-response","142","261865","0.0-6.0-1.0-1.2-4.2","tt73e0bxfc","red","871.1049999110401","","","","","","<p style=""color: black; text-align:center; font-family: BACS1; font-size:1000%;"">G</p>","77","RSVPtraining","","new","","true","","",""
"","html-keyboard-response","143","263372","0.0-6.0-1.0-2.2","tt73e0bxfc","red","null","","","","","","<p style=""font-size:300%;"">Correct!</p>","null","","","","","","","",""
"","html-keyboard-response","144","264877","0.0-6.0-1.0-0.3","tt73e0bxfc","red","null","","","","","","<svg viewBox=""0 0 100 100"" > <path d=""M 50 52 L 50 48"" stroke=""black"" stroke-width="".5""/> <path d=""M 52 50 L 48 50"" stroke=""black"" stroke-width="".5""/>","null","","","","","","","",""
"","html-keyboard-response","145","265382","0.0-6.0-1.0-1.3-0.3","tt73e0bxfc","red","null","","","","","","<p style=""color: black; text-align:center; font-family: BACS2; font-size:1000%;"">i</p>","null","","","","","","","",""
"","html-keyboard-response","146","265888","0.0-6.0-1.0-1.3-1.3","tt73e0bxfc","red","null","","","","","","<p style=""color: black; text-align:center; font-family: BACS1; font-size:1000%;"">i</p>","null","","","","","","","",""
"","html-keyboard-response","147","266389","0.0-6.0-1.0-1.3-2.3","tt73e0bxfc","red","null","","","","","","<p style=""color: black; text-align:center; font-family: BACS2; font-size:1000%;"">q</p>","null","","","","","","","",""
"","html-keyboard-response","148","266891","0.0-6.0-1.0-1.3-3.3","tt73e0bxfc","red","null","","","","","","<svg xmlns=""http://www.w3.org/2000/svg"" width=""500"" height=""500"" viewBox=""-5 -5 20 20""> <rect x=""0"" y=""0"" width=""10"" height=""10"" /><path fill=""#FFF"" d=""M 0,1 H 10 v 1 H 0 z m 0,2 H 10 v 1 H 0 zm 0,2 H 10 v 1 H 0 zm 0,2 H 10 v 1 H 0 zm 0,2 H 10 v 1 H 0 zM 1,0 V 10 h 1 V 0 zm 2,0 V 10 h 1 V 0 zm 2,0 V 10 h 1 V 0 zm 2,0 V 10 h 1 V 0 zm 2,0 V 10 h 1 V 0 z""/></svg>","null","","","","","","","",""
"","html-keyboard-response","149","267851","0.0-6.0-1.0-1.3-4.3","tt73e0bxfc","red","959.0900000184774","","","","","","<p style=""color: black; text-align:center; font-family: BACS1; font-size:1000%;"">R</p>","77","RSVPtraining","","new","","true","","",""
"","html-keyboard-response","150","269357","0.0-6.0-1.0-2.3","tt73e0bxfc","red","null","","","","","","<p style=""font-size:300%;"">Correct!</p>","null","","","","","","","",""
"","html-keyboard-response","151","270863","0.0-6.0-1.0-0.4","tt73e0bxfc","red","null","","","","","","<svg viewBox=""0 0 100 100"" > <path d=""M 50 52 L 50 48"" stroke=""black"" stroke-width="".5""/> <path d=""M 52 50 L 48 50"" stroke=""black"" stroke-width="".5""/>","null","","","","","","","",""
"","html-keyboard-response","152","271370","0.0-6.0-1.0-1.4-0.4","tt73e0bxfc","red","null","","","","","","<p style=""color: black; text-align:center; font-family: BACS2; font-size:1000%;"">g</p>","null","","","","","","","",""
"","html-keyboard-response","153","271877","0.0-6.0-1.0-1.4-1.4","tt73e0bxfc","red","null","","","","","","<p style=""color: black; text-align:center; font-family: BACS1; font-size:1000%;"">i</p>","null","","","","","","","",""
"","html-keyboard-response","154","272379","0.0-6.0-1.0-1.4-2.4","tt73e0bxfc","red","null","","","","","","<p style=""color: black; text-align:center; font-family: BACS1; font-size:1000%;"">u</p>","null","","","","","","","",""
"","html-keyboard-response","155","272882","0.0-6.0-1.0-1.4-3.4","tt73e0bxfc","red","null","","","","","","<svg xmlns=""http://www.w3.org/2000/svg"" width=""500"" height=""500"" viewBox=""-5 -5 20 20""> <rect x=""0"" y=""0"" width=""10"" height=""10"" /><path fill=""#FFF"" d=""M 0,1 H 10 v 1 H 0 z m 0,2 H 10 v 1 H 0 zm 0,2 H 10 v 1 H 0 zm 0,2 H 10 v 1 H 0 zm 0,2 H 10 v 1 H 0 zM 1,0 V 10 h 1 V 0 zm 2,0 V 10 h 1 V 0 zm 2,0 V 10 h 1 V 0 zm 2,0 V 10 h 1 V 0 zm 2,0 V 10 h 1 V 0 z""/></svg>","null","","","","","","","",""
"","html-keyboard-response","156","273905","0.0-6.0-1.0-1.4-4.4","tt73e0bxfc","red","1022.7049998939037","","","","","","<p style=""color: black; text-align:center; font-family: BACS2; font-size:1000%;"">g</p>","90","RSVPtraining","","1st","","true","","",""
"","html-keyboard-response","157","275412","0.0-6.0-1.0-2.4","tt73e0bxfc","red","null","","","","","","<p style=""font-size:300%;"">Correct!</p>","null","","","","","","","",""
"","html-keyboard-response","158","276918","0.0-6.0-1.0-0.5","tt73e0bxfc","red","null","","","","","","<svg viewBox=""0 0 100 100"" > <path d=""M 50 52 L 50 48"" stroke=""black"" stroke-width="".5""/> <path d=""M 52 50 L 48 50"" stroke=""black"" stroke-width="".5""/>","null","","","","","","","",""
"","html-keyboard-response","159","277425","0.0-6.0-1.0-1.5-0.5","tt73e0bxfc","red","null","","","","","","<p style=""color: black; text-align:center; font-family: BACS2; font-size:1000%;"">G</p>","null","","","","","","","",""
"","html-keyboard-response","160","277927","0.0-6.0-1.0-1.5-1.5","tt73e0bxfc","red","null","","","","","","<p style=""color: black; text-align:center; font-family: BACS1; font-size:1000%;"">O</p>","null","","","","","","","",""
"","html-keyboard-response","161","278430","0.0-6.0-1.0-1.5-2.5","tt73e0bxfc","red","null","","","","","","<p style=""color: black; text-align:center; font-family: BACS1; font-size:1000%;"">l</p>","null","","","","","","","",""
"","html-keyboard-response","162","278935","0.0-6.0-1.0-1.5-3.5","tt73e0bxfc","red","null","","","","","","<svg xmlns=""http://www.w3.org/2000/svg"" width=""500"" height=""500"" viewBox=""-5 -5 20 20""> <rect x=""0"" y=""0"" width=""10"" height=""10"" /><path fill=""#FFF"" d=""M 0,1 H 10 v 1 H 0 z m 0,2 H 10 v 1 H 0 zm 0,2 H 10 v 1 H 0 zm 0,2 H 10 v 1 H 0 zm 0,2 H 10 v 1 H 0 zM 1,0 V 10 h 1 V 0 zm 2,0 V 10 h 1 V 0 zm 2,0 V 10 h 1 V 0 zm 2,0 V 10 h 1 V 0 zm 2,0 V 10 h 1 V 0 z""/></svg>","null","","","","","","","",""
"","html-keyboard-response","163","279705","0.0-6.0-1.0-1.5-4.5","tt73e0bxfc","red","769.5500000845641","","","","","","<p style=""color: black; text-align:center; font-family: BACS2; font-size:1000%;"">F</p>","77","RSVPtraining","","new","","true","","",""
"","html-keyboard-response","164","281212","0.0-6.0-1.0-2.5","tt73e0bxfc","red","null","","","","","","<p style=""font-size:300%;"">Correct!</p>","null","","","","","","","",""
"","html-keyboard-response","165","282716","0.0-6.0-1.0-0.6","tt73e0bxfc","red","null","","","","","","<svg viewBox=""0 0 100 100"" > <path d=""M 50 52 L 50 48"" stroke=""black"" stroke-width="".5""/> <path d=""M 52 50 L 48 50"" stroke=""black"" stroke-width="".5""/>","null","","","","","","","",""
"","html-keyboard-response","166","283222","0.0-6.0-1.0-1.6-0.6","tt73e0bxfc","red","null","","","","","","<p style=""color: black; text-align:center; font-family: BACS2; font-size:1000%;"">a</p>","null","","","","","","","",""
"","html-keyboard-response","167","283727","0.0-6.0-1.0-1.6-1.6","tt73e0bxfc","red","null","","","","","","<p style=""color: black; text-align:center; font-family: BACS1; font-size:1000%;"">Y</p>","null","","","","","","","",""
"","html-keyboard-response","168","284230","0.0-6.0-1.0-1.6-2.6","tt73e0bxfc","red","null","","","","","","<p style=""color: black; text-align:center; font-family: BACS1; font-size:1000%;"">z</p>","null","","","","","","","",""
"","html-keyboard-response","169","284733","0.0-6.0-1.0-1.6-3.6","tt73e0bxfc","red","null","","","","","","<svg xmlns=""http://www.w3.org/2000/svg"" width=""500"" height=""500"" viewBox=""-5 -5 20 20""> <rect x=""0"" y=""0"" width=""10"" height=""10"" /><path fill=""#FFF"" d=""M 0,1 H 10 v 1 H 0 z m 0,2 H 10 v 1 H 0 zm 0,2 H 10 v 1 H 0 zm 0,2 H 10 v 1 H 0 zm 0,2 H 10 v 1 H 0 zM 1,0 V 10 h 1 V 0 zm 2,0 V 10 h 1 V 0 zm 2,0 V 10 h 1 V 0 zm 2,0 V 10 h 1 V 0 zm 2,0 V 10 h 1 V 0 z""/></svg>","null","","","","","","","",""
"","html-keyboard-response","170","285596","0.0-6.0-1.0-1.6-4.6","tt73e0bxfc","red","861.5800000261515","","","","","","<p style=""color: black; text-align:center; font-family: BACS1; font-size:1000%;"">Y</p>","90","RSVPtraining","","2nd","","true","","",""
"","html-keyboard-response","171","287098","0.0-6.0-1.0-2.6","tt73e0bxfc","red","null","","","","","","<p style=""font-size:300%;"">Correct!</p>","null","","","","","","","",""
"","html-keyboard-response","172","288598","0.0-6.0-1.0-0.7","tt73e0bxfc","red","null","","","","","","<svg viewBox=""0 0 100 100"" > <path d=""M 50 52 L 50 48"" stroke=""black"" stroke-width="".5""/> <path d=""M 52 50 L 48 50"" stroke=""black"" stroke-width="".5""/>","null","","","","","","","",""
"","html-keyboard-response","173","289103","0.0-6.0-1.0-1.7-0.7","tt73e0bxfc","red","null","","","","","","<p style=""color: black; text-align:center; font-family: BACS1; font-size:1000%;"">S</p>","null","","","","","","","",""
"","html-keyboard-response","174","289609","0.0-6.0-1.0-1.7-1.7","tt73e0bxfc","red","null","","","","","","<p style=""color: black; text-align:center; font-family: BACS1; font-size:1000%;"">t</p>","null","","","","","","","",""
"","html-keyboard-response","175","290111","0.0-6.0-1.0-1.7-2.7","tt73e0bxfc","red","null","","","","","","<p style=""color: black; text-align:center; font-family: BACS1; font-size:1000%;"">a</p>","null","","","","","","","",""
"","html-keyboard-response","176","290616","0.0-6.0-1.0-1.7-3.7","tt73e0bxfc","red","null","","","","","","<svg xmlns=""http://www.w3.org/2000/svg"" width=""500"" height=""500"" viewBox=""-5 -5 20 20""> <rect x=""0"" y=""0"" width=""10"" height=""10"" /><path fill=""#FFF"" d=""M 0,1 H 10 v 1 H 0 z m 0,2 H 10 v 1 H 0 zm 0,2 H 10 v 1 H 0 zm 0,2 H 10 v 1 H 0 zm 0,2 H 10 v 1 H 0 zM 1,0 V 10 h 1 V 0 zm 2,0 V 10 h 1 V 0 zm 2,0 V 10 h 1 V 0 zm 2,0 V 10 h 1 V 0 zm 2,0 V 10 h 1 V 0 z""/></svg>","null","","","","","","","",""
"","html-keyboard-response","177","291810","0.0-6.0-1.0-1.7-4.7","tt73e0bxfc","red","1192.6200001034886","","","","","","<p style=""color: black; text-align:center; font-family: BACS1; font-size:1000%;"">a</p>","90","RSVPtraining","","3rd","","true","","",""
"","html-keyboard-response","178","293316","0.0-6.0-1.0-2.7","tt73e0bxfc","red","null","","","","","","<p style=""font-size:300%;"">Correct!</p>","null","","","","","","","",""
"","html-keyboard-response","179","294820","0.0-6.0-1.0-0.8","tt73e0bxfc","red","null","","","","","","<svg viewBox=""0 0 100 100"" > <path d=""M 50 52 L 50 48"" stroke=""black"" stroke-width="".5""/> <path d=""M 52 50 L 48 50"" stroke=""black"" stroke-width="".5""/>","null","","","","","","","",""
"","html-keyboard-response","180","295326","0.0-6.0-1.0-1.8-0.8","tt73e0bxfc","red","null","","","","","","<p style=""color: black; text-align:center; font-family: BACS2; font-size:1000%;"">A</p>","null","","","","","","","",""
"","html-keyboard-response","181","295833","0.0-6.0-1.0-1.8-1.8","tt73e0bxfc","red","null","","","","","","<p style=""color: black; text-align:center; font-family: BACS1; font-size:1000%;"">h</p>","null","","","","","","","",""
"","html-keyboard-response","182","296334","0.0-6.0-1.0-1.8-2.8","tt73e0bxfc","red","null","","","","","","<p style=""color: black; text-align:center; font-family: BACS1; font-size:1000%;"">I</p>","null","","","","","","","",""
"","html-keyboard-response","183","296839","0.0-6.0-1.0-1.8-3.8","tt73e0bxfc","red","null","","","","","","<svg xmlns=""http://www.w3.org/2000/svg"" width=""500"" height=""500"" viewBox=""-5 -5 20 20""> <rect x=""0"" y=""0"" width=""10"" height=""10"" /><path fill=""#FFF"" d=""M 0,1 H 10 v 1 H 0 z m 0,2 H 10 v 1 H 0 zm 0,2 H 10 v 1 H 0 zm 0,2 H 10 v 1 H 0 zm 0,2 H 10 v 1 H 0 zM 1,0 V 10 h 1 V 0 zm 2,0 V 10 h 1 V 0 zm 2,0 V 10 h 1 V 0 zm 2,0 V 10 h 1 V 0 zm 2,0 V 10 h 1 V 0 z""/></svg>","null","","","","","","","",""
"","html-keyboard-response","184","297618","0.0-6.0-1.0-1.8-4.8","tt73e0bxfc","red","777.1250000223517","","","","","","<p style=""color: black; text-align:center; font-family: BACS2; font-size:1000%;"">A</p>","90","RSVPtraining","","1st","","true","","",""
"","html-keyboard-response","185","299121","0.0-6.0-1.0-2.8","tt73e0bxfc","red","null","","","","","","<p style=""font-size:300%;"">Correct!</p>","null","","","","","","","",""
"","html-keyboard-response","186","300625","0.0-6.0-1.0-0.9","tt73e0bxfc","red","null","","","","","","<svg viewBox=""0 0 100 100"" > <path d=""M 50 52 L 50 48"" stroke=""black"" stroke-width="".5""/> <path d=""M 52 50 L 48 50"" stroke=""black"" stroke-width="".5""/>","null","","","","","","","",""
"","html-keyboard-response","187","301127","0.0-6.0-1.0-1.9-0.9","tt73e0bxfc","red","null","","","","","","<p style=""color: black; text-align:center; font-family: BACS2; font-size:1000%;"">i</p>","null","","","","","","","",""
"","html-keyboard-response","188","301632","0.0-6.0-1.0-1.9-1.9","tt73e0bxfc","red","null","","","","","","<p style=""color: black; text-align:center; font-family: BACS1; font-size:1000%;"">g</p>","null","","","","","","","",""
"","html-keyboard-response","189","302134","0.0-6.0-1.0-1.9-2.9","tt73e0bxfc","red","null","","","","","","<p style=""color: black; text-align:center; font-family: BACS2; font-size:1000%;"">h</p>","null","","","","","","","",""
"","html-keyboard-response","190","302637","0.0-6.0-1.0-1.9-3.9","tt73e0bxfc","red","null","","","","","","<svg xmlns=""http://www.w3.org/2000/svg"" width=""500"" height=""500"" viewBox=""-5 -5 20 20""> <rect x=""0"" y=""0"" width=""10"" height=""10"" /><path fill=""#FFF"" d=""M 0,1 H 10 v 1 H 0 z m 0,2 H 10 v 1 H 0 zm 0,2 H 10 v 1 H 0 zm 0,2 H 10 v 1 H 0 zm 0,2 H 10 v 1 H 0 zM 1,0 V 10 h 1 V 0 zm 2,0 V 10 h 1 V 0 zm 2,0 V 10 h 1 V 0 zm 2,0 V 10 h 1 V 0 zm 2,0 V 10 h 1 V 0 z""/></svg>","null","","","","","","","",""
"","html-keyboard-response","191","303370","0.0-6.0-1.0-1.9-4.9","tt73e0bxfc","red","731.0900001320988","","","","","","<p style=""color: black; text-align:center; font-family: BACS1; font-size:1000%;"">g</p>","90","RSVPtraining","","2nd","","true","","",""
"","html-keyboard-response","192","304876","0.0-6.0-1.0-2.9","tt73e0bxfc","red","null","","","","","","<p style=""font-size:300%;"">Correct!</p>","null","","","","","","","",""
"","html-keyboard-response","193","307960","0.0-6.0-2.0","tt73e0bxfc","red","2077.3300000000745","","","","","","<p>You have now finished the training exercise. If you would like to repeat the instructions and training exercise, press r to repeat this trial or press c if you would like to continue.</p>","67","","","","","","","",""
"","html-keyboard-response","194","309962","0.0-7.0-0.0","tt73e0bxfc","red","null","","","","","","<p>Place your fingers on the z and m keys. The experiment will continue shortly.</p><p>&nbsp</p>","null","","","","","","","",""
"","html-keyboard-response","195","310966","0.0-7.0-1.0","tt73e0bxfc","red","null","","","","","","<p>Place your fingers on the z and m keys. The experiment will continue shortly.</p><p>3</p>","null","","","","","","","",""
"","html-keyboard-response","196","311969","0.0-7.0-2.0","tt73e0bxfc","red","null","","","","","","<p>Place your fingers on the z and m keys. The experiment will continue shortly.</p><p>2</p>","null","","","","","","","",""
"","html-keyboard-response","197","312974","0.0-7.0-3.0","tt73e0bxfc","red","null","","","","","","<p>Place your fingers on the z and m keys. The experiment will continue shortly.</p><p>1</p>","null","","","","","","","",""
"","html-keyboard-response","198","313472","0.0-8.0-0.0","tt73e0bxfc","red","null","","","","","","<svg viewBox=""0 0 100 100"" > <path d=""M 50 52 L 50 48"" stroke=""black"" stroke-width="".5""/> <path d=""M 52 50 L 48 50"" stroke=""black"" stroke-width="".5""/>","null","","","","","","","",""
"","html-keyboard-response","199","313976","0.0-8.0-1.0-0.0","tt73e0bxfc","red","null","","","","","","<p style=""color: black; text-align:center; font-family: BACS1; font-size:1000%;"">F</p>","null","","","","","","","",""
"","html-keyboard-response","200","314482","0.0-8.0-1.0-1.0","tt73e0bxfc","red","null","","","","","","<p style=""color: green; text-align:center; font-family: BACS2; font-size:1000%;"">Y</p>","null","","","","","","","",""
"","html-keyboard-response","201","314984","0.0-8.0-1.0-2.0","tt73e0bxfc","red","null","","","","","","<p style=""color: black; text-align:center; font-family: BACS2; font-size:1000%;"">I</p>","null","","","","","","","",""
"","html-keyboard-response","202","315488","0.0-8.0-1.0-3.0","tt73e0bxfc","red","null","","","","","","<svg xmlns=""http://www.w3.org/2000/svg"" width=""500"" height=""500"" viewBox=""-5 -5 20 20""> <rect x=""0"" y=""0"" width=""10"" height=""10"" /><path fill=""#FFF"" d=""M 0,1 H 10 v 1 H 0 z m 0,2 H 10 v 1 H 0 zm 0,2 H 10 v 1 H 0 zm 0,2 H 10 v 1 H 0 zm 0,2 H 10 v 1 H 0 zM 1,0 V 10 h 1 V 0 zm 2,0 V 10 h 1 V 0 zm 2,0 V 10 h 1 V 0 zm 2,0 V 10 h 1 V 0 zm 2,0 V 10 h 1 V 0 z""/></svg>","null","","","","","","","",""
"","html-keyboard-response","203","316205","0.0-8.0-1.0-4.0","tt73e0bxfc","red","715.8099999651313","","","","","","<p style=""color: black; text-align:center; font-family: BACS1; font-size:1000%;"">B</p>","77","RSVPtest","green","new","","true","","","2nd"
"","html-keyboard-response","204","317712","0.0-8.0-2.0","tt73e0bxfc","red","null","","","","","","<p style=""font-size:300%;"">Correct!</p>","null","","","","","","","",""
"","html-keyboard-response","205","319218","0.0-8.0-0.1","tt73e0bxfc","red","null","","","","","","<svg viewBox=""0 0 100 100"" > <path d=""M 50 52 L 50 48"" stroke=""black"" stroke-width="".5""/> <path d=""M 52 50 L 48 50"" stroke=""black"" stroke-width="".5""/>","null","","","","","","","",""
"","html-keyboard-response","206","319725","0.0-8.0-1.1-0.1","tt73e0bxfc","red","null","","","","","","<p style=""color: red; text-align:center; font-family: BACS1; font-size:1000%;"">E</p>","null","","","","","","","",""
"","html-keyboard-response","207","320231","0.0-8.0-1.1-1.1","tt73e0bxfc","red","null","","","","","","<p style=""color: black; text-align:center; font-family: BACS1; font-size:1000%;"">H</p>","null","","","","","","","",""
"","html-keyboard-response","208","320732","0.0-8.0-1.1-2.1","tt73e0bxfc","red","null","","","","","","<p style=""color: black; text-align:center; font-family: BACS1; font-size:1000%;"">K</p>","null","","","","","","","",""
"","html-keyboard-response","209","321237","0.0-8.0-1.1-3.1","tt73e0bxfc","red","null","","","","","","<svg xmlns=""http://www.w3.org/2000/svg"" width=""500"" height=""500"" viewBox=""-5 -5 20 20""> <rect x=""0"" y=""0"" width=""10"" height=""10"" /><path fill=""#FFF"" d=""M 0,1 H 10 v 1 H 0 z m 0,2 H 10 v 1 H 0 zm 0,2 H 10 v 1 H 0 zm 0,2 H 10 v 1 H 0 zm 0,2 H 10 v 1 H 0 zM 1,0 V 10 h 1 V 0 zm 2,0 V 10 h 1 V 0 zm 2,0 V 10 h 1 V 0 zm 2,0 V 10 h 1 V 0 zm 2,0 V 10 h 1 V 0 z""/></svg>","null","","","","","","","",""
"","html-keyboard-response","210","322087","0.0-8.0-1.1-4.1","tt73e0bxfc","red","847.9250001255423","","","","","","<p style=""color: black; text-align:center; font-family: BACS1; font-size:1000%;"">K</p>","90","RSVPtest","red","3rd","","true","","","1st"
"","html-keyboard-response","211","323593","0.0-8.0-2.1","tt73e0bxfc","red","null","","","","","","<p style=""font-size:300%;"">Correct!</p>","null","","","","","","","",""
"","html-keyboard-response","212","325098","0.0-8.0-0.2","tt73e0bxfc","red","null","","","","","","<svg viewBox=""0 0 100 100"" > <path d=""M 50 52 L 50 48"" stroke=""black"" stroke-width="".5""/> <path d=""M 52 50 L 48 50"" stroke=""black"" stroke-width="".5""/>","null","","","","","","","",""
"","html-keyboard-response","213","325605","0.0-8.0-1.2-0.2","tt73e0bxfc","red","null","","","","","","<p style=""color: black; text-align:center; font-family: BACS1; font-size:1000%;"">s</p>","null","","","","","","","",""
"","html-keyboard-response","214","326111","0.0-8.0-1.2-1.2","tt73e0bxfc","red","null","","","","","","<p style=""color: black; text-align:center; font-family: BACS1; font-size:1000%;"">l</p>","null","","","","","","","",""
"","html-keyboard-response","215","326613","0.0-8.0-1.2-2.2","tt73e0bxfc","red","null","","","","","","<p style=""color: black; text-align:center; font-family: BACS1; font-size:1000%;"">D</p>","null","","","","","","","",""
"","html-keyboard-response","216","327118","0.0-8.0-1.2-3.2","tt73e0bxfc","red","null","","","","","","<svg xmlns=""http://www.w3.org/2000/svg"" width=""500"" height=""500"" viewBox=""-5 -5 20 20""> <rect x=""0"" y=""0"" width=""10"" height=""10"" /><path fill=""#FFF"" d=""M 0,1 H 10 v 1 H 0 z m 0,2 H 10 v 1 H 0 zm 0,2 H 10 v 1 H 0 zm 0,2 H 10 v 1 H 0 zm 0,2 H 10 v 1 H 0 zM 1,0 V 10 h 1 V 0 zm 2,0 V 10 h 1 V 0 zm 2,0 V 10 h 1 V 0 zm 2,0 V 10 h 1 V 0 zm 2,0 V 10 h 1 V 0 z""/></svg>","null","","","","","","","",""
"","html-keyboard-response","217","327967","0.0-8.0-1.2-4.2","tt73e0bxfc","red","847.499999916181","","","","","","<p style=""color: black; text-align:center; font-family: BACS1; font-size:1000%;"">l</p>","90","RSVPtest","green","2nd","","true","","","none"
"","html-keyboard-response","218","329473","0.0-8.0-2.2","tt73e0bxfc","red","null","","","","","","<p style=""font-size:300%;"">Correct!</p>","null","","","","","","","",""
"","html-keyboard-response","219","330978","0.0-8.0-0.3","tt73e0bxfc","red","null","","","","","","<svg viewBox=""0 0 100 100"" > <path d=""M 50 52 L 50 48"" stroke=""black"" stroke-width="".5""/> <path d=""M 52 50 L 48 50"" stroke=""black"" stroke-width="".5""/>","null","","","","","","","",""
"","html-keyboard-response","220","331485","0.0-8.0-1.3-0.3","tt73e0bxfc","red","null","","","","","","<p style=""color: green; text-align:center; font-family: BACS2; font-size:1000%;"">L</p>","null","","","","","","","",""
"","html-keyboard-response","221","331991","0.0-8.0-1.3-1.3","tt73e0bxfc","red","null","","","","","","<p style=""color: black; text-align:center; font-family: BACS2; font-size:1000%;"">t</p>","null","","","","","","","",""
"","html-keyboard-response","222","332493","0.0-8.0-1.3-2.3","tt73e0bxfc","red","null","","","","","","<p style=""color: black; text-align:center; font-family: BACS2; font-size:1000%;"">N</p>","null","","","","","","","",""
"","html-keyboard-response","223","333000","0.0-8.0-1.3-3.3","tt73e0bxfc","red","null","","","","","","<svg xmlns=""http://www.w3.org/2000/svg"" width=""500"" height=""500"" viewBox=""-5 -5 20 20""> <rect x=""0"" y=""0"" width=""10"" height=""10"" /><path fill=""#FFF"" d=""M 0,1 H 10 v 1 H 0 z m 0,2 H 10 v 1 H 0 zm 0,2 H 10 v 1 H 0 zm 0,2 H 10 v 1 H 0 zm 0,2 H 10 v 1 H 0 zM 1,0 V 10 h 1 V 0 zm 2,0 V 10 h 1 V 0 zm 2,0 V 10 h 1 V 0 zm 2,0 V 10 h 1 V 0 zm 2,0 V 10 h 1 V 0 z""/></svg>","null","","","","","","","",""
"","html-keyboard-response","224","333780","0.0-8.0-1.3-4.3","tt73e0bxfc","red","779.2350000236183","","","","","","<p style=""color: black; text-align:center; font-family: BACS2; font-size:1000%;"">t</p>","90","RSVPtest","green","2nd","","true","","","1st"
"","html-keyboard-response","225","335287","0.0-8.0-2.3","tt73e0bxfc","red","null","","","","","","<p style=""font-size:300%;"">Correct!</p>","null","","","","","","","",""
"","html-keyboard-response","226","336793","0.0-8.0-0.4","tt73e0bxfc","red","null","","","","","","<svg viewBox=""0 0 100 100"" > <path d=""M 50 52 L 50 48"" stroke=""black"" stroke-width="".5""/> <path d=""M 52 50 L 48 50"" stroke=""black"" stroke-width="".5""/>","null","","","","","","","",""
"","html-keyboard-response","227","337300","0.0-8.0-1.4-0.4","tt73e0bxfc","red","null","","","","","","<p style=""color: green; text-align:center; font-family: BACS2; font-size:1000%;"">Q</p>","null","","","","","","","",""
"","html-keyboard-response","228","337805","0.0-8.0-1.4-1.4","tt73e0bxfc","red","null","","","","","","<p style=""color: black; text-align:center; font-family: BACS2; font-size:1000%;"">O</p>","null","","","","","","","",""
