"success","trial_type","trial_index","time_elapsed","internal_node_id","subject","condition","view_history","rt","stimulus","response","trialType","tgtCol","tgtPos","tgtDir","correct","rwdType","reward","value","colPos","question_order"
"true","fullscreen","0","2910","0.0-0.0","tex","[""g""]","","","","","","","","","","","","","",""
"","instructions","1","304459","0.0-1.0-0.0","tex","[""g""]","[{""page_index"":0,""viewing_time"":217321.69999980927},{""page_index"":1,""viewing_time"":29687.800000190735},{""page_index"":2,""viewing_time"":10800},{""page_index"":3,""viewing_time"":2119.899999856949},{""page_index"":4,""viewing_time"":6903.900000095367},{""page_index"":5,""viewing_time"":3976.2000000476837},{""page_index"":4,""viewing_time"":527.7999999523163},{""page_index"":3,""viewing_time"":1208.0999999046326},{""page_index"":4,""viewing_time"":799.9000000953674},{""page_index"":5,""viewing_time"":832.0999999046326},{""page_index"":6,""viewing_time"":4591.900000095367},{""page_index"":7,""viewing_time"":3152},{""page_index"":8,""viewing_time"":1936},{""page_index"":9,""viewing_time"":17688}]","301546.09999990463","","","","","","","","","","","",""
"","html-keyboard-response","2","307461","0.0-1.0-1.0-0.0","tex","[""g""]","","null","<p>Place your fingers on the <b>z</b> and <b>m</b> keys. The experiment will begin shortly.</p> <p></p>","null","","","","","","","","","",""
"","html-keyboard-response","3","308464","0.0-1.0-1.0-1.0","tex","[""g""]","","null","<p>Place your fingers on the <b>z</b> and <b>m</b> keys. </b>The experiment will begin shortly.</p><p>5</p>","null","","","","","","","","","",""
"","html-keyboard-response","4","309466","0.0-1.0-1.0-2.0","tex","[""g""]","","null","<p>Place your fingers on the <b>z</b> and <b>m</b> keys. </b>The experiment will begin shortly.</p><p>4</p>","null","","","","","","","","","",""
"","html-keyboard-response","5","310469","0.0-1.0-1.0-3.0","tex","[""g""]","","null","<p>Place your fingers on the <b>z</b> and <b>m</b> keys. </b>The experiment will begin shortly.</p><p>3</p>","null","","","","","","","","","",""
"","html-keyboard-response","6","311471","0.0-1.0-1.0-4.0","tex","[""g""]","","null","<p>Place your fingers on the <b>z</b> and <b>m</b> keys. </b>The experiment will begin shortly.</p><p>2</p>","null","","","","","","","","","",""
"","html-keyboard-response","7","312475","0.0-1.0-1.0-5.0","tex","[""g""]","","null","<p>Place your fingers on the <b>z</b> and <b>m</b> keys. </b>The experiment will begin shortly.</p><p>1</p>","null","","","","","","","","","",""
"","html-keyboard-response","8","312910","0.0-1.0-2.0-0.0","tex","[""g""]","","null","<svg viewBox=""0 0 100 100"" > <path d=""M 50 52 L 50 48"" stroke=""black"" stroke-width="".5""/> <path d=""M 52 50 L 48 50"" stroke=""black"" stroke-width="".5""/>","null","","","","","","","","","",""
"","html-keyboard-response","9","313654","0.0-1.0-2.0-1.0","tex","[""g""]","","739.1000001430511","[""<svg viewBox=\""0 0 100 100\"" >"",""<text font-size=\""10%\"" text-anchor=\""middle\""  x=\""50\"" y=\""98\"">Press z for horizontal or m for vertical</text>"",""<path d=\""M 50 52 L 50 48\"" stroke=\""black\"" stroke-width=\"".5\""/> <path d=\""M 52 50 L 48 50\"" stroke=\""black\"" stroke-width=\"".5\""/>"",""<circle cx=\""50\"" cy=\""50\"" r=\""10\"" fill=\""none\"" transform=\""translate(26 15)\"" stroke=\""magenta\"" /><path d=\""M 50 57 L 50 43\"" stroke=\""black\"" transform=\""translate(26 15) rotate(-45 50 50)\""/>"",""<circle cx=\""50\"" cy=\""50\"" r=\""10\"" fill=\""none\"" transform=\""translate(0 30)\"" stroke=\""yellow\"" /><path d=\""M 50 57 L 50 43\"" stroke=\""black\"" transform=\""translate(0 30) rotate(45 50 50)\""/>"",""<circle cx=\""50\"" cy=\""50\"" r=\""10\"" fill=\""none\"" transform=\""translate(-26 15)\"" stroke=\""cyan\"" /><path d=\""M 50 57 L 50 43\"" stroke=\""black\"" transform=\""translate(-26 15) rotate(45 50 50)\""/>"",""<circle cx=\""50\"" cy=\""50\"" r=\""10\"" fill=\""none\"" transform=\""translate(-26 -15)\"" stroke=\""lime\"" /><path d=\""M 50 57 L 50 43\"" stroke=\""black\"" transform=\""translate(-26 -15) rotate(90 50 50)\""/>"",""<circle cx=\""50\"" cy=\""50\"" r=\""10\"" fill=\""none\"" transform=\""translate(0 -30)\"" stroke=\""black\"" /><path d=\""M 50 57 L 50 43\"" stroke=\""black\"" transform=\""translate(0 -30) rotate(45 50 50)\""/>"",""<circle cx=\""50\"" cy=\""50\"" r=\""10\"" fill=\""none\"" transform=\""translate(26 -15)\"" stroke=\""blue\"" /><path d=\""M 50 57 L 50 43\"" stroke=\""black\"" transform=\""translate(26 -15) rotate(-45 50 50)\""/>"",""</svg>""]","z","VDACtrain","g","3","h","true","high","","","",""
"","html-keyboard-response","10","316157","0.0-1.0-2.0-2.0","tex","[""g""]","","null","<p style=""font-size:300%;"">Correct!</p>","null","","","","","","","","","",""
"","html-keyboard-response","11","317594","0.0-1.0-2.0-0.1","tex","[""g""]","","null","<svg viewBox=""0 0 100 100"" > <path d=""M 50 52 L 50 48"" stroke=""black"" stroke-width="".5""/> <path d=""M 52 50 L 48 50"" stroke=""black"" stroke-width="".5""/>","null","","","","","","","","","",""
"","html-keyboard-response","12","318400","0.0-1.0-2.0-1.1","tex","[""g""]","","802.8999998569489","[""<svg viewBox=\""0 0 100 100\"" >"",""<text font-size=\""10%\"" text-anchor=\""middle\""  x=\""50\"" y=\""98\"">Press z for horizontal or m for vertical</text>"",""<path d=\""M 50 52 L 50 48\"" stroke=\""black\"" stroke-width=\"".5\""/> <path d=\""M 52 50 L 48 50\"" stroke=\""black\"" stroke-width=\"".5\""/>"",""<circle cx=\""50\"" cy=\""50\"" r=\""10\"" fill=\""none\"" transform=\""translate(26 15)\"" stroke=\""lime\"" /><path d=\""M 50 57 L 50 43\"" stroke=\""black\"" transform=\""translate(26 15) rotate(0 50 50)\""/>"",""<circle cx=\""50\"" cy=\""50\"" r=\""10\"" fill=\""none\"" transform=\""translate(0 30)\"" stroke=\""black\"" /><path d=\""M 50 57 L 50 43\"" stroke=\""black\"" transform=\""translate(0 30) rotate(45 50 50)\""/>"",""<circle cx=\""50\"" cy=\""50\"" r=\""10\"" fill=\""none\"" transform=\""translate(-26 15)\"" stroke=\""cyan\"" /><path d=\""M 50 57 L 50 43\"" stroke=\""black\"" transform=\""translate(-26 15) rotate(45 50 50)\""/>"",""<circle cx=\""50\"" cy=\""50\"" r=\""10\"" fill=\""none\"" transform=\""translate(-26 -15)\"" stroke=\""magenta\"" /><path d=\""M 50 57 L 50 43\"" stroke=\""black\"" transform=\""translate(-26 -15) rotate(-45 50 50)\""/>"",""<circle cx=\""50\"" cy=\""50\"" r=\""10\"" fill=\""none\"" transform=\""translate(0 -30)\"" stroke=\""blue\"" /><path d=\""M 50 57 L 50 43\"" stroke=\""black\"" transform=\""translate(0 -30) rotate(45 50 50)\""/>"",""<circle cx=\""50\"" cy=\""50\"" r=\""10\"" fill=\""none\"" transform=\""translate(26 -15)\"" stroke=\""yellow\"" /><path d=\""M 50 57 L 50 43\"" stroke=\""black\"" transform=\""translate(26 -15) rotate(-45 50 50)\""/>"",""</svg>""]","m","VDACtrain","g","0","v","true","high","","","",""
"","html-keyboard-response","13","320902","0.0-1.0-2.0-2.1","tex","[""g""]","","null","<p style=""font-size:300%;"">Correct!</p>","null","","","","","","","","","",""
"","html-keyboard-response","14","322339","0.0-1.0-2.0-0.2","tex","[""g""]","","null","<svg viewBox=""0 0 100 100"" > <path d=""M 50 52 L 50 48"" stroke=""black"" stroke-width="".5""/> <path d=""M 52 50 L 48 50"" stroke=""black"" stroke-width="".5""/>","null","","","","","","","","","",""
"","html-keyboard-response","15","323342","0.0-1.0-2.0-1.2","tex","[""g""]","","null","[""<svg viewBox=\""0 0 100 100\"" >"",""<text font-size=\""10%\"" text-anchor=\""middle\""  x=\""50\"" y=\""98\"">Press z for horizontal or m for vertical</text>"",""<path d=\""M 50 52 L 50 48\"" stroke=\""black\"" stroke-width=\"".5\""/> <path d=\""M 52 50 L 48 50\"" stroke=\""black\"" stroke-width=\"".5\""/>"",""<circle cx=\""50\"" cy=\""50\"" r=\""10\"" fill=\""none\"" transform=\""translate(26 15)\"" stroke=\""cyan\"" /><path d=\""M 50 57 L 50 43\"" stroke=\""black\"" transform=\""translate(26 15) rotate(45 50 50)\""/>"",""<circle cx=\""50\"" cy=\""50\"" r=\""10\"" fill=\""none\"" transform=\""translate(0 30)\"" stroke=\""black\"" /><path d=\""M 50 57 L 50 43\"" stroke=\""black\"" transform=\""translate(0 30) rotate(-45 50 50)\""/>"",""<circle cx=\""50\"" cy=\""50\"" r=\""10\"" fill=\""none\"" transform=\""translate(-26 15)\"" stroke=\""blue\"" /><path d=\""M 50 57 L 50 43\"" stroke=\""black\"" transform=\""translate(-26 15) rotate(-45 50 50)\""/>"",""<circle cx=\""50\"" cy=\""50\"" r=\""10\"" fill=\""none\"" transform=\""translate(-26 -15)\"" stroke=\""yellow\"" /><path d=\""M 50 57 L 50 43\"" stroke=\""black\"" transform=\""translate(-26 -15) rotate(-45 50 50)\""/>"",""<circle cx=\""50\"" cy=\""50\"" r=\""10\"" fill=\""none\"" transform=\""translate(0 -30)\"" stroke=\""red\"" /><path d=\""M 50 57 L 50 43\"" stroke=\""black\"" transform=\""translate(0 -30) rotate(0 50 50)\""/>"",""<circle cx=\""50\"" cy=\""50\"" r=\""10\"" fill=\""none\"" transform=\""translate(26 -15)\"" stroke=\""magenta\"" /><path d=\""M 50 57 L 50 43\"" stroke=\""black\"" transform=\""translate(26 -15) rotate(45 50 50)\""/>"",""</svg>""]","null","VDACtrain","r","4","v","null","low","","","",""
"","html-keyboard-response","16","325846","0.0-1.0-2.0-2.2","tex","[""g""]","","null","<p style=""font-size:300%;"">Miss.</p> <p style=""font-size:300%;"">Too slow.</p>","null","","","","","","","","","",""
"","html-keyboard-response","17","327282","0.0-1.0-2.0-0.3","tex","[""g""]","","null","<svg viewBox=""0 0 100 100"" > <path d=""M 50 52 L 50 48"" stroke=""black"" stroke-width="".5""/> <path d=""M 52 50 L 48 50"" stroke=""black"" stroke-width="".5""/>","null","","","","","","","","","",""
"","html-keyboard-response","18","327992","0.0-1.0-2.0-1.3","tex","[""g""]","","705.7000000476837","[""<svg viewBox=\""0 0 100 100\"" >"",""<text font-size=\""10%\"" text-anchor=\""middle\""  x=\""50\"" y=\""98\"">Press z for horizontal or m for vertical</text>"",""<path d=\""M 50 52 L 50 48\"" stroke=\""black\"" stroke-width=\"".5\""/> <path d=\""M 52 50 L 48 50\"" stroke=\""black\"" stroke-width=\"".5\""/>"",""<circle cx=\""50\"" cy=\""50\"" r=\""10\"" fill=\""none\"" transform=\""translate(26 15)\"" stroke=\""magenta\"" /><path d=\""M 50 57 L 50 43\"" stroke=\""black\"" transform=\""translate(26 15) rotate(45 50 50)\""/>"",""<circle cx=\""50\"" cy=\""50\"" r=\""10\"" fill=\""none\"" transform=\""translate(0 30)\"" stroke=\""yellow\"" /><path d=\""M 50 57 L 50 43\"" stroke=\""black\"" transform=\""translate(0 30) rotate(45 50 50)\""/>"",""<circle cx=\""50\"" cy=\""50\"" r=\""10\"" fill=\""none\"" transform=\""translate(-26 15)\"" stroke=\""black\"" /><path d=\""M 50 57 L 50 43\"" stroke=\""black\"" transform=\""translate(-26 15) rotate(45 50 50)\""/>"",""<circle cx=\""50\"" cy=\""50\"" r=\""10\"" fill=\""none\"" transform=\""translate(-26 -15)\"" stroke=\""blue\"" /><path d=\""M 50 57 L 50 43\"" stroke=\""black\"" transform=\""translate(-26 -15) rotate(-45 50 50)\""/>"",""<circle cx=\""50\"" cy=\""50\"" r=\""10\"" fill=\""none\"" transform=\""translate(0 -30)\"" stroke=\""cyan\"" /><path d=\""M 50 57 L 50 43\"" stroke=\""black\"" transform=\""translate(0 -30) rotate(-45 50 50)\""/>"",""<circle cx=\""50\"" cy=\""50\"" r=\""10\"" fill=\""none\"" transform=\""translate(26 -15)\"" stroke=\""lime\"" /><path d=\""M 50 57 L 50 43\"" stroke=\""black\"" transform=\""translate(26 -15) rotate(90 50 50)\""/>"",""</svg>""]","z","VDACtrain","g","5","h","true","high","","","",""
"","html-keyboard-response","19","330494","0.0-1.0-2.0-2.3","tex","[""g""]","","null","<p style=""font-size:300%;"">Correct!</p>","null","","","","","","","","","",""
"","html-keyboard-response","20","331930","0.0-1.0-2.0-0.4","tex","[""g""]","","null","<svg viewBox=""0 0 100 100"" > <path d=""M 50 52 L 50 48"" stroke=""black"" stroke-width="".5""/> <path d=""M 52 50 L 48 50"" stroke=""black"" stroke-width="".5""/>","null","","","","","","","","","",""
"","html-keyboard-response","21","332424","0.0-1.0-2.0-1.4","tex","[""g""]","","489.69999980926514","[""<svg viewBox=\""0 0 100 100\"" >"",""<text font-size=\""10%\"" text-anchor=\""middle\""  x=\""50\"" y=\""98\"">Press z for horizontal or m for vertical</text>"",""<path d=\""M 50 52 L 50 48\"" stroke=\""black\"" stroke-width=\"".5\""/> <path d=\""M 52 50 L 48 50\"" stroke=\""black\"" stroke-width=\"".5\""/>"",""<circle cx=\""50\"" cy=\""50\"" r=\""10\"" fill=\""none\"" transform=\""translate(26 15)\"" stroke=\""red\"" /><path d=\""M 50 57 L 50 43\"" stroke=\""black\"" transform=\""translate(26 15) rotate(90 50 50)\""/>"",""<circle cx=\""50\"" cy=\""50\"" r=\""10\"" fill=\""none\"" transform=\""translate(0 30)\"" stroke=\""yellow\"" /><path d=\""M 50 57 L 50 43\"" stroke=\""black\"" transform=\""translate(0 30) rotate(-45 50 50)\""/>"",""<circle cx=\""50\"" cy=\""50\"" r=\""10\"" fill=\""none\"" transform=\""translate(-26 15)\"" stroke=\""black\"" /><path d=\""M 50 57 L 50 43\"" stroke=\""black\"" transform=\""translate(-26 15) rotate(45 50 50)\""/>"",""<circle cx=\""50\"" cy=\""50\"" r=\""10\"" fill=\""none\"" transform=\""translate(-26 -15)\"" stroke=\""cyan\"" /><path d=\""M 50 57 L 50 43\"" stroke=\""black\"" transform=\""translate(-26 -15) rotate(45 50 50)\""/>"",""<circle cx=\""50\"" cy=\""50\"" r=\""10\"" fill=\""none\"" transform=\""translate(0 -30)\"" stroke=\""blue\"" /><path d=\""M 50 57 L 50 43\"" stroke=\""black\"" transform=\""translate(0 -30) rotate(45 50 50)\""/>"",""<circle cx=\""50\"" cy=\""50\"" r=\""10\"" fill=\""none\"" transform=\""translate(26 -15)\"" stroke=\""magenta\"" /><path d=\""M 50 57 L 50 43\"" stroke=\""black\"" transform=\""translate(26 -15) rotate(-45 50 50)\""/>"",""</svg>""]","m","VDACtrain","r","0","h","false","low","","","",""
"","html-keyboard-response","22","334927","0.0-1.0-2.0-2.4","tex","[""g""]","","null","<p style=""font-size:300%;"">Miss.</p> <p style=""font-size:300%;"">Wrong response.</p>","null","","","","","","","","","",""
"","html-keyboard-response","23","336364","0.0-1.0-2.0-0.5","tex","[""g""]","","null","<svg viewBox=""0 0 100 100"" > <path d=""M 50 52 L 50 48"" stroke=""black"" stroke-width="".5""/> <path d=""M 52 50 L 48 50"" stroke=""black"" stroke-width="".5""/>","null","","","","","","","","","",""
"","html-keyboard-response","24","337328","0.0-1.0-2.0-1.5","tex","[""g""]","","959.7000000476837","[""<svg viewBox=\""0 0 100 100\"" >"",""<text font-size=\""10%\"" text-anchor=\""middle\""  x=\""50\"" y=\""98\"">Press z for horizontal or m for vertical</text>"",""<path d=\""M 50 52 L 50 48\"" stroke=\""black\"" stroke-width=\"".5\""/> <path d=\""M 52 50 L 48 50\"" stroke=\""black\"" stroke-width=\"".5\""/>"",""<circle cx=\""50\"" cy=\""50\"" r=\""10\"" fill=\""none\"" transform=\""translate(26 15)\"" stroke=\""cyan\"" /><path d=\""M 50 57 L 50 43\"" stroke=\""black\"" transform=\""translate(26 15) rotate(-45 50 50)\""/>"",""<circle cx=\""50\"" cy=\""50\"" r=\""10\"" fill=\""none\"" transform=\""translate(0 30)\"" stroke=\""magenta\"" /><path d=\""M 50 57 L 50 43\"" stroke=\""black\"" transform=\""translate(0 30) rotate(45 50 50)\""/>"",""<circle cx=\""50\"" cy=\""50\"" r=\""10\"" fill=\""none\"" transform=\""translate(-26 15)\"" stroke=\""red\"" /><path d=\""M 50 57 L 50 43\"" stroke=\""black\"" transform=\""translate(-26 15) rotate(90 50 50)\""/>"",""<circle cx=\""50\"" cy=\""50\"" r=\""10\"" fill=\""none\"" transform=\""translate(-26 -15)\"" stroke=\""black\"" /><path d=\""M 50 57 L 50 43\"" stroke=\""black\"" transform=\""translate(-26 -15) rotate(45 50 50)\""/>"",""<circle cx=\""50\"" cy=\""50\"" r=\""10\"" fill=\""none\"" transform=\""translate(0 -30)\"" stroke=\""blue\"" /><path d=\""M 50 57 L 50 43\"" stroke=\""black\"" transform=\""translate(0 -30) rotate(45 50 50)\""/>"",""<circle cx=\""50\"" cy=\""50\"" r=\""10\"" fill=\""none\"" transform=\""translate(26 -15)\"" stroke=\""yellow\"" /><path d=\""M 50 57 L 50 43\"" stroke=\""black\"" transform=\""translate(26 -15) rotate(-45 50 50)\""/>"",""</svg>""]","m","VDACtrain","r","2","h","false","low","","","",""
"","html-keyboard-response","25","339830","0.0-1.0-2.0-2.5","tex","[""g""]","","null","<p style=""font-size:300%;"">Miss.</p> <p style=""font-size:300%;"">Wrong response.</p>","null","","","","","","","","","",""
"","html-keyboard-response","26","341265","0.0-1.0-2.0-0.6","tex","[""g""]","","null","<svg viewBox=""0 0 100 100"" > <path d=""M 50 52 L 50 48"" stroke=""black"" stroke-width="".5""/> <path d=""M 52 50 L 48 50"" stroke=""black"" stroke-width="".5""/>","null","","","","","","","","","",""
"","html-keyboard-response","27","342023","0.0-1.0-2.0-1.6","tex","[""g""]","","753.7999999523163","[""<svg viewBox=\""0 0 100 100\"" >"",""<text font-size=\""10%\"" text-anchor=\""middle\""  x=\""50\"" y=\""98\"">Press z for horizontal or m for vertical</text>"",""<path d=\""M 50 52 L 50 48\"" stroke=\""black\"" stroke-width=\"".5\""/> <path d=\""M 52 50 L 48 50\"" stroke=\""black\"" stroke-width=\"".5\""/>"",""<circle cx=\""50\"" cy=\""50\"" r=\""10\"" fill=\""none\"" transform=\""translate(26 15)\"" stroke=\""magenta\"" /><path d=\""M 50 57 L 50 43\"" stroke=\""black\"" transform=\""translate(26 15) rotate(-45 50 50)\""/>"",""<circle cx=\""50\"" cy=\""50\"" r=\""10\"" fill=\""none\"" transform=\""translate(0 30)\"" stroke=\""blue\"" /><path d=\""M 50 57 L 50 43\"" stroke=\""black\"" transform=\""translate(0 30) rotate(45 50 50)\""/>"",""<circle cx=\""50\"" cy=\""50\"" r=\""10\"" fill=\""none\"" transform=\""translate(-26 15)\"" stroke=\""lime\"" /><path d=\""M 50 57 L 50 43\"" stroke=\""black\"" transform=\""translate(-26 15) rotate(0 50 50)\""/>"",""<circle cx=\""50\"" cy=\""50\"" r=\""10\"" fill=\""none\"" transform=\""translate(-26 -15)\"" stroke=\""yellow\"" /><path d=\""M 50 57 L 50 43\"" stroke=\""black\"" transform=\""translate(-26 -15) rotate(45 50 50)\""/>"",""<circle cx=\""50\"" cy=\""50\"" r=\""10\"" fill=\""none\"" transform=\""translate(0 -30)\"" stroke=\""cyan\"" /><path d=\""M 50 57 L 50 43\"" stroke=\""black\"" transform=\""translate(0 -30) rotate(45 50 50)\""/>"",""<circle cx=\""50\"" cy=\""50\"" r=\""10\"" fill=\""none\"" transform=\""translate(26 -15)\"" stroke=\""black\"" /><path d=\""M 50 57 L 50 43\"" stroke=\""black\"" transform=\""translate(26 -15) rotate(-45 50 50)\""/>"",""</svg>""]","m","VDACtrain","g","2","v","true","high","","","",""
"","html-keyboard-response","28","344526","0.0-1.0-2.0-2.6","tex","[""g""]","","null","<p style=""font-size:300%;"">Correct!</p>","null","","","","","","","","","",""
"","html-keyboard-response","29","345961","0.0-1.0-2.0-0.7","tex","[""g""]","","null","<svg viewBox=""0 0 100 100"" > <path d=""M 50 52 L 50 48"" stroke=""black"" stroke-width="".5""/> <path d=""M 52 50 L 48 50"" stroke=""black"" stroke-width="".5""/>","null","","","","","","","","","",""
"","html-keyboard-response","30","346736","0.0-1.0-2.0-1.7","tex","[""g""]","","770.8999998569489","[""<svg viewBox=\""0 0 100 100\"" >"",""<text font-size=\""10%\"" text-anchor=\""middle\""  x=\""50\"" y=\""98\"">Press z for horizontal or m for vertical</text>"",""<path d=\""M 50 52 L 50 48\"" stroke=\""black\"" stroke-width=\"".5\""/> <path d=\""M 52 50 L 48 50\"" stroke=\""black\"" stroke-width=\"".5\""/>"",""<circle cx=\""50\"" cy=\""50\"" r=\""10\"" fill=\""none\"" transform=\""translate(26 15)\"" stroke=\""blue\"" /><path d=\""M 50 57 L 50 43\"" stroke=\""black\"" transform=\""translate(26 15) rotate(45 50 50)\""/>"",""<circle cx=\""50\"" cy=\""50\"" r=\""10\"" fill=\""none\"" transform=\""translate(0 30)\"" stroke=\""magenta\"" /><path d=\""M 50 57 L 50 43\"" stroke=\""black\"" transform=\""translate(0 30) rotate(-45 50 50)\""/>"",""<circle cx=\""50\"" cy=\""50\"" r=\""10\"" fill=\""none\"" transform=\""translate(-26 15)\"" stroke=\""yellow\"" /><path d=\""M 50 57 L 50 43\"" stroke=\""black\"" transform=\""translate(-26 15) rotate(45 50 50)\""/>"",""<circle cx=\""50\"" cy=\""50\"" r=\""10\"" fill=\""none\"" transform=\""translate(-26 -15)\"" stroke=\""black\"" /><path d=\""M 50 57 L 50 43\"" stroke=\""black\"" transform=\""translate(-26 -15) rotate(-45 50 50)\""/>"",""<circle cx=\""50\"" cy=\""50\"" r=\""10\"" fill=\""none\"" transform=\""translate(0 -30)\"" stroke=\""cyan\"" /><path d=\""M 50 57 L 50 43\"" stroke=\""black\"" transform=\""translate(0 -30) rotate(45 50 50)\""/>"",""<circle cx=\""50\"" cy=\""50\"" r=\""10\"" fill=\""none\"" transform=\""translate(26 -15)\"" stroke=\""lime\"" /><path d=\""M 50 57 L 50 43\"" stroke=\""black\"" transform=\""translate(26 -15) rotate(0 50 50)\""/>"",""</svg>""]","m","VDACtrain","g","5","v","true","high","","","",""
"","html-keyboard-response","31","349239","0.0-1.0-2.0-2.7","tex","[""g""]","","null","<p style=""font-size:300%;"">Correct!</p>","null","","","","","","","","","",""
"","html-keyboard-response","32","350675","0.0-1.0-2.0-0.8","tex","[""g""]","","null","<svg viewBox=""0 0 100 100"" > <path d=""M 50 52 L 50 48"" stroke=""black"" stroke-width="".5""/> <path d=""M 52 50 L 48 50"" stroke=""black"" stroke-width="".5""/>","null","","","","","","","","","",""
"","html-keyboard-response","33","351351","0.0-1.0-2.0-1.8","tex","[""g""]","","672.5999999046326","[""<svg viewBox=\""0 0 100 100\"" >"",""<text font-size=\""10%\"" text-anchor=\""middle\""  x=\""50\"" y=\""98\"">Press z for horizontal or m for vertical</text>"",""<path d=\""M 50 52 L 50 48\"" stroke=\""black\"" stroke-width=\"".5\""/> <path d=\""M 52 50 L 48 50\"" stroke=\""black\"" stroke-width=\"".5\""/>"",""<circle cx=\""50\"" cy=\""50\"" r=\""10\"" fill=\""none\"" transform=\""translate(26 15)\"" stroke=\""black\"" /><path d=\""M 50 57 L 50 43\"" stroke=\""black\"" transform=\""translate(26 15) rotate(-45 50 50)\""/>"",""<circle cx=\""50\"" cy=\""50\"" r=\""10\"" fill=\""none\"" transform=\""translate(0 30)\"" stroke=\""magenta\"" /><path d=\""M 50 57 L 50 43\"" stroke=\""black\"" transform=\""translate(0 30) rotate(-45 50 50)\""/>"",""<circle cx=\""50\"" cy=\""50\"" r=\""10\"" fill=\""none\"" transform=\""translate(-26 15)\"" stroke=\""cyan\"" /><path d=\""M 50 57 L 50 43\"" stroke=\""black\"" transform=\""translate(-26 15) rotate(-45 50 50)\""/>"",""<circle cx=\""50\"" cy=\""50\"" r=\""10\"" fill=\""none\"" transform=\""translate(-26 -15)\"" stroke=\""red\"" /><path d=\""M 50 57 L 50 43\"" stroke=\""black\"" transform=\""translate(-26 -15) rotate(0 50 50)\""/>"",""<circle cx=\""50\"" cy=\""50\"" r=\""10\"" fill=\""none\"" transform=\""translate(0 -30)\"" stroke=\""blue\"" /><path d=\""M 50 57 L 50 43\"" stroke=\""black\"" transform=\""translate(0 -30) rotate(45 50 50)\""/>"",""<circle cx=\""50\"" cy=\""50\"" r=\""10\"" fill=\""none\"" transform=\""translate(26 -15)\"" stroke=\""yellow\"" /><path d=\""M 50 57 L 50 43\"" stroke=\""black\"" transform=\""translate(26 -15) rotate(45 50 50)\""/>"",""</svg>""]","m","VDACtrain","r","3","v","true","low","","","",""
"","html-keyboard-response","34","353854","0.0-1.0-2.0-2.8","tex","[""g""]","","null","<p style=""font-size:300%;"">Correct!</p>","null","","","","","","","","","",""
"","html-keyboard-response","35","355290","0.0-1.0-2.0-0.9","tex","[""g""]","","null","<svg viewBox=""0 0 100 100"" > <path d=""M 50 52 L 50 48"" stroke=""black"" stroke-width="".5""/> <path d=""M 52 50 L 48 50"" stroke=""black"" stroke-width="".5""/>","null","","","","","","","","","",""
"","html-keyboard-response","36","355967","0.0-1.0-2.0-1.9","tex","[""g""]","","673.3999998569489","[""<svg viewBox=\""0 0 100 100\"" >"",""<text font-size=\""10%\"" text-anchor=\""middle\""  x=\""50\"" y=\""98\"">Press z for horizontal or m for vertical</text>"",""<path d=\""M 50 52 L 50 48\"" stroke=\""black\"" stroke-width=\"".5\""/> <path d=\""M 52 50 L 48 50\"" stroke=\""black\"" stroke-width=\"".5\""/>"",""<circle cx=\""50\"" cy=\""50\"" r=\""10\"" fill=\""none\"" transform=\""translate(26 15)\"" stroke=\""yellow\"" /><path d=\""M 50 57 L 50 43\"" stroke=\""black\"" transform=\""translate(26 15) rotate(45 50 50)\""/>"",""<circle cx=\""50\"" cy=\""50\"" r=\""10\"" fill=\""none\"" transform=\""translate(0 30)\"" stroke=\""red\"" /><path d=\""M 50 57 L 50 43\"" stroke=\""black\"" transform=\""translate(0 30) rotate(90 50 50)\""/>"",""<circle cx=\""50\"" cy=\""50\"" r=\""10\"" fill=\""none\"" transform=\""translate(-26 15)\"" stroke=\""blue\"" /><path d=\""M 50 57 L 50 43\"" stroke=\""black\"" transform=\""translate(-26 15) rotate(45 50 50)\""/>"",""<circle cx=\""50\"" cy=\""50\"" r=\""10\"" fill=\""none\"" transform=\""translate(-26 -15)\"" stroke=\""magenta\"" /><path d=\""M 50 57 L 50 43\"" stroke=\""black\"" transform=\""translate(-26 -15) rotate(-45 50 50)\""/>"",""<circle cx=\""50\"" cy=\""50\"" r=\""10\"" fill=\""none\"" transform=\""translate(0 -30)\"" stroke=\""black\"" /><path d=\""M 50 57 L 50 43\"" stroke=\""black\"" transform=\""translate(0 -30) rotate(45 50 50)\""/>"",""<circle cx=\""50\"" cy=\""50\"" r=\""10\"" fill=\""none\"" transform=\""translate(26 -15)\"" stroke=\""cyan\"" /><path d=\""M 50 57 L 50 43\"" stroke=\""black\"" transform=\""translate(26 -15) rotate(45 50 50)\""/>"",""</svg>""]","z","VDACtrain","r","1","h","true","low","","","",""
"","html-keyboard-response","37","358469","0.0-1.0-2.0-2.9","tex","[""g""]","","null","<p style=""font-size:300%;"">Correct!</p>","null","","","","","","","","","",""
"","html-keyboard-response","38","363199","0.0-1.0-3.0","tex","[""g""]","","3727.7999999523163","<p>You have now finished the training exercise. If you would like to repeat the instructions and training exercise, press <b>R</b>.<p>If you are ready to continue to the task, press <b>C</b>.</p>","c","","","","","","","","","",""
"","html-keyboard-response","39","366204","0.0-2.0-0.0","tex","[""g""]","","null","<p>Place your fingers on the <b>z</b> and <b>m</b> keys. The experiment will begin shortly.</p> <p></p>","null","","","","","","","","","",""
"","html-keyboard-response","40","367206","0.0-2.0-1.0","tex","[""g""]","","null","<p>Place your fingers on the <b>z</b> and <b>m</b> keys. </b>The experiment will begin shortly.</p><p>5</p>","null","","","","","","","","","",""
"","html-keyboard-response","41","368208","0.0-2.0-2.0","tex","[""g""]","","null","<p>Place your fingers on the <b>z</b> and <b>m</b> keys. </b>The experiment will begin shortly.</p><p>4</p>","null","","","","","","","","","",""
"","html-keyboard-response","42","369210","0.0-2.0-3.0","tex","[""g""]","","null","<p>Place your fingers on the <b>z</b> and <b>m</b> keys. </b>The experiment will begin shortly.</p><p>3</p>","null","","","","","","","","","",""
"","html-keyboard-response","43","370212","0.0-2.0-4.0","tex","[""g""]","","null","<p>Place your fingers on the <b>z</b> and <b>m</b> keys. </b>The experiment will begin shortly.</p><p>2</p>","null","","","","","","","","","",""
"","html-keyboard-response","44","371214","0.0-2.0-5.0","tex","[""g""]","","null","<p>Place your fingers on the <b>z</b> and <b>m</b> keys. </b>The experiment will begin shortly.</p><p>1</p>","null","","","","","","","","","",""
"","html-keyboard-response","45","371650","0.0-3.0-0.0","tex","[""g""]","","null","<svg viewBox=""0 0 100 100"" > <path d=""M 50 52 L 50 48"" stroke=""black"" stroke-width="".5""/> <path d=""M 52 50 L 48 50"" stroke=""black"" stroke-width="".5""/>","null","","","","","","","","","",""
"","html-keyboard-response","46","372591","0.0-3.0-1.0","tex","[""g""]","","937.2999999523163","[""<svg viewBox=\""0 0 100 100\"" >"",""<path d=\""M 50 52 L 50 48\"" stroke=\""black\"" stroke-width=\"".5\""/>"","" <path d=\""M 52 50 L 48 50\"" stroke=\""black\"" stroke-width=\"".5\""/>"",""<circle cx=\""50\"" cy=\""50\"" r=\""10\"" fill=\""none\"" transform=\""translate(26 15)\"" stroke=\""red\"" />"",""<path d=\""M 50 57 L 50 43\"" stroke=\""black\"" transform=\""translate(26 15) rotate(90 50 50)\""/>"",""<circle cx=\""50\"" cy=\""50\"" r=\""10\"" fill=\""none\"" transform=\""translate(0 30)\"" stroke=\""blue\"" />"",""<path d=\""M 50 57 L 50 43\"" stroke=\""black\"" transform=\""translate(0 30) rotate(45 50 50)\""/>"",""<circle cx=\""50\"" cy=\""50\"" r=\""10\"" fill=\""none\"" transform=\""translate(-26 15)\"" stroke=\""yellow\"" />"",""<path d=\""M 50 57 L 50 43\"" stroke=\""black\"" transform=\""translate(-26 15) rotate(-45 50 50)\""/>"",""<circle cx=\""50\"" cy=\""50\"" r=\""10\"" fill=\""none\"" transform=\""translate(-26 -15)\"" stroke=\""black\"" />"",""<path d=\""M 50 57 L 50 43\"" stroke=\""black\"" transform=\""translate(-26 -15) rotate(-45 50 50)\""/>"",""<circle cx=\""50\"" cy=\""50\"" r=\""10\"" fill=\""none\"" transform=\""translate(0 -30)\"" stroke=\""magenta\"" />"",""<path d=\""M 50 57 L 50 43\"" stroke=\""black\"" transform=\""translate(0 -30) rotate(45 50 50)\""/>"",""<circle cx=\""50\"" cy=\""50\"" r=\""10\"" fill=\""none\"" transform=\""translate(26 -15)\"" stroke=\""cyan\"" />"",""<path d=\""M 50 57 L 50 43\"" stroke=\""black\"" transform=\""translate(26 -15) rotate(-45 50 50)\""/>"",""</svg>""]","z","VDACtest","r","0","h","true","low","","","",""
"","html-keyboard-response","47","375095","0.0-3.0-2.0","tex","[""g""]","","null","<p style=""font-size:300%;""> + 2 points.</p><p style=""font-size:300%"">Total: 2 points.</p>","null","","","","","","","2","","",""
"","html-keyboard-response","48","376531","0.0-3.0-0.1","tex","[""g""]","","null","<svg viewBox=""0 0 100 100"" > <path d=""M 50 52 L 50 48"" stroke=""black"" stroke-width="".5""/> <path d=""M 52 50 L 48 50"" stroke=""black"" stroke-width="".5""/>","null","","","","","","","","","",""
"","html-keyboard-response","49","377112","0.0-3.0-1.1","tex","[""g""]","","577.4000000953674","[""<svg viewBox=\""0 0 100 100\"" >"",""<path d=\""M 50 52 L 50 48\"" stroke=\""black\"" stroke-width=\"".5\""/>"","" <path d=\""M 52 50 L 48 50\"" stroke=\""black\"" stroke-width=\"".5\""/>"",""<circle cx=\""50\"" cy=\""50\"" r=\""10\"" fill=\""none\"" transform=\""translate(26 15)\"" stroke=\""magenta\"" />"",""<path d=\""M 50 57 L 50 43\"" stroke=\""black\"" transform=\""translate(26 15) rotate(45 50 50)\""/>"",""<circle cx=\""50\"" cy=\""50\"" r=\""10\"" fill=\""none\"" transform=\""translate(0 30)\"" stroke=\""yellow\"" />"",""<path d=\""M 50 57 L 50 43\"" stroke=\""black\"" transform=\""translate(0 30) rotate(-45 50 50)\""/>"",""<circle cx=\""50\"" cy=\""50\"" r=\""10\"" fill=\""none\"" transform=\""translate(-26 15)\"" stroke=\""cyan\"" />"",""<path d=\""M 50 57 L 50 43\"" stroke=\""black\"" transform=\""translate(-26 15) rotate(-45 50 50)\""/>"",""<circle cx=\""50\"" cy=\""50\"" r=\""10\"" fill=\""none\"" transform=\""translate(-26 -15)\"" stroke=\""blue\"" />"",""<path d=\""M 50 57 L 50 43\"" stroke=\""black\"" transform=\""translate(-26 -15) rotate(-45 50 50)\""/>"",""<circle cx=\""50\"" cy=\""50\"" r=\""10\"" fill=\""none\"" transform=\""translate(0 -30)\"" stroke=\""lime\"" />"",""<path d=\""M 50 57 L 50 43\"" stroke=\""black\"" transform=\""translate(0 -30) rotate(0 50 50)\""/>"",""<circle cx=\""50\"" cy=\""50\"" r=\""10\"" fill=\""none\"" transform=\""translate(26 -15)\"" stroke=\""black\"" />"",""<path d=\""M 50 57 L 50 43\"" stroke=\""black\"" transform=\""translate(26 -15) rotate(45 50 50)\""/>"",""</svg>""]","m","VDACtest","g","4","v","true","high","","","",""
"","html-keyboard-response","50","379615","0.0-3.0-2.1","tex","[""g""]","","null","<p style=""font-size:300%;""> + 10 points.</p><p style=""font-size:300%"">Total: 12 points.</p>","null","","","","","","","12","","",""
"","html-keyboard-response","51","381051","0.0-3.0-0.2","tex","[""g""]","","null","<svg viewBox=""0 0 100 100"" > <path d=""M 50 52 L 50 48"" stroke=""black"" stroke-width="".5""/> <path d=""M 52 50 L 48 50"" stroke=""black"" stroke-width="".5""/>","null","","","","","","","","","",""
"","html-keyboard-response","52","382056","0.0-3.0-1.2","tex","[""g""]","","null","[""<svg viewBox=\""0 0 100 100\"" >"",""<path d=\""M 50 52 L 50 48\"" stroke=\""black\"" stroke-width=\"".5\""/>"","" <path d=\""M 52 50 L 48 50\"" stroke=\""black\"" stroke-width=\"".5\""/>"",""<circle cx=\""50\"" cy=\""50\"" r=\""10\"" fill=\""none\"" transform=\""translate(26 15)\"" stroke=\""blue\"" />"",""<path d=\""M 50 57 L 50 43\"" stroke=\""black\"" transform=\""translate(26 15) rotate(-45 50 50)\""/>"",""<circle cx=\""50\"" cy=\""50\"" r=\""10\"" fill=\""none\"" transform=\""translate(0 30)\"" stroke=\""black\"" />"",""<path d=\""M 50 57 L 50 43\"" stroke=\""black\"" transform=\""translate(0 30) rotate(-45 50 50)\""/>"",""<circle cx=\""50\"" cy=\""50\"" r=\""10\"" fill=\""none\"" transform=\""translate(-26 15)\"" stroke=\""lime\"" />"",""<path d=\""M 50 57 L 50 43\"" stroke=\""black\"" transform=\""translate(-26 15) rotate(90 50 50)\""/>"",""<circle cx=\""50\"" cy=\""50\"" r=\""10\"" fill=\""none\"" transform=\""translate(-26 -15)\"" stroke=\""yellow\"" />"",""<path d=\""M 50 57 L 50 43\"" stroke=\""black\"" transform=\""translate(-26 -15) rotate(-45 50 50)\""/>"",""<circle cx=\""50\"" cy=\""50\"" r=\""10\"" fill=\""none\"" transform=\""translate(0 -30)\"" stroke=\""cyan\"" />"",""<path d=\""M 50 57 L 50 43\"" stroke=\""black\"" transform=\""translate(0 -30) rotate(-45 50 50)\""/>"",""<circle cx=\""50\"" cy=\""50\"" r=\""10\"" fill=\""none\"" transform=\""translate(26 -15)\"" stroke=\""magenta\"" />"",""<path d=\""M 50 57 L 50 43\"" stroke=\""black\"" transform=\""translate(26 -15) rotate(-45 50 50)\""/>"",""</svg>""]","null","VDACtest","g","2","h","null","high","","","",""
"","html-keyboard-response","53","384560","0.0-3.0-2.2","tex","[""g""]","","null","<p style=""font-size:300%;"">Miss.</p><p style=""font-size:300%"">Total: 12 points.</p>","null","","","","","","","12","","",""
"","html-keyboard-response","54","385995","0.0-3.0-0.3","tex","[""g""]","","null","<svg viewBox=""0 0 100 100"" > <path d=""M 50 52 L 50 48"" stroke=""black"" stroke-width="".5""/> <path d=""M 52 50 L 48 50"" stroke=""black"" stroke-width="".5""/>","null","","","","","","","","","",""
"","html-keyboard-response","55","386655","0.0-3.0-1.3","tex","[""g""]","","655.7000000476837","[""<svg viewBox=\""0 0 100 100\"" >"",""<path d=\""M 50 52 L 50 48\"" stroke=\""black\"" stroke-width=\"".5\""/>"","" <path d=\""M 52 50 L 48 50\"" stroke=\""black\"" stroke-width=\"".5\""/>"",""<circle cx=\""50\"" cy=\""50\"" r=\""10\"" fill=\""none\"" transform=\""translate(26 15)\"" stroke=\""magenta\"" />"",""<path d=\""M 50 57 L 50 43\"" stroke=\""black\"" transform=\""translate(26 15) rotate(-45 50 50)\""/>"",""<circle cx=\""50\"" cy=\""50\"" r=\""10\"" fill=\""none\"" transform=\""translate(0 30)\"" stroke=\""yellow\"" />"",""<path d=\""M 50 57 L 50 43\"" stroke=\""black\"" transform=\""translate(0 30) rotate(-45 50 50)\""/>"",""<circle cx=\""50\"" cy=\""50\"" r=\""10\"" fill=\""none\"" transform=\""translate(-26 15)\"" stroke=\""lime\"" />"",""<path d=\""M 50 57 L 50 43\"" stroke=\""black\"" transform=\""translate(-26 15) rotate(0 50 50)\""/>"",""<circle cx=\""50\"" cy=\""50\"" r=\""10\"" fill=\""none\"" transform=\""translate(-26 -15)\"" stroke=\""blue\"" />"",""<path d=\""M 50 57 L 50 43\"" stroke=\""black\"" transform=\""translate(-26 -15) rotate(45 50 50)\""/>"",""<circle cx=\""50\"" cy=\""50\"" r=\""10\"" fill=\""none\"" transform=\""translate(0 -30)\"" stroke=\""cyan\"" />"",""<path d=\""M 50 57 L 50 43\"" stroke=\""black\"" transform=\""translate(0 -30) rotate(45 50 50)\""/>"",""<circle cx=\""50\"" cy=\""50\"" r=\""10\"" fill=\""none\"" transform=\""translate(26 -15)\"" stroke=\""black\"" />"",""<path d=\""M 50 57 L 50 43\"" stroke=\""black\"" transform=\""translate(26 -15) rotate(45 50 50)\""/>"",""</svg>""]","m","VDACtest","g","2","v","true","high","","","",""
"","html-keyboard-response","56","389157","0.0-3.0-2.3","tex","[""g""]","","null","<p style=""font-size:300%;""> + 2 points.</p><p style=""font-size:300%"">Total: 14 points.</p>","null","","","","","","","14","","",""
"","html-keyboard-response","57","390594","0.0-3.0-0.4","tex","[""g""]","","null","<svg viewBox=""0 0 100 100"" > <path d=""M 50 52 L 50 48"" stroke=""black"" stroke-width="".5""/> <path d=""M 52 50 L 48 50"" stroke=""black"" stroke-width="".5""/>","null","","","","","","","","","",""
"","html-keyboard-response","58","391359","0.0-3.0-1.4","tex","[""g""]","","761.5999999046326","[""<svg viewBox=\""0 0 100 100\"" >"",""<path d=\""M 50 52 L 50 48\"" stroke=\""black\"" stroke-width=\"".5\""/>"","" <path d=\""M 52 50 L 48 50\"" stroke=\""black\"" stroke-width=\"".5\""/>"",""<circle cx=\""50\"" cy=\""50\"" r=\""10\"" fill=\""none\"" transform=\""translate(26 15)\"" stroke=\""magenta\"" />"",""<path d=\""M 50 57 L 50 43\"" stroke=\""black\"" transform=\""translate(26 15) rotate(45 50 50)\""/>"",""<circle cx=\""50\"" cy=\""50\"" r=\""10\"" fill=\""none\"" transform=\""translate(0 30)\"" stroke=\""cyan\"" />"",""<path d=\""M 50 57 L 50 43\"" stroke=\""black\"" transform=\""translate(0 30) rotate(-45 50 50)\""/>"",""<circle cx=\""50\"" cy=\""50\"" r=\""10\"" fill=\""none\"" transform=\""translate(-26 15)\"" stroke=\""yellow\"" />"",""<path d=\""M 50 57 L 50 43\"" stroke=\""black\"" transform=\""translate(-26 15) rotate(-45 50 50)\""/>"",""<circle cx=\""50\"" cy=\""50\"" r=\""10\"" fill=\""none\"" transform=\""translate(-26 -15)\"" stroke=\""blue\"" />"",""<path d=\""M 50 57 L 50 43\"" stroke=\""black\"" transform=\""translate(-26 -15) rotate(-45 50 50)\""/>"",""<circle cx=\""50\"" cy=\""50\"" r=\""10\"" fill=\""none\"" transform=\""translate(0 -30)\"" stroke=\""black\"" />"",""<path d=\""M 50 57 L 50 43\"" stroke=\""black\"" transform=\""translate(0 -30) rotate(-45 50 50)\""/>"",""<circle cx=\""50\"" cy=\""50\"" r=\""10\"" fill=\""none\"" transform=\""translate(26 -15)\"" stroke=\""red\"" />"",""<path d=\""M 50 57 L 50 43\"" stroke=\""black\"" transform=\""translate(26 -15) rotate(90 50 50)\""/>"",""</svg>""]","z","VDACtest","r","5","h","true","low","","","",""
"","html-keyboard-response","59","393862","0.0-3.0-2.4","tex","[""g""]","","null","<p style=""font-size:300%;""> + 2 points.</p><p style=""font-size:300%"">Total: 16 points.</p>","null","","","","","","","16","","",""
"","html-keyboard-response","60","395298","0.0-3.0-0.5","tex","[""g""]","","null","<svg viewBox=""0 0 100 100"" > <path d=""M 50 52 L 50 48"" stroke=""black"" stroke-width="".5""/> <path d=""M 52 50 L 48 50"" stroke=""black"" stroke-width="".5""/>","null","","","","","","","","","",""
"","html-keyboard-response","61","396111","0.0-3.0-1.5","tex","[""g""]","","810.0999999046326","[""<svg viewBox=\""0 0 100 100\"" >"",""<path d=\""M 50 52 L 50 48\"" stroke=\""black\"" stroke-width=\"".5\""/>"","" <path d=\""M 52 50 L 48 50\"" stroke=\""black\"" stroke-width=\"".5\""/>"",""<circle cx=\""50\"" cy=\""50\"" r=\""10\"" fill=\""none\"" transform=\""translate(26 15)\"" stroke=\""black\"" />"",""<path d=\""M 50 57 L 50 43\"" stroke=\""black\"" transform=\""translate(26 15) rotate(45 50 50)\""/>"",""<circle cx=\""50\"" cy=\""50\"" r=\""10\"" fill=\""none\"" transform=\""translate(0 30)\"" stroke=\""cyan\"" />"",""<path d=\""M 50 57 L 50 43\"" stroke=\""black\"" transform=\""translate(0 30) rotate(45 50 50)\""/>"",""<circle cx=\""50\"" cy=\""50\"" r=\""10\"" fill=\""none\"" transform=\""translate(-26 15)\"" stroke=\""red\"" />"",""<path d=\""M 50 57 L 50 43\"" stroke=\""black\"" transform=\""translate(-26 15) rotate(90 50 50)\""/>"",""<circle cx=\""50\"" cy=\""50\"" r=\""10\"" fill=\""none\"" transform=\""translate(-26 -15)\"" stroke=\""magenta\"" />"",""<path d=\""M 50 57 L 50 43\"" stroke=\""black\"" transform=\""translate(-26 -15) rotate(45 50 50)\""/>"",""<circle cx=\""50\"" cy=\""50\"" r=\""10\"" fill=\""none\"" transform=\""translate(0 -30)\"" stroke=\""blue\"" />"",""<path d=\""M 50 57 L 50 43\"" stroke=\""black\"" transform=\""translate(0 -30) rotate(45 50 50)\""/>"",""<circle cx=\""50\"" cy=\""50\"" r=\""10\"" fill=\""none\"" transform=\""translate(26 -15)\"" stroke=\""yellow\"" />"",""<path d=\""M 50 57 L 50 43\"" stroke=\""black\"" transform=\""translate(26 -15) rotate(-45 50 50)\""/>"",""</svg>""]","z","VDACtest","r","2","h","true","low","","","",""
"","html-keyboard-response","62","398614","0.0-3.0-2.5","tex","[""g""]","","null","<p style=""font-size:300%;""> + 2 points.</p><p style=""font-size:300%"">Total: 18 points.</p>","null","","","","","","","18","","",""
"","html-keyboard-response","63","400050","0.0-3.0-0.6","tex","[""g""]","","null","<svg viewBox=""0 0 100 100"" > <path d=""M 50 52 L 50 48"" stroke=""black"" stroke-width="".5""/> <path d=""M 52 50 L 48 50"" stroke=""black"" stroke-width="".5""/>","null","","","","","","","","","",""
"","html-keyboard-response","64","400831","0.0-3.0-1.6","tex","[""g""]","","776.5","[""<svg viewBox=\""0 0 100 100\"" >"",""<path d=\""M 50 52 L 50 48\"" stroke=\""black\"" stroke-width=\"".5\""/>"","" <path d=\""M 52 50 L 48 50\"" stroke=\""black\"" stroke-width=\"".5\""/>"",""<circle cx=\""50\"" cy=\""50\"" r=\""10\"" fill=\""none\"" transform=\""translate(26 15)\"" stroke=\""blue\"" />"",""<path d=\""M 50 57 L 50 43\"" stroke=\""black\"" transform=\""translate(26 15) rotate(45 50 50)\""/>"",""<circle cx=\""50\"" cy=\""50\"" r=\""10\"" fill=\""none\"" transform=\""translate(0 30)\"" stroke=\""cyan\"" />"",""<path d=\""M 50 57 L 50 43\"" stroke=\""black\"" transform=\""translate(0 30) rotate(-45 50 50)\""/>"",""<circle cx=\""50\"" cy=\""50\"" r=\""10\"" fill=\""none\"" transform=\""translate(-26 15)\"" stroke=\""magenta\"" />"",""<path d=\""M 50 57 L 50 43\"" stroke=\""black\"" transform=\""translate(-26 15) rotate(-45 50 50)\""/>"",""<circle cx=\""50\"" cy=\""50\"" r=\""10\"" fill=\""none\"" transform=\""translate(-26 -15)\"" stroke=\""black\"" />"",""<path d=\""M 50 57 L 50 43\"" stroke=\""black\"" transform=\""translate(-26 -15) rotate(45 50 50)\""/>"",""<circle cx=\""50\"" cy=\""50\"" r=\""10\"" fill=\""none\"" transform=\""translate(0 -30)\"" stroke=\""yellow\"" />"",""<path d=\""M 50 57 L 50 43\"" stroke=\""black\"" transform=\""translate(0 -30) rotate(-45 50 50)\""/>"",""<circle cx=\""50\"" cy=\""50\"" r=\""10\"" fill=\""none\"" transform=\""translate(26 -15)\"" stroke=\""red\"" />"",""<path d=\""M 50 57 L 50 43\"" stroke=\""black\"" transform=\""translate(26 -15) rotate(90 50 50)\""/>"",""</svg>""]","z","VDACtest","r","5","h","true","low","","","",""
"","html-keyboard-response","65","403334","0.0-3.0-2.6","tex","[""g""]","","null","<p style=""font-size:300%;""> + 10 points.</p><p style=""font-size:300%"">Total: 28 points.</p>","null","","","","","","","28","","",""
"","html-keyboard-response","66","404770","0.0-3.0-0.7","tex","[""g""]","","null","<svg viewBox=""0 0 100 100"" > <path d=""M 50 52 L 50 48"" stroke=""black"" stroke-width="".5""/> <path d=""M 52 50 L 48 50"" stroke=""black"" stroke-width="".5""/>","null","","","","","","","","","",""
"","html-keyboard-response","67","405255","0.0-3.0-1.7","tex","[""g""]","","481.7999999523163","[""<svg viewBox=\""0 0 100 100\"" >"",""<path d=\""M 50 52 L 50 48\"" stroke=\""black\"" stroke-width=\"".5\""/>"","" <path d=\""M 52 50 L 48 50\"" stroke=\""black\"" stroke-width=\"".5\""/>"",""<circle cx=\""50\"" cy=\""50\"" r=\""10\"" fill=\""none\"" transform=\""translate(26 15)\"" stroke=\""yellow\"" />"",""<path d=\""M 50 57 L 50 43\"" stroke=\""black\"" transform=\""translate(26 15) rotate(45 50 50)\""/>"",""<circle cx=\""50\"" cy=\""50\"" r=\""10\"" fill=\""none\"" transform=\""translate(0 30)\"" stroke=\""magenta\"" />"",""<path d=\""M 50 57 L 50 43\"" stroke=\""black\"" transform=\""translate(0 30) rotate(45 50 50)\""/>"",""<circle cx=\""50\"" cy=\""50\"" r=\""10\"" fill=\""none\"" transform=\""translate(-26 15)\"" stroke=\""red\"" />"",""<path d=\""M 50 57 L 50 43\"" stroke=\""black\"" transform=\""translate(-26 15) rotate(0 50 50)\""/>"",""<circle cx=\""50\"" cy=\""50\"" r=\""10\"" fill=\""none\"" transform=\""translate(-26 -15)\"" stroke=\""black\"" />"",""<path d=\""M 50 57 L 50 43\"" stroke=\""black\"" transform=\""translate(-26 -15) rotate(45 50 50)\""/>"",""<circle cx=\""50\"" cy=\""50\"" r=\""10\"" fill=\""none\"" transform=\""translate(0 -30)\"" stroke=\""blue\"" />"",""<path d=\""M 50 57 L 50 43\"" stroke=\""black\"" transform=\""translate(0 -30) rotate(45 50 50)\""/>"",""<circle cx=\""50\"" cy=\""50\"" r=\""10\"" fill=\""none\"" transform=\""translate(26 -15)\"" stroke=\""cyan\"" />"",""<path d=\""M 50 57 L 50 43\"" stroke=\""black\"" transform=\""translate(26 -15) rotate(-45 50 50)\""/>"",""</svg>""]","m","VDACtest","r","2","v","true","low","","","",""
"","html-keyboard-response","68","407759","0.0-3.0-2.7","tex","[""g""]","","null","<p style=""font-size:300%;""> + 10 points.</p><p style=""font-size:300%"">Total: 38 points.</p>","null","","","","","","","38","","",""
"","html-keyboard-response","69","409194","0.0-3.0-0.8","tex","[""g""]","","null","<svg viewBox=""0 0 100 100"" > <path d=""M 50 52 L 50 48"" stroke=""black"" stroke-width="".5""/> <path d=""M 52 50 L 48 50"" stroke=""black"" stroke-width="".5""/>","null","","","","","","","","","",""
"","html-keyboard-response","70","409743","0.0-3.0-1.8","tex","[""g""]","","545.0999999046326","[""<svg viewBox=\""0 0 100 100\"" >"",""<path d=\""M 50 52 L 50 48\"" stroke=\""black\"" stroke-width=\"".5\""/>"","" <path d=\""M 52 50 L 48 50\"" stroke=\""black\"" stroke-width=\"".5\""/>"",""<circle cx=\""50\"" cy=\""50\"" r=\""10\"" fill=\""none\"" transform=\""translate(26 15)\"" stroke=\""blue\"" />"",""<path d=\""M 50 57 L 50 43\"" stroke=\""black\"" transform=\""translate(26 15) rotate(-45 50 50)\""/>"",""<circle cx=\""50\"" cy=\""50\"" r=\""10\"" fill=\""none\"" transform=\""translate(0 30)\"" stroke=\""yellow\"" />"",""<path d=\""M 50 57 L 50 43\"" stroke=\""black\"" transform=\""translate(0 30) rotate(-45 50 50)\""/>"",""<circle cx=\""50\"" cy=\""50\"" r=\""10\"" fill=\""none\"" transform=\""translate(-26 15)\"" stroke=\""black\"" />"",""<path d=\""M 50 57 L 50 43\"" stroke=\""black\"" transform=\""translate(-26 15) rotate(45 50 50)\""/>"",""<circle cx=\""50\"" cy=\""50\"" r=\""10\"" fill=\""none\"" transform=\""translate(-26 -15)\"" stroke=\""red\"" />"",""<path d=\""M 50 57 L 50 43\"" stroke=\""black\"" transform=\""translate(-26 -15) rotate(90 50 50)\""/>"",""<circle cx=\""50\"" cy=\""50\"" r=\""10\"" fill=\""none\"" transform=\""translate(0 -30)\"" stroke=\""magenta\"" />"",""<path d=\""M 50 57 L 50 43\"" stroke=\""black\"" transform=\""translate(0 -30) rotate(-45 50 50)\""/>"",""<circle cx=\""50\"" cy=\""50\"" r=\""10\"" fill=\""none\"" transform=\""translate(26 -15)\"" stroke=\""cyan\"" />"",""<path d=\""M 50 57 L 50 43\"" stroke=\""black\"" transform=\""translate(26 -15) rotate(-45 50 50)\""/>"",""</svg>""]","z","VDACtest","r","3","h","true","low","","","",""
"","html-keyboard-response","71","412247","0.0-3.0-2.8","tex","[""g""]","","null","<p style=""font-size:300%;""> + 2 points.</p><p style=""font-size:300%"">Total: 40 points.</p>","null","","","","","","","40","","",""
"","html-keyboard-response","72","413683","0.0-3.0-0.9","tex","[""g""]","","null","<svg viewBox=""0 0 100 100"" > <path d=""M 50 52 L 50 48"" stroke=""black"" stroke-width="".5""/> <path d=""M 52 50 L 48 50"" stroke=""black"" stroke-width="".5""/>","null","","","","","","","","","",""
"","html-keyboard-response","73","414175","0.0-3.0-1.9","tex","[""g""]","","488.2999999523163","[""<svg viewBox=\""0 0 100 100\"" >"",""<path d=\""M 50 52 L 50 48\"" stroke=\""black\"" stroke-width=\"".5\""/>"","" <path d=\""M 52 50 L 48 50\"" stroke=\""black\"" stroke-width=\"".5\""/>"",""<circle cx=\""50\"" cy=\""50\"" r=\""10\"" fill=\""none\"" transform=\""translate(26 15)\"" stroke=\""yellow\"" />"",""<path d=\""M 50 57 L 50 43\"" stroke=\""black\"" transform=\""translate(26 15) rotate(45 50 50)\""/>"",""<circle cx=\""50\"" cy=\""50\"" r=\""10\"" fill=\""none\"" transform=\""translate(0 30)\"" stroke=\""lime\"" />"",""<path d=\""M 50 57 L 50 43\"" stroke=\""black\"" transform=\""translate(0 30) rotate(0 50 50)\""/>"",""<circle cx=\""50\"" cy=\""50\"" r=\""10\"" fill=\""none\"" transform=\""translate(-26 15)\"" stroke=\""cyan\"" />"",""<path d=\""M 50 57 L 50 43\"" stroke=\""black\"" transform=\""translate(-26 15) rotate(-45 50 50)\""/>"",""<circle cx=\""50\"" cy=\""50\"" r=\""10\"" fill=\""none\"" transform=\""translate(-26 -15)\"" stroke=\""blue\"" />"",""<path d=\""M 50 57 L 50 43\"" stroke=\""black\"" transform=\""translate(-26 -15) rotate(-45 50 50)\""/>"",""<circle cx=\""50\"" cy=\""50\"" r=\""10\"" fill=\""none\"" transform=\""translate(0 -30)\"" stroke=\""magenta\"" />"",""<path d=\""M 50 57 L 50 43\"" stroke=\""black\"" transform=\""translate(0 -30) rotate(45 50 50)\""/>"",""<circle cx=\""50\"" cy=\""50\"" r=\""10\"" fill=\""none\"" transform=\""translate(26 -15)\"" stroke=\""black\"" />"",""<path d=\""M 50 57 L 50 43\"" stroke=\""black\"" transform=\""translate(26 -15) rotate(-45 50 50)\""/>"",""</svg>""]","m","VDACtest","g","1","v","true","high","","","",""
"","html-keyboard-response","74","416679","0.0-3.0-2.9","tex","[""g""]","","null","<p style=""font-size:300%;""> + 2 points.</p><p style=""font-size:300%"">Total: 42 points.</p>","null","","","","","","","42","","",""
"","html-keyboard-response","75","418115","0.0-3.0-0.10","tex","[""g""]","","null","<svg viewBox=""0 0 100 100"" > <path d=""M 50 52 L 50 48"" stroke=""black"" stroke-width="".5""/> <path d=""M 52 50 L 48 50"" stroke=""black"" stroke-width="".5""/>","null","","","","","","","","","",""
"","html-keyboard-response","76","418567","0.0-3.0-1.10","tex","[""g""]","","448.39999985694885","[""<svg viewBox=\""0 0 100 100\"" >"",""<path d=\""M 50 52 L 50 48\"" stroke=\""black\"" stroke-width=\"".5\""/>"","" <path d=\""M 52 50 L 48 50\"" stroke=\""black\"" stroke-width=\"".5\""/>"",""<circle cx=\""50\"" cy=\""50\"" r=\""10\"" fill=\""none\"" transform=\""translate(26 15)\"" stroke=\""magenta\"" />"",""<path d=\""M 50 57 L 50 43\"" stroke=\""black\"" transform=\""translate(26 15) rotate(-45 50 50)\""/>"",""<circle cx=\""50\"" cy=\""50\"" r=\""10\"" fill=\""none\"" transform=\""translate(0 30)\"" stroke=\""blue\"" />"",""<path d=\""M 50 57 L 50 43\"" stroke=\""black\"" transform=\""translate(0 30) rotate(45 50 50)\""/>"",""<circle cx=\""50\"" cy=\""50\"" r=\""10\"" fill=\""none\"" transform=\""translate(-26 15)\"" stroke=\""yellow\"" />"",""<path d=\""M 50 57 L 50 43\"" stroke=\""black\"" transform=\""translate(-26 15) rotate(45 50 50)\""/>"",""<circle cx=\""50\"" cy=\""50\"" r=\""10\"" fill=\""none\"" transform=\""translate(-26 -15)\"" stroke=\""lime\"" />"",""<path d=\""M 50 57 L 50 43\"" stroke=\""black\"" transform=\""translate(-26 -15) rotate(90 50 50)\""/>"",""<circle cx=\""50\"" cy=\""50\"" r=\""10\"" fill=\""none\"" transform=\""translate(0 -30)\"" stroke=\""black\"" />"",""<path d=\""M 50 57 L 50 43\"" stroke=\""black\"" transform=\""translate(0 -30) rotate(45 50 50)\""/>"",""<circle cx=\""50\"" cy=\""50\"" r=\""10\"" fill=\""none\"" transform=\""translate(26 -15)\"" stroke=\""cyan\"" />"",""<path d=\""M 50 57 L 50 43\"" stroke=\""black\"" transform=\""translate(26 -15) rotate(45 50 50)\""/>"",""</svg>""]","z","VDACtest","g","3","h","true","high","","","",""
"","html-keyboard-response","77","421071","0.0-3.0-2.10","tex","[""g""]","","null","<p style=""font-size:300%;""> + 10 points.</p><p style=""font-size:300%"">Total: 52 points.</p>","null","","","","","","","52","","",""
"","html-keyboard-response","78","422506","0.0-3.0-0.11","tex","[""g""]","","null","<svg viewBox=""0 0 100 100"" > <path d=""M 50 52 L 50 48"" stroke=""black"" stroke-width="".5""/> <path d=""M 52 50 L 48 50"" stroke=""black"" stroke-width="".5""/>","null","","","","","","","","","",""
"","html-keyboard-response","79","423071","0.0-3.0-1.11","tex","[""g""]","","561.0999999046326","[""<svg viewBox=\""0 0 100 100\"" >"",""<path d=\""M 50 52 L 50 48\"" stroke=\""black\"" stroke-width=\"".5\""/>"","" <path d=\""M 52 50 L 48 50\"" stroke=\""black\"" stroke-width=\"".5\""/>"",""<circle cx=\""50\"" cy=\""50\"" r=\""10\"" fill=\""none\"" transform=\""translate(26 15)\"" stroke=\""magenta\"" />"",""<path d=\""M 50 57 L 50 43\"" stroke=\""black\"" transform=\""translate(26 15) rotate(45 50 50)\""/>"",""<circle cx=\""50\"" cy=\""50\"" r=\""10\"" fill=\""none\"" transform=\""translate(0 30)\"" stroke=\""cyan\"" />"",""<path d=\""M 50 57 L 50 43\"" stroke=\""black\"" transform=\""translate(0 30) rotate(45 50 50)\""/>"",""<circle cx=\""50\"" cy=\""50\"" r=\""10\"" fill=\""none\"" transform=\""translate(-26 15)\"" stroke=\""yellow\"" />"",""<path d=\""M 50 57 L 50 43\"" stroke=\""black\"" transform=\""translate(-26 15) rotate(45 50 50)\""/>"",""<circle cx=\""50\"" cy=\""50\"" r=\""10\"" fill=\""none\"" transform=\""translate(-26 -15)\"" stroke=\""red\"" />"",""<path d=\""M 50 57 L 50 43\"" stroke=\""black\"" transform=\""translate(-26 -15) rotate(0 50 50)\""/>"",""<circle cx=\""50\"" cy=\""50\"" r=\""10\"" fill=\""none\"" transform=\""translate(0 -30)\"" stroke=\""black\"" />"",""<path d=\""M 50 57 L 50 43\"" stroke=\""black\"" transform=\""translate(0 -30) rotate(-45 50 50)\""/>"",""<circle cx=\""50\"" cy=\""50\"" r=\""10\"" fill=\""none\"" transform=\""translate(26 -15)\"" stroke=\""blue\"" />"",""<path d=\""M 50 57 L 50 43\"" stroke=\""black\"" transform=\""translate(26 -15) rotate(45 50 50)\""/>"",""</svg>""]","m","VDACtest","r","3","v","true","low","","","",""
"","html-keyboard-response","80","425574","0.0-3.0-2.11","tex","[""g""]","","null","<p style=""font-size:300%;""> + 2 points.</p><p style=""font-size:300%"">Total: 54 points.</p>","null","","","","","","","54","","",""
"","html-keyboard-response","81","427009","0.0-3.0-0.12","tex","[""g""]","","null","<svg viewBox=""0 0 100 100"" > <path d=""M 50 52 L 50 48"" stroke=""black"" stroke-width="".5""/> <path d=""M 52 50 L 48 50"" stroke=""black"" stroke-width="".5""/>","null","","","","","","","","","",""
"","html-keyboard-response","82","427527","0.0-3.0-1.12","tex","[""g""]","","515","[""<svg viewBox=\""0 0 100 100\"" >"",""<path d=\""M 50 52 L 50 48\"" stroke=\""black\"" stroke-width=\"".5\""/>"","" <path d=\""M 52 50 L 48 50\"" stroke=\""black\"" stroke-width=\"".5\""/>"",""<circle cx=\""50\"" cy=\""50\"" r=\""10\"" fill=\""none\"" transform=\""translate(26 15)\"" stroke=\""magenta\"" />"",""<path d=\""M 50 57 L 50 43\"" stroke=\""black\"" transform=\""translate(26 15) rotate(-45 50 50)\""/>"",""<circle cx=\""50\"" cy=\""50\"" r=\""10\"" fill=\""none\"" transform=\""translate(0 30)\"" stroke=\""black\"" />"",""<path d=\""M 50 57 L 50 43\"" stroke=\""black\"" transform=\""translate(0 30) rotate(-45 50 50)\""/>"",""<circle cx=\""50\"" cy=\""50\"" r=\""10\"" fill=\""none\"" transform=\""translate(-26 15)\"" stroke=\""yellow\"" />"",""<path d=\""M 50 57 L 50 43\"" stroke=\""black\"" transform=\""translate(-26 15) rotate(-45 50 50)\""/>"",""<circle cx=\""50\"" cy=\""50\"" r=\""10\"" fill=\""none\"" transform=\""translate(-26 -15)\"" stroke=\""lime\"" />"",""<path d=\""M 50 57 L 50 43\"" stroke=\""black\"" transform=\""translate(-26 -15) rotate(0 50 50)\""/>"",""<circle cx=\""50\"" cy=\""50\"" r=\""10\"" fill=\""none\"" transform=\""translate(0 -30)\"" stroke=\""blue\"" />"",""<path d=\""M 50 57 L 50 43\"" stroke=\""black\"" transform=\""translate(0 -30) rotate(-45 50 50)\""/>"",""<circle cx=\""50\"" cy=\""50\"" r=\""10\"" fill=\""none\"" transform=\""translate(26 -15)\"" stroke=\""cyan\"" />"",""<path d=\""M 50 57 L 50 43\"" stroke=\""black\"" transform=\""translate(26 -15) rotate(-45 50 50)\""/>"",""</svg>""]","m","VDACtest","g","3","v","true","high","","","",""
"","html-keyboard-response","83","430029","0.0-3.0-2.12","tex","[""g""]","","null","<p style=""font-size:300%;""> + 10 points.</p><p style=""font-size:300%"">Total: 64 points.</p>","null","","","","","","","64","","",""
"","html-keyboard-response","84","431464","0.0-3.0-0.13","tex","[""g""]","","null","<svg viewBox=""0 0 100 100"" > <path d=""M 50 52 L 50 48"" stroke=""black"" stroke-width="".5""/> <path d=""M 52 50 L 48 50"" stroke=""black"" stroke-width="".5""/>","null","","","","","","","","","",""
"","html-keyboard-response","85","431919","0.0-3.0-1.13","tex","[""g""]","","451.7999999523163","[""<svg viewBox=\""0 0 100 100\"" >"",""<path d=\""M 50 52 L 50 48\"" stroke=\""black\"" stroke-width=\"".5\""/>"","" <path d=\""M 52 50 L 48 50\"" stroke=\""black\"" stroke-width=\"".5\""/>"",""<circle cx=\""50\"" cy=\""50\"" r=\""10\"" fill=\""none\"" transform=\""translate(26 15)\"" stroke=\""blue\"" />"",""<path d=\""M 50 57 L 50 43\"" stroke=\""black\"" transform=\""translate(26 15) rotate(45 50 50)\""/>"",""<circle cx=\""50\"" cy=\""50\"" r=\""10\"" fill=\""none\"" transform=\""translate(0 30)\"" stroke=\""yellow\"" />"",""<path d=\""M 50 57 L 50 43\"" stroke=\""black\"" transform=\""translate(0 30) rotate(-45 50 50)\""/>"",""<circle cx=\""50\"" cy=\""50\"" r=\""10\"" fill=\""none\"" transform=\""translate(-26 15)\"" stroke=\""magenta\"" />"",""<path d=\""M 50 57 L 50 43\"" stroke=\""black\"" transform=\""translate(-26 15) rotate(-45 50 50)\""/>"",""<circle cx=\""50\"" cy=\""50\"" r=\""10\"" fill=\""none\"" transform=\""translate(-26 -15)\"" stroke=\""cyan\"" />"",""<path d=\""M 50 57 L 50 43\"" stroke=\""black\"" transform=\""translate(-26 -15) rotate(-45 50 50)\""/>"",""<circle cx=\""50\"" cy=\""50\"" r=\""10\"" fill=\""none\"" transform=\""translate(0 -30)\"" stroke=\""black\"" />"",""<path d=\""M 50 57 L 50 43\"" stroke=\""black\"" transform=\""translate(0 -30) rotate(45 50 50)\""/>"",""<circle cx=\""50\"" cy=\""50\"" r=\""10\"" fill=\""none\"" transform=\""translate(26 -15)\"" stroke=\""lime\"" />"",""<path d=\""M 50 57 L 50 43\"" stroke=\""black\"" transform=\""translate(26 -15) rotate(0 50 50)\""/>"",""</svg>""]","m","VDACtest","g","5","v","true","high","","","",""
"","html-keyboard-response","86","434421","0.0-3.0-2.13","tex","[""g""]","","null","<p style=""font-size:300%;""> + 10 points.</p><p style=""font-size:300%"">Total: 74 points.</p>","null","","","","","","","74","","",""
"","html-keyboard-response","87","435856","0.0-3.0-0.14","tex","[""g""]","","null","<svg viewBox=""0 0 100 100"" > <path d=""M 50 52 L 50 48"" stroke=""black"" stroke-width="".5""/> <path d=""M 52 50 L 48 50"" stroke=""black"" stroke-width="".5""/>","null","","","","","","","","","",""
"","html-keyboard-response","88","436623","0.0-3.0-1.14","tex","[""g""]","","762.7999999523163","[""<svg viewBox=\""0 0 100 100\"" >"",""<path d=\""M 50 52 L 50 48\"" stroke=\""black\"" stroke-width=\"".5\""/>"","" <path d=\""M 52 50 L 48 50\"" stroke=\""black\"" stroke-width=\"".5\""/>"",""<circle cx=\""50\"" cy=\""50\"" r=\""10\"" fill=\""none\"" transform=\""translate(26 15)\"" stroke=\""lime\"" />"",""<path d=\""M 50 57 L 50 43\"" stroke=\""black\"" transform=\""translate(26 15) rotate(0 50 50)\""/>"",""<circle cx=\""50\"" cy=\""50\"" r=\""10\"" fill=\""none\"" transform=\""translate(0 30)\"" stroke=\""yellow\"" />"",""<path d=\""M 50 57 L 50 43\"" stroke=\""black\"" transform=\""translate(0 30) rotate(45 50 50)\""/>"",""<circle cx=\""50\"" cy=\""50\"" r=\""10\"" fill=\""none\"" transform=\""translate(-26 15)\"" stroke=\""magenta\"" />"",""<path d=\""M 50 57 L 50 43\"" stroke=\""black\"" transform=\""translate(-26 15) rotate(-45 50 50)\""/>"",""<circle cx=\""50\"" cy=\""50\"" r=\""10\"" fill=\""none\"" transform=\""translate(-26 -15)\"" stroke=\""black\"" />"",""<path d=\""M 50 57 L 50 43\"" stroke=\""black\"" transform=\""translate(-26 -15) rotate(-45 50 50)\""/>"",""<circle cx=\""50\"" cy=\""50\"" r=\""10\"" fill=\""none\"" transform=\""translate(0 -30)\"" stroke=\""cyan\"" />"",""<path d=\""M 50 57 L 50 43\"" stroke=\""black\"" transform=\""translate(0 -30) rotate(-45 50 50)\""/>"",""<circle cx=\""50\"" cy=\""50\"" r=\""10\"" fill=\""none\"" transform=\""translate(26 -15)\"" stroke=\""blue\"" />"",""<path d=\""M 50 57 L 50 43\"" stroke=\""black\"" transform=\""translate(26 -15) rotate(45 50 50)\""/>"",""</svg>""]","m","VDACtest","g","0","v","true","high","","","",""
"","html-keyboard-response","89","439125","0.0-3.0-2.14","tex","[""g""]","","null","<p style=""font-size:300%;""> + 2 points.</p><p style=""font-size:300%"">Total: 76 points.</p>","null","","","","","","","76","","",""
"","html-keyboard-response","90","440560","0.0-3.0-0.15","tex","[""g""]","","null","<svg viewBox=""0 0 100 100"" > <path d=""M 50 52 L 50 48"" stroke=""black"" stroke-width="".5""/> <path d=""M 52 50 L 48 50"" stroke=""black"" stroke-width="".5""/>","null","","","","","","","","","",""
"","html-keyboard-response","91","441087","0.0-3.0-1.15","tex","[""g""]","","522.9000000953674","[""<svg viewBox=\""0 0 100 100\"" >"",""<path d=\""M 50 52 L 50 48\"" stroke=\""black\"" stroke-width=\"".5\""/>"","" <path d=\""M 52 50 L 48 50\"" stroke=\""black\"" stroke-width=\"".5\""/>"",""<circle cx=\""50\"" cy=\""50\"" r=\""10\"" fill=\""none\"" transform=\""translate(26 15)\"" stroke=\""yellow\"" />"",""<path d=\""M 50 57 L 50 43\"" stroke=\""black\"" transform=\""translate(26 15) rotate(-45 50 50)\""/>"",""<circle cx=\""50\"" cy=\""50\"" r=\""10\"" fill=\""none\"" transform=\""translate(0 30)\"" stroke=\""cyan\"" />"",""<path d=\""M 50 57 L 50 43\"" stroke=\""black\"" transform=\""translate(0 30) rotate(45 50 50)\""/>"",""<circle cx=\""50\"" cy=\""50\"" r=\""10\"" fill=\""none\"" transform=\""translate(-26 15)\"" stroke=\""lime\"" />"",""<path d=\""M 50 57 L 50 43\"" stroke=\""black\"" transform=\""translate(-26 15) rotate(90 50 50)\""/>"",""<circle cx=\""50\"" cy=\""50\"" r=\""10\"" fill=\""none\"" transform=\""translate(-26 -15)\"" stroke=\""magenta\"" />"",""<path d=\""M 50 57 L 50 43\"" stroke=\""black\"" transform=\""translate(-26 -15) rotate(-45 50 50)\""/>"",""<circle cx=\""50\"" cy=\""50\"" r=\""10\"" fill=\""none\"" transform=\""translate(0 -30)\"" stroke=\""black\"" />"",""<path d=\""M 50 57 L 50 43\"" stroke=\""black\"" transform=\""translate(0 -30) rotate(-45 50 50)\""/>"",""<circle cx=\""50\"" cy=\""50\"" r=\""10\"" fill=\""none\"" transform=\""translate(26 -15)\"" stroke=\""blue\"" />"",""<path d=\""M 50 57 L 50 43\"" stroke=\""black\"" transform=\""translate(26 -15) rotate(45 50 50)\""/>"",""</svg>""]","z","VDACtest","g","2","h","true","high","","","",""
"","html-keyboard-response","92","443589","0.0-3.0-2.15","tex","[""g""]","","null","<p style=""font-size:300%;""> + 10 points.</p><p style=""font-size:300%"">Total: 86 points.</p>","null","","","","","","","86","","",""
"","html-keyboard-response","93","445024","0.0-3.0-0.16","tex","[""g""]","","null","<svg viewBox=""0 0 100 100"" > <path d=""M 50 52 L 50 48"" stroke=""black"" stroke-width="".5""/> <path d=""M 52 50 L 48 50"" stroke=""black"" stroke-width="".5""/>","null","","","","","","","","","",""
"","html-keyboard-response","94","446028","0.0-3.0-1.16","tex","[""g""]","","null","[""<svg viewBox=\""0 0 100 100\"" >"",""<path d=\""M 50 52 L 50 48\"" stroke=\""black\"" stroke-width=\"".5\""/>"","" <path d=\""M 52 50 L 48 50\"" stroke=\""black\"" stroke-width=\"".5\""/>"",""<circle cx=\""50\"" cy=\""50\"" r=\""10\"" fill=\""none\"" transform=\""translate(26 15)\"" stroke=\""cyan\"" />"",""<path d=\""M 50 57 L 50 43\"" stroke=\""black\"" transform=\""translate(26 15) rotate(-45 50 50)\""/>"",""<circle cx=\""50\"" cy=\""50\"" r=\""10\"" fill=\""none\"" transform=\""translate(0 30)\"" stroke=\""blue\"" />"",""<path d=\""M 50 57 L 50 43\"" stroke=\""black\"" transform=\""translate(0 30) rotate(45 50 50)\""/>"",""<circle cx=\""50\"" cy=\""50\"" r=\""10\"" fill=\""none\"" transform=\""translate(-26 15)\"" stroke=\""red\"" />"",""<path d=\""M 50 57 L 50 43\"" stroke=\""black\"" transform=\""translate(-26 15) rotate(0 50 50)\""/>"",""<circle cx=\""50\"" cy=\""50\"" r=\""10\"" fill=\""none\"" transform=\""translate(-26 -15)\"" stroke=\""magenta\"" />"",""<path d=\""M 50 57 L 50 43\"" stroke=\""black\"" transform=\""translate(-26 -15) rotate(45 50 50)\""/>"",""<circle cx=\""50\"" cy=\""50\"" r=\""10\"" fill=\""none\"" transform=\""translate(0 -30)\"" stroke=\""yellow\"" />"",""<path d=\""M 50 57 L 50 43\"" stroke=\""black\"" transform=\""translate(0 -30) rotate(45 50 50)\""/>"",""<circle cx=\""50\"" cy=\""50\"" r=\""10\"" fill=\""none\"" transform=\""translate(26 -15)\"" stroke=\""black\"" />"",""<path d=\""M 50 57 L 50 43\"" stroke=\""black\"" transform=\""translate(26 -15) rotate(-45 50 50)\""/>"",""</svg>""]","null","VDACtest","r","2","v","null","low","","","",""
"","html-keyboard-response","95","448531","0.0-3.0-2.16","tex","[""g""]","","null","<p style=""font-size:300%;"">Miss.</p><p style=""font-size:300%"">Total: 86 points.</p>","null","","","","","","","86","","",""
"","html-keyboard-response","96","449966","0.0-3.0-0.17","tex","[""g""]","","null","<svg viewBox=""0 0 100 100"" > <path d=""M 50 52 L 50 48"" stroke=""black"" stroke-width="".5""/> <path d=""M 52 50 L 48 50"" stroke=""black"" stroke-width="".5""/>","null","","","","","","","","","",""
"","html-keyboard-response","97","450575","0.0-3.0-1.17","tex","[""g""]","","605","[""<svg viewBox=\""0 0 100 100\"" >"",""<path d=\""M 50 52 L 50 48\"" stroke=\""black\"" stroke-width=\"".5\""/>"","" <path d=\""M 52 50 L 48 50\"" stroke=\""black\"" stroke-width=\"".5\""/>"",""<circle cx=\""50\"" cy=\""50\"" r=\""10\"" fill=\""none\"" transform=\""translate(26 15)\"" stroke=\""cyan\"" />"",""<path d=\""M 50 57 L 50 43\"" stroke=\""black\"" transform=\""translate(26 15) rotate(45 50 50)\""/>"",""<circle cx=\""50\"" cy=\""50\"" r=\""10\"" fill=\""none\"" transform=\""translate(0 30)\"" stroke=\""blue\"" />"",""<path d=\""M 50 57 L 50 43\"" stroke=\""black\"" transform=\""translate(0 30) rotate(-45 50 50)\""/>"",""<circle cx=\""50\"" cy=\""50\"" r=\""10\"" fill=\""none\"" transform=\""translate(-26 15)\"" stroke=\""magenta\"" />"",""<path d=\""M 50 57 L 50 43\"" stroke=\""black\"" transform=\""translate(-26 15) rotate(45 50 50)\""/>"",""<circle cx=\""50\"" cy=\""50\"" r=\""10\"" fill=\""none\"" transform=\""translate(-26 -15)\"" stroke=\""lime\"" />"",""<path d=\""M 50 57 L 50 43\"" stroke=\""black\"" transform=\""translate(-26 -15) rotate(0 50 50)\""/>"",""<circle cx=\""50\"" cy=\""50\"" r=\""10\"" fill=\""none\"" transform=\""translate(0 -30)\"" stroke=\""yellow\"" />"",""<path d=\""M 50 57 L 50 43\"" stroke=\""black\"" transform=\""translate(0 -30) rotate(45 50 50)\""/>"",""<circle cx=\""50\"" cy=\""50\"" r=\""10\"" fill=\""none\"" transform=\""translate(26 -15)\"" stroke=\""black\"" />"",""<path d=\""M 50 57 L 50 43\"" stroke=\""black\"" transform=\""translate(26 -15) rotate(-45 50 50)\""/>"",""</svg>""]","m","VDACtest","g","3","v","true","high","","","",""
"","html-keyboard-response","98","453077","0.0-3.0-2.17","tex","[""g""]","","null","<p style=""font-size:300%;""> + 10 points.</p><p style=""font-size:300%"">Total: 96 points.</p>","null","","","","","","","96","","",""
"","html-keyboard-response","99","454513","0.0-3.0-0.18","tex","[""g""]","","null","<svg viewBox=""0 0 100 100"" > <path d=""M 50 52 L 50 48"" stroke=""black"" stroke-width="".5""/> <path d=""M 52 50 L 48 50"" stroke=""black"" stroke-width="".5""/>","null","","","","","","","","","",""
"","html-keyboard-response","100","455167","0.0-3.0-1.18","tex","[""g""]","","649.5","[""<svg viewBox=\""0 0 100 100\"" >"",""<path d=\""M 50 52 L 50 48\"" stroke=\""black\"" stroke-width=\"".5\""/>"","" <path d=\""M 52 50 L 48 50\"" stroke=\""black\"" stroke-width=\"".5\""/>"",""<circle cx=\""50\"" cy=\""50\"" r=\""10\"" fill=\""none\"" transform=\""translate(26 15)\"" stroke=\""blue\"" />"",""<path d=\""M 50 57 L 50 43\"" stroke=\""black\"" transform=\""translate(26 15) rotate(-45 50 50)\""/>"",""<circle cx=\""50\"" cy=\""50\"" r=\""10\"" fill=\""none\"" transform=\""translate(0 30)\"" stroke=\""black\"" />"",""<path d=\""M 50 57 L 50 43\"" stroke=\""black\"" transform=\""translate(0 30) rotate(-45 50 50)\""/>"",""<circle cx=\""50\"" cy=\""50\"" r=\""10\"" fill=\""none\"" transform=\""translate(-26 15)\"" stroke=\""magenta\"" />"",""<path d=\""M 50 57 L 50 43\"" stroke=\""black\"" transform=\""translate(-26 15) rotate(-45 50 50)\""/>"",""<circle cx=\""50\"" cy=\""50\"" r=\""10\"" fill=\""none\"" transform=\""translate(-26 -15)\"" stroke=\""yellow\"" />"",""<path d=\""M 50 57 L 50 43\"" stroke=\""black\"" transform=\""translate(-26 -15) rotate(45 50 50)\""/>"",""<circle cx=\""50\"" cy=\""50\"" r=\""10\"" fill=\""none\"" transform=\""translate(0 -30)\"" stroke=\""lime\"" />"",""<path d=\""M 50 57 L 50 43\"" stroke=\""black\"" transform=\""translate(0 -30) rotate(90 50 50)\""/>"",""<circle cx=\""50\"" cy=\""50\"" r=\""10\"" fill=\""none\"" transform=\""translate(26 -15)\"" stroke=\""cyan\"" />"",""<path d=\""M 50 57 L 50 43\"" stroke=\""black\"" transform=\""translate(26 -15) rotate(45 50 50)\""/>"",""</svg>""]","z","VDACtest","g","4","h","true","high","","","",""
"","html-keyboard-response","101","457670","0.0-3.0-2.18","tex","[""g""]","","null","<p style=""font-size:300%;""> + 10 points.</p><p style=""font-size:300%"">Total: 106 points.</p>","null","","","","","","","106","","",""
"","html-keyboard-response","102","459105","0.0-3.0-0.19","tex","[""g""]","","null","<svg viewBox=""0 0 100 100"" > <path d=""M 50 52 L 50 48"" stroke=""black"" stroke-width="".5""/> <path d=""M 52 50 L 48 50"" stroke=""black"" stroke-width="".5""/>","null","","","","","","","","","",""
"","html-keyboard-response","103","459887","0.0-3.0-1.19","tex","[""g""]","","778.6999998092651","[""<svg viewBox=\""0 0 100 100\"" >"",""<path d=\""M 50 52 L 50 48\"" stroke=\""black\"" stroke-width=\"".5\""/>"","" <path d=\""M 52 50 L 48 50\"" stroke=\""black\"" stroke-width=\"".5\""/>"",""<circle cx=\""50\"" cy=\""50\"" r=\""10\"" fill=\""none\"" transform=\""translate(26 15)\"" stroke=\""yellow\"" />"",""<path d=\""M 50 57 L 50 43\"" stroke=\""black\"" transform=\""translate(26 15) rotate(-45 50 50)\""/>"",""<circle cx=\""50\"" cy=\""50\"" r=\""10\"" fill=\""none\"" transform=\""translate(0 30)\"" stroke=\""blue\"" />"",""<path d=\""M 50 57 L 50 43\"" stroke=\""black\"" transform=\""translate(0 30) rotate(-45 50 50)\""/>"",""<circle cx=\""50\"" cy=\""50\"" r=\""10\"" fill=\""none\"" transform=\""translate(-26 15)\"" stroke=\""magenta\"" />"",""<path d=\""M 50 57 L 50 43\"" stroke=\""black\"" transform=\""translate(-26 15) rotate(45 50 50)\""/>"",""<circle cx=\""50\"" cy=\""50\"" r=\""10\"" fill=\""none\"" transform=\""translate(-26 -15)\"" stroke=\""black\"" />"",""<path d=\""M 50 57 L 50 43\"" stroke=\""black\"" transform=\""translate(-26 -15) rotate(45 50 50)\""/>"",""<circle cx=\""50\"" cy=\""50\"" r=\""10\"" fill=\""none\"" transform=\""translate(0 -30)\"" stroke=\""lime\"" />"",""<path d=\""M 50 57 L 50 43\"" stroke=\""black\"" transform=\""translate(0 -30) rotate(0 50 50)\""/>"",""<circle cx=\""50\"" cy=\""50\"" r=\""10\"" fill=\""none\"" transform=\""translate(26 -15)\"" stroke=\""cyan\"" />"",""<path d=\""M 50 57 L 50 43\"" stroke=\""black\"" transform=\""translate(26 -15) rotate(45 50 50)\""/>"",""</svg>""]","m","VDACtest","g","4","v","true","high","","","",""
"","html-keyboard-response","104","462390","0.0-3.0-2.19","tex","[""g""]","","null","<p style=""font-size:300%;""> + 2 points.</p><p style=""font-size:300%"">Total: 108 points.</p>","null","","","","","","","108","","",""
"","html-keyboard-response","105","463825","0.0-3.0-0.20","tex","[""g""]","","null","<svg viewBox=""0 0 100 100"" > <path d=""M 50 52 L 50 48"" stroke=""black"" stroke-width="".5""/> <path d=""M 52 50 L 48 50"" stroke=""black"" stroke-width="".5""/>","null","","","","","","","","","",""
"","html-keyboard-response","106","464351","0.0-3.0-1.20","tex","[""g""]","","522.0999999046326","[""<svg viewBox=\""0 0 100 100\"" >"",""<path d=\""M 50 52 L 50 48\"" stroke=\""black\"" stroke-width=\"".5\""/>"","" <path d=\""M 52 50 L 48 50\"" stroke=\""black\"" stroke-width=\"".5\""/>"",""<circle cx=\""50\"" cy=\""50\"" r=\""10\"" fill=\""none\"" transform=\""translate(26 15)\"" stroke=\""yellow\"" />"",""<path d=\""M 50 57 L 50 43\"" stroke=\""black\"" transform=\""translate(26 15) rotate(45 50 50)\""/>"",""<circle cx=\""50\"" cy=\""50\"" r=\""10\"" fill=\""none\"" transform=\""translate(0 30)\"" stroke=\""cyan\"" />"",""<path d=\""M 50 57 L 50 43\"" stroke=\""black\"" transform=\""translate(0 30) rotate(45 50 50)\""/>"",""<circle cx=\""50\"" cy=\""50\"" r=\""10\"" fill=\""none\"" transform=\""translate(-26 15)\"" stroke=\""blue\"" />"",""<path d=\""M 50 57 L 50 43\"" stroke=\""black\"" transform=\""translate(-26 15) rotate(-45 50 50)\""/>"",""<circle cx=\""50\"" cy=\""50\"" r=\""10\"" fill=\""none\"" transform=\""translate(-26 -15)\"" stroke=\""red\"" />"",""<path d=\""M 50 57 L 50 43\"" stroke=\""black\"" transform=\""translate(-26 -15) rotate(90 50 50)\""/>"",""<circle cx=\""50\"" cy=\""50\"" r=\""10\"" fill=\""none\"" transform=\""translate(0 -30)\"" stroke=\""magenta\"" />"",""<path d=\""M 50 57 L 50 43\"" stroke=\""black\"" transform=\""translate(0 -30) rotate(45 50 50)\""/>"",""<circle cx=\""50\"" cy=\""50\"" r=\""10\"" fill=\""none\"" transform=\""translate(26 -15)\"" stroke=\""black\"" />"",""<path d=\""M 50 57 L 50 43\"" stroke=\""black\"" transform=\""translate(26 -15) rotate(-45 50 50)\""/>"",""</svg>""]","z","VDACtest","r","3","h","true","low","","","",""
"","html-keyboard-response","107","466853","0.0-3.0-2.20","tex","[""g""]","","null","<p style=""font-size:300%;""> + 10 points.</p><p style=""font-size:300%"">Total: 118 points.</p>","null","","","","","","","118","","",""
"","html-keyboard-response","108","468289","0.0-3.0-0.21","tex","[""g""]","","null","<svg viewBox=""0 0 100 100"" > <path d=""M 50 52 L 50 48"" stroke=""black"" stroke-width="".5""/> <path d=""M 52 50 L 48 50"" stroke=""black"" stroke-width="".5""/>","null","","","","","","","","","",""
"","html-keyboard-response","109","469223","0.0-3.0-1.21","tex","[""g""]","","930","[""<svg viewBox=\""0 0 100 100\"" >"",""<path d=\""M 50 52 L 50 48\"" stroke=\""black\"" stroke-width=\"".5\""/>"","" <path d=\""M 52 50 L 48 50\"" stroke=\""black\"" stroke-width=\"".5\""/>"",""<circle cx=\""50\"" cy=\""50\"" r=\""10\"" fill=\""none\"" transform=\""translate(26 15)\"" stroke=\""cyan\"" />"",""<path d=\""M 50 57 L 50 43\"" stroke=\""black\"" transform=\""translate(26 15) rotate(-45 50 50)\""/>"",""<circle cx=\""50\"" cy=\""50\"" r=\""10\"" fill=\""none\"" transform=\""translate(0 30)\"" stroke=\""red\"" />"",""<path d=\""M 50 57 L 50 43\"" stroke=\""black\"" transform=\""translate(0 30) rotate(90 50 50)\""/>"",""<circle cx=\""50\"" cy=\""50\"" r=\""10\"" fill=\""none\"" transform=\""translate(-26 15)\"" stroke=\""black\"" />"",""<path d=\""M 50 57 L 50 43\"" stroke=\""black\"" transform=\""translate(-26 15) rotate(-45 50 50)\""/>"",""<circle cx=\""50\"" cy=\""50\"" r=\""10\"" fill=\""none\"" transform=\""translate(-26 -15)\"" stroke=\""yellow\"" />"",""<path d=\""M 50 57 L 50 43\"" stroke=\""black\"" transform=\""translate(-26 -15) rotate(45 50 50)\""/>"",""<circle cx=\""50\"" cy=\""50\"" r=\""10\"" fill=\""none\"" transform=\""translate(0 -30)\"" stroke=\""magenta\"" />"",""<path d=\""M 50 57 L 50 43\"" stroke=\""black\"" transform=\""translate(0 -30) rotate(45 50 50)\""/>"",""<circle cx=\""50\"" cy=\""50\"" r=\""10\"" fill=\""none\"" transform=\""translate(26 -15)\"" stroke=\""blue\"" />"",""<path d=\""M 50 57 L 50 43\"" stroke=\""black\"" transform=\""translate(26 -15) rotate(-45 50 50)\""/>"",""</svg>""]","z","VDACtest","r","1","h","true","low","","","",""
"","html-keyboard-response","110","471725","0.0-3.0-2.21","tex","[""g""]","","null","<p style=""font-size:300%;""> + 2 points.</p><p style=""font-size:300%"">Total: 120 points.</p>","null","","","","","","","120","","",""
"","html-keyboard-response","111","473160","0.0-3.0-0.22","tex","[""g""]","","null","<svg viewBox=""0 0 100 100"" > <path d=""M 50 52 L 50 48"" stroke=""black"" stroke-width="".5""/> <path d=""M 52 50 L 48 50"" stroke=""black"" stroke-width="".5""/>","null","","","","","","","","","",""
"","html-keyboard-response","112","473951","0.0-3.0-1.22","tex","[""g""]","","787.8999998569489","[""<svg viewBox=\""0 0 100 100\"" >"",""<path d=\""M 50 52 L 50 48\"" stroke=\""black\"" stroke-width=\"".5\""/>"","" <path d=\""M 52 50 L 48 50\"" stroke=\""black\"" stroke-width=\"".5\""/>"",""<circle cx=\""50\"" cy=\""50\"" r=\""10\"" fill=\""none\"" transform=\""translate(26 15)\"" stroke=\""blue\"" />"",""<path d=\""M 50 57 L 50 43\"" stroke=\""black\"" transform=\""translate(26 15) rotate(45 50 50)\""/>"",""<circle cx=\""50\"" cy=\""50\"" r=\""10\"" fill=\""none\"" transform=\""translate(0 30)\"" stroke=\""black\"" />"",""<path d=\""M 50 57 L 50 43\"" stroke=\""black\"" transform=\""translate(0 30) rotate(-45 50 50)\""/>"",""<circle cx=\""50\"" cy=\""50\"" r=\""10\"" fill=\""none\"" transform=\""translate(-26 15)\"" stroke=\""lime\"" />"",""<path d=\""M 50 57 L 50 43\"" stroke=\""black\"" transform=\""translate(-26 15) rotate(0 50 50)\""/>"",""<circle cx=\""50\"" cy=\""50\"" r=\""10\"" fill=\""none\"" transform=\""translate(-26 -15)\"" stroke=\""yellow\"" />"",""<path d=\""M 50 57 L 50 43\"" stroke=\""black\"" transform=\""translate(-26 -15) rotate(45 50 50)\""/>"",""<circle cx=\""50\"" cy=\""50\"" r=\""10\"" fill=\""none\"" transform=\""translate(0 -30)\"" stroke=\""magenta\"" />"",""<path d=\""M 50 57 L 50 43\"" stroke=\""black\"" transform=\""translate(0 -30) rotate(-45 50 50)\""/>"",""<circle cx=\""50\"" cy=\""50\"" r=\""10\"" fill=\""none\"" transform=\""translate(26 -15)\"" stroke=\""cyan\"" />"",""<path d=\""M 50 57 L 50 43\"" stroke=\""black\"" transform=\""translate(26 -15) rotate(-45 50 50)\""/>"",""</svg>""]","m","VDACtest","g","2","v","true","high","","","",""
"","html-keyboard-response","113","476454","0.0-3.0-2.22","tex","[""g""]","","null","<p style=""font-size:300%;""> + 10 points.</p><p style=""font-size:300%"">Total: 130 points.</p>","null","","","","","","","130","","",""
"","html-keyboard-response","114","477890","0.0-3.0-0.23","tex","[""g""]","","null","<svg viewBox=""0 0 100 100"" > <path d=""M 50 52 L 50 48"" stroke=""black"" stroke-width="".5""/> <path d=""M 52 50 L 48 50"" stroke=""black"" stroke-width="".5""/>","null","","","","","","","","","",""
"","html-keyboard-response","115","478415","0.0-3.0-1.23","tex","[""g""]","","520.7999999523163","[""<svg viewBox=\""0 0 100 100\"" >"",""<path d=\""M 50 52 L 50 48\"" stroke=\""black\"" stroke-width=\"".5\""/>"","" <path d=\""M 52 50 L 48 50\"" stroke=\""black\"" stroke-width=\"".5\""/>"",""<circle cx=\""50\"" cy=\""50\"" r=\""10\"" fill=\""none\"" transform=\""translate(26 15)\"" stroke=\""cyan\"" />"",""<path d=\""M 50 57 L 50 43\"" stroke=\""black\"" transform=\""translate(26 15) rotate(-45 50 50)\""/>"",""<circle cx=\""50\"" cy=\""50\"" r=\""10\"" fill=\""none\"" transform=\""translate(0 30)\"" stroke=\""black\"" />"",""<path d=\""M 50 57 L 50 43\"" stroke=\""black\"" transform=\""translate(0 30) rotate(-45 50 50)\""/>"",""<circle cx=\""50\"" cy=\""50\"" r=\""10\"" fill=\""none\"" transform=\""translate(-26 15)\"" stroke=\""lime\"" />"",""<path d=\""M 50 57 L 50 43\"" stroke=\""black\"" transform=\""translate(-26 15) rotate(0 50 50)\""/>"",""<circle cx=\""50\"" cy=\""50\"" r=\""10\"" fill=\""none\"" transform=\""translate(-26 -15)\"" stroke=\""blue\"" />"",""<path d=\""M 50 57 L 50 43\"" stroke=\""black\"" transform=\""translate(-26 -15) rotate(-45 50 50)\""/>"",""<circle cx=\""50\"" cy=\""50\"" r=\""10\"" fill=\""none\"" transform=\""translate(0 -30)\"" stroke=\""magenta\"" />"",""<path d=\""M 50 57 L 50 43\"" stroke=\""black\"" transform=\""translate(0 -30) rotate(45 50 50)\""/>"",""<circle cx=\""50\"" cy=\""50\"" r=\""10\"" fill=\""none\"" transform=\""translate(26 -15)\"" stroke=\""yellow\"" />"",""<path d=\""M 50 57 L 50 43\"" stroke=\""black\"" transform=\""translate(26 -15) rotate(45 50 50)\""/>"",""</svg>""]","m","VDACtest","g","2","v","true","high","","","",""
"","html-keyboard-response","116","480917","0.0-3.0-2.23","tex","[""g""]","","null","<p style=""font-size:300%;""> + 10 points.</p><p style=""font-size:300%"">Total: 140 points.</p>","null","","","","","","","140","","",""
"","html-keyboard-response","117","482353","0.0-3.0-0.24","tex","[""g""]","","null","<svg viewBox=""0 0 100 100"" > <path d=""M 50 52 L 50 48"" stroke=""black"" stroke-width="".5""/> <path d=""M 52 50 L 48 50"" stroke=""black"" stroke-width="".5""/>","null","","","","","","","","","",""
"","html-keyboard-response","118","482975","0.0-3.0-1.24","tex","[""g""]","","618","[""<svg viewBox=\""0 0 100 100\"" >"",""<path d=\""M 50 52 L 50 48\"" stroke=\""black\"" stroke-width=\"".5\""/>"","" <path d=\""M 52 50 L 48 50\"" stroke=\""black\"" stroke-width=\"".5\""/>"",""<circle cx=\""50\"" cy=\""50\"" r=\""10\"" fill=\""none\"" transform=\""translate(26 15)\"" stroke=\""cyan\"" />"",""<path d=\""M 50 57 L 50 43\"" stroke=\""black\"" transform=\""translate(26 15) rotate(45 50 50)\""/>"",""<circle cx=\""50\"" cy=\""50\"" r=\""10\"" fill=\""none\"" transform=\""translate(0 30)\"" stroke=\""black\"" />"",""<path d=\""M 50 57 L 50 43\"" stroke=\""black\"" transform=\""translate(0 30) rotate(-45 50 50)\""/>"",""<circle cx=\""50\"" cy=\""50\"" r=\""10\"" fill=\""none\"" transform=\""translate(-26 15)\"" stroke=\""lime\"" />"",""<path d=\""M 50 57 L 50 43\"" stroke=\""black\"" transform=\""translate(-26 15) rotate(90 50 50)\""/>"",""<circle cx=\""50\"" cy=\""50\"" r=\""10\"" fill=\""none\"" transform=\""translate(-26 -15)\"" stroke=\""yellow\"" />"",""<path d=\""M 50 57 L 50 43\"" stroke=\""black\"" transform=\""translate(-26 -15) rotate(45 50 50)\""/>"",""<circle cx=\""50\"" cy=\""50\"" r=\""10\"" fill=\""none\"" transform=\""translate(0 -30)\"" stroke=\""blue\"" />"",""<path d=\""M 50 57 L 50 43\"" stroke=\""black\"" transform=\""translate(0 -30) rotate(-45 50 50)\""/>"",""<circle cx=\""50\"" cy=\""50\"" r=\""10\"" fill=\""none\"" transform=\""translate(26 -15)\"" stroke=\""magenta\"" />"",""<path d=\""M 50 57 L 50 43\"" stroke=\""black\"" transform=\""translate(26 -15) rotate(45 50 50)\""/>"",""</svg>""]","z","VDACtest","g","2","h","true","high","","","",""
"","html-keyboard-response","119","485477","0.0-3.0-2.24","tex","[""g""]","","null","<p style=""font-size:300%;""> + 10 points.</p><p style=""font-size:300%"">Total: 150 points.</p>","null","","","","","","","150","","",""
"","html-keyboard-response","120","486912","0.0-3.0-0.25","tex","[""g""]","","null","<svg viewBox=""0 0 100 100"" > <path d=""M 50 52 L 50 48"" stroke=""black"" stroke-width="".5""/> <path d=""M 52 50 L 48 50"" stroke=""black"" stroke-width="".5""/>","null","","","","","","","","","",""
"","html-keyboard-response","121","487703","0.0-3.0-1.25","tex","[""g""]","","787.2000000476837","[""<svg viewBox=\""0 0 100 100\"" >"",""<path d=\""M 50 52 L 50 48\"" stroke=\""black\"" stroke-width=\"".5\""/>"","" <path d=\""M 52 50 L 48 50\"" stroke=\""black\"" stroke-width=\"".5\""/>"",""<circle cx=\""50\"" cy=\""50\"" r=\""10\"" fill=\""none\"" transform=\""translate(26 15)\"" stroke=\""red\"" />"",""<path d=\""M 50 57 L 50 43\"" stroke=\""black\"" transform=\""translate(26 15) rotate(0 50 50)\""/>"",""<circle cx=\""50\"" cy=\""50\"" r=\""10\"" fill=\""none\"" transform=\""translate(0 30)\"" stroke=\""yellow\"" />"",""<path d=\""M 50 57 L 50 43\"" stroke=\""black\"" transform=\""translate(0 30) rotate(45 50 50)\""/>"",""<circle cx=\""50\"" cy=\""50\"" r=\""10\"" fill=\""none\"" transform=\""translate(-26 15)\"" stroke=\""black\"" />"",""<path d=\""M 50 57 L 50 43\"" stroke=\""black\"" transform=\""translate(-26 15) rotate(45 50 50)\""/>"",""<circle cx=\""50\"" cy=\""50\"" r=\""10\"" fill=\""none\"" transform=\""translate(-26 -15)\"" stroke=\""cyan\"" />"",""<path d=\""M 50 57 L 50 43\"" stroke=\""black\"" transform=\""translate(-26 -15) rotate(45 50 50)\""/>"",""<circle cx=\""50\"" cy=\""50\"" r=\""10\"" fill=\""none\"" transform=\""translate(0 -30)\"" stroke=\""magenta\"" />"",""<path d=\""M 50 57 L 50 43\"" stroke=\""black\"" transform=\""translate(0 -30) rotate(45 50 50)\""/>"",""<circle cx=\""50\"" cy=\""50\"" r=\""10\"" fill=\""none\"" transform=\""translate(26 -15)\"" stroke=\""blue\"" />"",""<path d=\""M 50 57 L 50 43\"" stroke=\""black\"" transform=\""translate(26 -15) rotate(-45 50 50)\""/>"",""</svg>""]","m","VDACtest","r","0","v","true","low","","","",""
"","html-keyboard-response","122","490205","0.0-3.0-2.25","tex","[""g""]","","null","<p style=""font-size:300%;""> + 10 points.</p><p style=""font-size:300%"">Total: 160 points.</p>","null","","","","","","","160","","",""
"","html-keyboard-response","123","491640","0.0-3.0-0.26","tex","[""g""]","","null","<svg viewBox=""0 0 100 100"" > <path d=""M 50 52 L 50 48"" stroke=""black"" stroke-width="".5""/> <path d=""M 52 50 L 48 50"" stroke=""black"" stroke-width="".5""/>","null","","","","","","","","","",""
"","html-keyboard-response","124","492303","0.0-3.0-1.26","tex","[""g""]","","659.6000001430511","[""<svg viewBox=\""0 0 100 100\"" >"",""<path d=\""M 50 52 L 50 48\"" stroke=\""black\"" stroke-width=\"".5\""/>"","" <path d=\""M 52 50 L 48 50\"" stroke=\""black\"" stroke-width=\"".5\""/>"",""<circle cx=\""50\"" cy=\""50\"" r=\""10\"" fill=\""none\"" transform=\""translate(26 15)\"" stroke=\""cyan\"" />"",""<path d=\""M 50 57 L 50 43\"" stroke=\""black\"" transform=\""translate(26 15) rotate(-45 50 50)\""/>"",""<circle cx=\""50\"" cy=\""50\"" r=\""10\"" fill=\""none\"" transform=\""translate(0 30)\"" stroke=\""black\"" />"",""<path d=\""M 50 57 L 50 43\"" stroke=\""black\"" transform=\""translate(0 30) rotate(45 50 50)\""/>"",""<circle cx=\""50\"" cy=\""50\"" r=\""10\"" fill=\""none\"" transform=\""translate(-26 15)\"" stroke=\""red\"" />"",""<path d=\""M 50 57 L 50 43\"" stroke=\""black\"" transform=\""translate(-26 15) rotate(0 50 50)\""/>"",""<circle cx=\""50\"" cy=\""50\"" r=\""10\"" fill=\""none\"" transform=\""translate(-26 -15)\"" stroke=\""magenta\"" />"",""<path d=\""M 50 57 L 50 43\"" stroke=\""black\"" transform=\""translate(-26 -15) rotate(45 50 50)\""/>"",""<circle cx=\""50\"" cy=\""50\"" r=\""10\"" fill=\""none\"" transform=\""translate(0 -30)\"" stroke=\""yellow\"" />"",""<path d=\""M 50 57 L 50 43\"" stroke=\""black\"" transform=\""translate(0 -30) rotate(45 50 50)\""/>"",""<circle cx=\""50\"" cy=\""50\"" r=\""10\"" fill=\""none\"" transform=\""translate(26 -15)\"" stroke=\""blue\"" />"",""<path d=\""M 50 57 L 50 43\"" stroke=\""black\"" transform=\""translate(26 -15) rotate(45 50 50)\""/>"",""</svg>""]","m","VDACtest","r","2","v","true","low","","","",""
"","html-keyboard-response","125","494805","0.0-3.0-2.26","tex","[""g""]","","null","<p style=""font-size:300%;""> + 2 points.</p><p style=""font-size:300%"">Total: 162 points.</p>","null","","","","","","","162","","",""
"","html-keyboard-response","126","496240","0.0-3.0-0.27","tex","[""g""]","","null","<svg viewBox=""0 0 100 100"" > <path d=""M 50 52 L 50 48"" stroke=""black"" stroke-width="".5""/> <path d=""M 52 50 L 48 50"" stroke=""black"" stroke-width="".5""/>","null","","","","","","","","","",""
"","html-keyboard-response","127","496894","0.0-3.0-1.27","tex","[""g""]","","651","[""<svg viewBox=\""0 0 100 100\"" >"",""<path d=\""M 50 52 L 50 48\"" stroke=\""black\"" stroke-width=\"".5\""/>"","" <path d=\""M 52 50 L 48 50\"" stroke=\""black\"" stroke-width=\"".5\""/>"",""<circle cx=\""50\"" cy=\""50\"" r=\""10\"" fill=\""none\"" transform=\""translate(26 15)\"" stroke=\""blue\"" />"",""<path d=\""M 50 57 L 50 43\"" stroke=\""black\"" transform=\""translate(26 15) rotate(45 50 50)\""/>"",""<circle cx=\""50\"" cy=\""50\"" r=\""10\"" fill=\""none\"" transform=\""translate(0 30)\"" stroke=\""black\"" />"",""<path d=\""M 50 57 L 50 43\"" stroke=\""black\"" transform=\""translate(0 30) rotate(-45 50 50)\""/>"",""<circle cx=\""50\"" cy=\""50\"" r=\""10\"" fill=\""none\"" transform=\""translate(-26 15)\"" stroke=\""cyan\"" />"",""<path d=\""M 50 57 L 50 43\"" stroke=\""black\"" transform=\""translate(-26 15) rotate(45 50 50)\""/>"",""<circle cx=\""50\"" cy=\""50\"" r=\""10\"" fill=\""none\"" transform=\""translate(-26 -15)\"" stroke=\""yellow\"" />"",""<path d=\""M 50 57 L 50 43\"" stroke=\""black\"" transform=\""translate(-26 -15) rotate(45 50 50)\""/>"",""<circle cx=\""50\"" cy=\""50\"" r=\""10\"" fill=\""none\"" transform=\""translate(0 -30)\"" stroke=\""lime\"" />"",""<path d=\""M 50 57 L 50 43\"" stroke=\""black\"" transform=\""translate(0 -30) rotate(90 50 50)\""/>"",""<circle cx=\""50\"" cy=\""50\"" r=\""10\"" fill=\""none\"" transform=\""translate(26 -15)\"" stroke=\""magenta\"" />"",""<path d=\""M 50 57 L 50 43\"" stroke=\""black\"" transform=\""translate(26 -15) rotate(45 50 50)\""/>"",""</svg>""]","z","VDACtest","g","4","h","true","high","","","",""
"","html-keyboard-response","128","499396","0.0-3.0-2.27","tex","[""g""]","","null","<p style=""font-size:300%;""> + 10 points.</p><p style=""font-size:300%"">Total: 172 points.</p>","null","","","","","","","172","","",""
"","html-keyboard-response","129","500832","0.0-3.0-0.28","tex","[""g""]","","null","<svg viewBox=""0 0 100 100"" > <path d=""M 50 52 L 50 48"" stroke=""black"" stroke-width="".5""/> <path d=""M 52 50 L 48 50"" stroke=""black"" stroke-width="".5""/>","null","","","","","","","","","",""
"","html-keyboard-response","130","501559","0.0-3.0-1.28","tex","[""g""]","","723.3000001907349","[""<svg viewBox=\""0 0 100 100\"" >"",""<path d=\""M 50 52 L 50 48\"" stroke=\""black\"" stroke-width=\"".5\""/>"","" <path d=\""M 52 50 L 48 50\"" stroke=\""black\"" stroke-width=\"".5\""/>"",""<circle cx=\""50\"" cy=\""50\"" r=\""10\"" fill=\""none\"" transform=\""translate(26 15)\"" stroke=\""blue\"" />"",""<path d=\""M 50 57 L 50 43\"" stroke=\""black\"" transform=\""translate(26 15) rotate(45 50 50)\""/>"",""<circle cx=\""50\"" cy=\""50\"" r=\""10\"" fill=\""none\"" transform=\""translate(0 30)\"" stroke=\""cyan\"" />"",""<path d=\""M 50 57 L 50 43\"" stroke=\""black\"" transform=\""translate(0 30) rotate(45 50 50)\""/>"",""<circle cx=\""50\"" cy=\""50\"" r=\""10\"" fill=\""none\"" transform=\""translate(-26 15)\"" stroke=\""yellow\"" />"",""<path d=\""M 50 57 L 50 43\"" stroke=\""black\"" transform=\""translate(-26 15) rotate(-45 50 50)\""/>"",""<circle cx=\""50\"" cy=\""50\"" r=\""10\"" fill=\""none\"" transform=\""translate(-26 -15)\"" stroke=\""lime\"" />"",""<path d=\""M 50 57 L 50 43\"" stroke=\""black\"" transform=\""translate(-26 -15) rotate(0 50 50)\""/>"",""<circle cx=\""50\"" cy=\""50\"" r=\""10\"" fill=\""none\"" transform=\""translate(0 -30)\"" stroke=\""black\"" />"",""<path d=\""M 50 57 L 50 43\"" stroke=\""black\"" transform=\""translate(0 -30) rotate(-45 50 50)\""/>"",""<circle cx=\""50\"" cy=\""50\"" r=\""10\"" fill=\""none\"" transform=\""translate(26 -15)\"" stroke=\""magenta\"" />"",""<path d=\""M 50 57 L 50 43\"" stroke=\""black\"" transform=\""translate(26 -15) rotate(-45 50 50)\""/>"",""</svg>""]","m","VDACtest","g","3","v","true","high","","","",""
"","html-keyboard-response","131","504061","0.0-3.0-2.28","tex","[""g""]","","null","<p style=""font-size:300%;""> + 2 points.</p><p style=""font-size:300%"">Total: 174 points.</p>","null","","","","","","","174","","",""
"","html-keyboard-response","132","505496","0.0-3.0-0.29","tex","[""g""]","","null","<svg viewBox=""0 0 100 100"" > <path d=""M 50 52 L 50 48"" stroke=""black"" stroke-width="".5""/> <path d=""M 52 50 L 48 50"" stroke=""black"" stroke-width="".5""/>","null","","","","","","","","","",""
"","html-keyboard-response","133","506030","0.0-3.0-1.29","tex","[""g""]","","530.9000000953674","[""<svg viewBox=\""0 0 100 100\"" >"",""<path d=\""M 50 52 L 50 48\"" stroke=\""black\"" stroke-width=\"".5\""/>"","" <path d=\""M 52 50 L 48 50\"" stroke=\""black\"" stroke-width=\"".5\""/>"",""<circle cx=\""50\"" cy=\""50\"" r=\""10\"" fill=\""none\"" transform=\""translate(26 15)\"" stroke=\""blue\"" />"",""<path d=\""M 50 57 L 50 43\"" stroke=\""black\"" transform=\""translate(26 15) rotate(-45 50 50)\""/>"",""<circle cx=\""50\"" cy=\""50\"" r=\""10\"" fill=\""none\"" transform=\""translate(0 30)\"" stroke=\""black\"" />"",""<path d=\""M 50 57 L 50 43\"" stroke=\""black\"" transform=\""translate(0 30) rotate(-45 50 50)\""/>"",""<circle cx=\""50\"" cy=\""50\"" r=\""10\"" fill=\""none\"" transform=\""translate(-26 15)\"" stroke=\""cyan\"" />"",""<path d=\""M 50 57 L 50 43\"" stroke=\""black\"" transform=\""translate(-26 15) rotate(45 50 50)\""/>"",""<circle cx=\""50\"" cy=\""50\"" r=\""10\"" fill=\""none\"" transform=\""translate(-26 -15)\"" stroke=\""yellow\"" />"",""<path d=\""M 50 57 L 50 43\"" stroke=\""black\"" transform=\""translate(-26 -15) rotate(-45 50 50)\""/>"",""<circle cx=\""50\"" cy=\""50\"" r=\""10\"" fill=\""none\"" transform=\""translate(0 -30)\"" stroke=\""magenta\"" />"",""<path d=\""M 50 57 L 50 43\"" stroke=\""black\"" transform=\""translate(0 -30) rotate(45 50 50)\""/>"",""<circle cx=\""50\"" cy=\""50\"" r=\""10\"" fill=\""none\"" transform=\""translate(26 -15)\"" stroke=\""lime\"" />"",""<path d=\""M 50 57 L 50 43\"" stroke=\""black\"" transform=\""translate(26 -15) rotate(0 50 50)\""/>"",""</svg>""]","m","VDACtest","g","5","v","true","high","","","",""
"","html-keyboard-response","134","508533","0.0-3.0-2.29","tex","[""g""]","","null","<p style=""font-size:300%;""> + 10 points.</p><p style=""font-size:300%"">Total: 184 points.</p>","null","","","","","","","184","","",""
"","html-keyboard-response","135","509969","0.0-3.0-0.30","tex","[""g""]","","null","<svg viewBox=""0 0 100 100"" > <path d=""M 50 52 L 50 48"" stroke=""black"" stroke-width="".5""/> <path d=""M 52 50 L 48 50"" stroke=""black"" stroke-width="".5""/>","null","","","","","","","","","",""
"","html-keyboard-response","136","510927","0.0-3.0-1.30","tex","[""g""]","","954","[""<svg viewBox=\""0 0 100 100\"" >"",""<path d=\""M 50 52 L 50 48\"" stroke=\""black\"" stroke-width=\"".5\""/>"","" <path d=\""M 52 50 L 48 50\"" stroke=\""black\"" stroke-width=\"".5\""/>"",""<circle cx=\""50\"" cy=\""50\"" r=\""10\"" fill=\""none\"" transform=\""translate(26 15)\"" stroke=\""yellow\"" />"",""<path d=\""M 50 57 L 50 43\"" stroke=\""black\"" transform=\""translate(26 15) rotate(45 50 50)\""/>"",""<circle cx=\""50\"" cy=\""50\"" r=\""10\"" fill=\""none\"" transform=\""translate(0 30)\"" stroke=\""black\"" />"",""<path d=\""M 50 57 L 50 43\"" stroke=\""black\"" transform=\""translate(0 30) rotate(-45 50 50)\""/>"",""<circle cx=\""50\"" cy=\""50\"" r=\""10\"" fill=\""none\"" transform=\""translate(-26 15)\"" stroke=\""cyan\"" />"",""<path d=\""M 50 57 L 50 43\"" stroke=\""black\"" transform=\""translate(-26 15) rotate(-45 50 50)\""/>"",""<circle cx=\""50\"" cy=\""50\"" r=\""10\"" fill=\""none\"" transform=\""translate(-26 -15)\"" stroke=\""red\"" />"",""<path d=\""M 50 57 L 50 43\"" stroke=\""black\"" transform=\""translate(-26 -15) rotate(90 50 50)\""/>"",""<circle cx=\""50\"" cy=\""50\"" r=\""10\"" fill=\""none\"" transform=\""translate(0 -30)\"" stroke=\""magenta\"" />"",""<path d=\""M 50 57 L 50 43\"" stroke=\""black\"" transform=\""translate(0 -30) rotate(45 50 50)\""/>"",""<circle cx=\""50\"" cy=\""50\"" r=\""10\"" fill=\""none\"" transform=\""translate(26 -15)\"" stroke=\""blue\"" />"",""<path d=\""M 50 57 L 50 43\"" stroke=\""black\"" transform=\""translate(26 -15) rotate(45 50 50)\""/>"",""</svg>""]","z","VDACtest","r","3","h","true","low","","","",""
"","html-keyboard-response","137","513429","0.0-3.0-2.30","tex","[""g""]","","null","<p style=""font-size:300%;""> + 2 points.</p><p style=""font-size:300%"">Total: 186 points.</p>","null","","","","","","","186","","",""
"","html-keyboard-response","138","514864","0.0-3.0-0.31","tex","[""g""]","","null","<svg viewBox=""0 0 100 100"" > <path d=""M 50 52 L 50 48"" stroke=""black"" stroke-width="".5""/> <path d=""M 52 50 L 48 50"" stroke=""black"" stroke-width="".5""/>","null","","","","","","","","","",""
"","html-keyboard-response","139","515607","0.0-3.0-1.31","tex","[""g""]","","739.7000000476837","[""<svg viewBox=\""0 0 100 100\"" >"",""<path d=\""M 50 52 L 50 48\"" stroke=\""black\"" stroke-width=\"".5\""/>"","" <path d=\""M 52 50 L 48 50\"" stroke=\""black\"" stroke-width=\"".5\""/>"",""<circle cx=\""50\"" cy=\""50\"" r=\""10\"" fill=\""none\"" transform=\""translate(26 15)\"" stroke=\""cyan\"" />"",""<path d=\""M 50 57 L 50 43\"" stroke=\""black\"" transform=\""translate(26 15) rotate(-45 50 50)\""/>"",""<circle cx=\""50\"" cy=\""50\"" r=\""10\"" fill=\""none\"" transform=\""translate(0 30)\"" stroke=\""yellow\"" />"",""<path d=\""M 50 57 L 50 43\"" stroke=\""black\"" transform=\""translate(0 30) rotate(45 50 50)\""/>"",""<circle cx=\""50\"" cy=\""50\"" r=\""10\"" fill=\""none\"" transform=\""translate(-26 15)\"" stroke=\""black\"" />"",""<path d=\""M 50 57 L 50 43\"" stroke=\""black\"" transform=\""translate(-26 15) rotate(45 50 50)\""/>"",""<circle cx=\""50\"" cy=\""50\"" r=\""10\"" fill=\""none\"" transform=\""translate(-26 -15)\"" stroke=\""lime\"" />"",""<path d=\""M 50 57 L 50 43\"" stroke=\""black\"" transform=\""translate(-26 -15) rotate(90 50 50)\""/>"",""<circle cx=\""50\"" cy=\""50\"" r=\""10\"" fill=\""none\"" transform=\""translate(0 -30)\"" stroke=\""magenta\"" />"",""<path d=\""M 50 57 L 50 43\"" stroke=\""black\"" transform=\""translate(0 -30) rotate(-45 50 50)\""/>"",""<circle cx=\""50\"" cy=\""50\"" r=\""10\"" fill=\""none\"" transform=\""translate(26 -15)\"" stroke=\""blue\"" />"",""<path d=\""M 50 57 L 50 43\"" stroke=\""black\"" transform=\""translate(26 -15) rotate(-45 50 50)\""/>"",""</svg>""]","z","VDACtest","g","3","h","true","high","","","",""
"","html-keyboard-response","140","518108","0.0-3.0-2.31","tex","[""g""]","","null","<p style=""font-size:300%;""> + 10 points.</p><p style=""font-size:300%"">Total: 196 points.</p>","null","","","","","","","196","","",""
"","html-keyboard-response","141","519543","0.0-3.0-0.32","tex","[""g""]","","null","<svg viewBox=""0 0 100 100"" > <path d=""M 50 52 L 50 48"" stroke=""black"" stroke-width="".5""/> <path d=""M 52 50 L 48 50"" stroke=""black"" stroke-width="".5""/>","null","","","","","","","","","",""
"","html-keyboard-response","142","520118","0.0-3.0-1.32","tex","[""g""]","","571.6999998092651","[""<svg viewBox=\""0 0 100 100\"" >"",""<path d=\""M 50 52 L 50 48\"" stroke=\""black\"" stroke-width=\"".5\""/>"","" <path d=\""M 52 50 L 48 50\"" stroke=\""black\"" stroke-width=\"".5\""/>"",""<circle cx=\""50\"" cy=\""50\"" r=\""10\"" fill=\""none\"" transform=\""translate(26 15)\"" stroke=\""magenta\"" />"",""<path d=\""M 50 57 L 50 43\"" stroke=\""black\"" transform=\""translate(26 15) rotate(45 50 50)\""/>"",""<circle cx=\""50\"" cy=\""50\"" r=\""10\"" fill=\""none\"" transform=\""translate(0 30)\"" stroke=\""blue\"" />"",""<path d=\""M 50 57 L 50 43\"" stroke=\""black\"" transform=\""translate(0 30) rotate(45 50 50)\""/>"",""<circle cx=\""50\"" cy=\""50\"" r=\""10\"" fill=\""none\"" transform=\""translate(-26 15)\"" stroke=\""yellow\"" />"",""<path d=\""M 50 57 L 50 43\"" stroke=\""black\"" transform=\""translate(-26 15) rotate(-45 50 50)\""/>"",""<circle cx=\""50\"" cy=\""50\"" r=\""10\"" fill=\""none\"" transform=\""translate(-26 -15)\"" stroke=\""black\"" />"",""<path d=\""M 50 57 L 50 43\"" stroke=\""black\"" transform=\""translate(-26 -15) rotate(-45 50 50)\""/>"",""<circle cx=\""50\"" cy=\""50\"" r=\""10\"" fill=\""none\"" transform=\""translate(0 -30)\"" stroke=\""red\"" />"",""<path d=\""M 50 57 L 50 43\"" stroke=\""black\"" transform=\""translate(0 -30) rotate(90 50 50)\""/>"",""<circle cx=\""50\"" cy=\""50\"" r=\""10\"" fill=\""none\"" transform=\""translate(26 -15)\"" stroke=\""cyan\"" />"",""<path d=\""M 50 57 L 50 43\"" stroke=\""black\"" transform=\""translate(26 -15) rotate(-45 50 50)\""/>"",""</svg>""]","m","VDACtest","r","4","h","false","low","","","",""
"","html-keyboard-response","143","522620","0.0-3.0-2.32","tex","[""g""]","","null","<p style=""font-size:300%;"">Miss.</p><p style=""font-size:300%"">Total: 196 points.</p>","null","","","","","","","196","","",""
"","html-keyboard-response","144","524056","0.0-3.0-0.33","tex","[""g""]","","null","<svg viewBox=""0 0 100 100"" > <path d=""M 50 52 L 50 48"" stroke=""black"" stroke-width="".5""/> <path d=""M 52 50 L 48 50"" stroke=""black"" stroke-width="".5""/>","null","","","","","","","","","",""
