"success","trial_type","trial_index","time_elapsed","internal_node_id","subject","condition","view_history","rt","stimulus","response","trialType","tgtCol","tgtPos","tgtDir","correct","rwdType","reward","value","colPos","question_order"
"true","fullscreen","0","253245","0.0-0.0","3pn","[""g""]","","","","","","","","","","","","","",""
"","instructions","1","358297","0.0-1.0-0.0","3pn","[""g""]","[{""page_index"":0,""viewing_time"":18705.200000286102},{""page_index"":1,""viewing_time"":19447.799999713898},{""page_index"":2,""viewing_time"":11719.900000095367},{""page_index"":3,""viewing_time"":3728.0999999046326},{""page_index"":4,""viewing_time"":4695.900000095367},{""page_index"":5,""viewing_time"":3976},{""page_index"":4,""viewing_time"":440},{""page_index"":3,""viewing_time"":3079.9000000953674},{""page_index"":4,""viewing_time"":6655.900000095367},{""page_index"":5,""viewing_time"":4200},{""page_index"":6,""viewing_time"":5856.099999904633},{""page_index"":7,""viewing_time"":3359.9000000953674},{""page_index"":8,""viewing_time"":3696},{""page_index"":9,""viewing_time"":15487.89999961853}]","105049.30000019073","","","","","","","","","","","",""
"","html-keyboard-response","2","361299","0.0-1.0-1.0-0.0","3pn","[""g""]","","null","<p>Place your fingers on the <b>z</b> and <b>m</b> keys. The experiment will begin shortly.</p> <p></p>","null","","","","","","","","","",""
"","html-keyboard-response","3","362301","0.0-1.0-1.0-1.0","3pn","[""g""]","","null","<p>Place your fingers on the <b>z</b> and <b>m</b> keys. </b>The experiment will begin shortly.</p><p>5</p>","null","","","","","","","","","",""
"","html-keyboard-response","4","363303","0.0-1.0-1.0-2.0","3pn","[""g""]","","null","<p>Place your fingers on the <b>z</b> and <b>m</b> keys. </b>The experiment will begin shortly.</p><p>4</p>","null","","","","","","","","","",""
"","html-keyboard-response","5","364305","0.0-1.0-1.0-3.0","3pn","[""g""]","","null","<p>Place your fingers on the <b>z</b> and <b>m</b> keys. </b>The experiment will begin shortly.</p><p>3</p>","null","","","","","","","","","",""
"","html-keyboard-response","6","365307","0.0-1.0-1.0-4.0","3pn","[""g""]","","null","<p>Place your fingers on the <b>z</b> and <b>m</b> keys. </b>The experiment will begin shortly.</p><p>2</p>","null","","","","","","","","","",""
"","html-keyboard-response","7","366309","0.0-1.0-1.0-5.0","3pn","[""g""]","","null","<p>Place your fingers on the <b>z</b> and <b>m</b> keys. </b>The experiment will begin shortly.</p><p>1</p>","null","","","","","","","","","",""
"","html-keyboard-response","8","366810","0.0-1.0-2.0-0.0","3pn","[""g""]","","null","<svg viewBox=""0 0 100 100"" > <path d=""M 50 52 L 50 48"" stroke=""black"" stroke-width="".5""/> <path d=""M 52 50 L 48 50"" stroke=""black"" stroke-width="".5""/>","null","","","","","","","","","",""
"","html-keyboard-response","9","367816","0.0-1.0-2.0-1.0","3pn","[""g""]","","null","[""<svg viewBox=\""0 0 100 100\"" >"",""<text font-size=\""10%\"" text-anchor=\""middle\""  x=\""50\"" y=\""98\"">Press z for horizontal or m for vertical</text>"",""<path d=\""M 50 52 L 50 48\"" stroke=\""black\"" stroke-width=\"".5\""/> <path d=\""M 52 50 L 48 50\"" stroke=\""black\"" stroke-width=\"".5\""/>"",""<circle cx=\""50\"" cy=\""50\"" r=\""10\"" fill=\""none\"" transform=\""translate(26 15)\"" stroke=\""blue\"" /><path d=\""M 50 57 L 50 43\"" stroke=\""black\"" transform=\""translate(26 15) rotate(45 50 50)\""/>"",""<circle cx=\""50\"" cy=\""50\"" r=\""10\"" fill=\""none\"" transform=\""translate(0 30)\"" stroke=\""cyan\"" /><path d=\""M 50 57 L 50 43\"" stroke=\""black\"" transform=\""translate(0 30) rotate(-45 50 50)\""/>"",""<circle cx=\""50\"" cy=\""50\"" r=\""10\"" fill=\""none\"" transform=\""translate(-26 15)\"" stroke=\""black\"" /><path d=\""M 50 57 L 50 43\"" stroke=\""black\"" transform=\""translate(-26 15) rotate(-45 50 50)\""/>"",""<circle cx=\""50\"" cy=\""50\"" r=\""10\"" fill=\""none\"" transform=\""translate(-26 -15)\"" stroke=\""magenta\"" /><path d=\""M 50 57 L 50 43\"" stroke=\""black\"" transform=\""translate(-26 -15) rotate(45 50 50)\""/>"",""<circle cx=\""50\"" cy=\""50\"" r=\""10\"" fill=\""none\"" transform=\""translate(0 -30)\"" stroke=\""red\"" /><path d=\""M 50 57 L 50 43\"" stroke=\""black\"" transform=\""translate(0 -30) rotate(0 50 50)\""/>"",""<circle cx=\""50\"" cy=\""50\"" r=\""10\"" fill=\""none\"" transform=\""translate(26 -15)\"" stroke=\""yellow\"" /><path d=\""M 50 57 L 50 43\"" stroke=\""black\"" transform=\""translate(26 -15) rotate(-45 50 50)\""/>"",""</svg>""]","null","VDACtrain","r","4","v","null","low","","","",""
"","html-keyboard-response","10","370321","0.0-1.0-2.0-2.0","3pn","[""g""]","","null","<p style=""font-size:300%;"">Miss.</p> <p style=""font-size:300%;"">Too slow.</p>","null","","","","","","","","","",""
"","html-keyboard-response","11","371822","0.0-1.0-2.0-0.1","3pn","[""g""]","","null","<svg viewBox=""0 0 100 100"" > <path d=""M 50 52 L 50 48"" stroke=""black"" stroke-width="".5""/> <path d=""M 52 50 L 48 50"" stroke=""black"" stroke-width="".5""/>","null","","","","","","","","","",""
"","html-keyboard-response","12","372825","0.0-1.0-2.0-1.1","3pn","[""g""]","","null","[""<svg viewBox=\""0 0 100 100\"" >"",""<text font-size=\""10%\"" text-anchor=\""middle\""  x=\""50\"" y=\""98\"">Press z for horizontal or m for vertical</text>"",""<path d=\""M 50 52 L 50 48\"" stroke=\""black\"" stroke-width=\"".5\""/> <path d=\""M 52 50 L 48 50\"" stroke=\""black\"" stroke-width=\"".5\""/>"",""<circle cx=\""50\"" cy=\""50\"" r=\""10\"" fill=\""none\"" transform=\""translate(26 15)\"" stroke=\""magenta\"" /><path d=\""M 50 57 L 50 43\"" stroke=\""black\"" transform=\""translate(26 15) rotate(45 50 50)\""/>"",""<circle cx=\""50\"" cy=\""50\"" r=\""10\"" fill=\""none\"" transform=\""translate(0 30)\"" stroke=\""cyan\"" /><path d=\""M 50 57 L 50 43\"" stroke=\""black\"" transform=\""translate(0 30) rotate(-45 50 50)\""/>"",""<circle cx=\""50\"" cy=\""50\"" r=\""10\"" fill=\""none\"" transform=\""translate(-26 15)\"" stroke=\""red\"" /><path d=\""M 50 57 L 50 43\"" stroke=\""black\"" transform=\""translate(-26 15) rotate(90 50 50)\""/>"",""<circle cx=\""50\"" cy=\""50\"" r=\""10\"" fill=\""none\"" transform=\""translate(-26 -15)\"" stroke=\""blue\"" /><path d=\""M 50 57 L 50 43\"" stroke=\""black\"" transform=\""translate(-26 -15) rotate(-45 50 50)\""/>"",""<circle cx=\""50\"" cy=\""50\"" r=\""10\"" fill=\""none\"" transform=\""translate(0 -30)\"" stroke=\""black\"" /><path d=\""M 50 57 L 50 43\"" stroke=\""black\"" transform=\""translate(0 -30) rotate(45 50 50)\""/>"",""<circle cx=\""50\"" cy=\""50\"" r=\""10\"" fill=\""none\"" transform=\""translate(26 -15)\"" stroke=\""yellow\"" /><path d=\""M 50 57 L 50 43\"" stroke=\""black\"" transform=\""translate(26 -15) rotate(45 50 50)\""/>"",""</svg>""]","null","VDACtrain","r","2","h","null","low","","","",""
"","html-keyboard-response","13","375328","0.0-1.0-2.0-2.1","3pn","[""g""]","","null","<p style=""font-size:300%;"">Miss.</p> <p style=""font-size:300%;"">Too slow.</p>","null","","","","","","","","","",""
"","html-keyboard-response","14","376830","0.0-1.0-2.0-0.2","3pn","[""g""]","","null","<svg viewBox=""0 0 100 100"" > <path d=""M 50 52 L 50 48"" stroke=""black"" stroke-width="".5""/> <path d=""M 52 50 L 48 50"" stroke=""black"" stroke-width="".5""/>","null","","","","","","","","","",""
"","html-keyboard-response","15","377566","0.0-1.0-2.0-1.2","3pn","[""g""]","","732.6000003814697","[""<svg viewBox=\""0 0 100 100\"" >"",""<text font-size=\""10%\"" text-anchor=\""middle\""  x=\""50\"" y=\""98\"">Press z for horizontal or m for vertical</text>"",""<path d=\""M 50 52 L 50 48\"" stroke=\""black\"" stroke-width=\"".5\""/> <path d=\""M 52 50 L 48 50\"" stroke=\""black\"" stroke-width=\"".5\""/>"",""<circle cx=\""50\"" cy=\""50\"" r=\""10\"" fill=\""none\"" transform=\""translate(26 15)\"" stroke=\""black\"" /><path d=\""M 50 57 L 50 43\"" stroke=\""black\"" transform=\""translate(26 15) rotate(-45 50 50)\""/>"",""<circle cx=\""50\"" cy=\""50\"" r=\""10\"" fill=\""none\"" transform=\""translate(0 30)\"" stroke=\""blue\"" /><path d=\""M 50 57 L 50 43\"" stroke=\""black\"" transform=\""translate(0 30) rotate(45 50 50)\""/>"",""<circle cx=\""50\"" cy=\""50\"" r=\""10\"" fill=\""none\"" transform=\""translate(-26 15)\"" stroke=\""lime\"" /><path d=\""M 50 57 L 50 43\"" stroke=\""black\"" transform=\""translate(-26 15) rotate(0 50 50)\""/>"",""<circle cx=\""50\"" cy=\""50\"" r=\""10\"" fill=\""none\"" transform=\""translate(-26 -15)\"" stroke=\""magenta\"" /><path d=\""M 50 57 L 50 43\"" stroke=\""black\"" transform=\""translate(-26 -15) rotate(45 50 50)\""/>"",""<circle cx=\""50\"" cy=\""50\"" r=\""10\"" fill=\""none\"" transform=\""translate(0 -30)\"" stroke=\""yellow\"" /><path d=\""M 50 57 L 50 43\"" stroke=\""black\"" transform=\""translate(0 -30) rotate(45 50 50)\""/>"",""<circle cx=\""50\"" cy=\""50\"" r=\""10\"" fill=\""none\"" transform=\""translate(26 -15)\"" stroke=\""cyan\"" /><path d=\""M 50 57 L 50 43\"" stroke=\""black\"" transform=\""translate(26 -15) rotate(45 50 50)\""/>"",""</svg>""]","m","VDACtrain","g","2","v","true","high","","","",""
"","html-keyboard-response","16","380069","0.0-1.0-2.0-2.2","3pn","[""g""]","","null","<p style=""font-size:300%;"">Correct!</p>","null","","","","","","","","","",""
"","html-keyboard-response","17","381568","0.0-1.0-2.0-0.3","3pn","[""g""]","","null","<svg viewBox=""0 0 100 100"" > <path d=""M 50 52 L 50 48"" stroke=""black"" stroke-width="".5""/> <path d=""M 52 50 L 48 50"" stroke=""black"" stroke-width="".5""/>","null","","","","","","","","","",""
"","html-keyboard-response","18","382276","0.0-1.0-2.0-1.3","3pn","[""g""]","","704.5","[""<svg viewBox=\""0 0 100 100\"" >"",""<text font-size=\""10%\"" text-anchor=\""middle\""  x=\""50\"" y=\""98\"">Press z for horizontal or m for vertical</text>"",""<path d=\""M 50 52 L 50 48\"" stroke=\""black\"" stroke-width=\"".5\""/> <path d=\""M 52 50 L 48 50\"" stroke=\""black\"" stroke-width=\"".5\""/>"",""<circle cx=\""50\"" cy=\""50\"" r=\""10\"" fill=\""none\"" transform=\""translate(26 15)\"" stroke=\""cyan\"" /><path d=\""M 50 57 L 50 43\"" stroke=\""black\"" transform=\""translate(26 15) rotate(-45 50 50)\""/>"",""<circle cx=\""50\"" cy=\""50\"" r=\""10\"" fill=\""none\"" transform=\""translate(0 30)\"" stroke=\""yellow\"" /><path d=\""M 50 57 L 50 43\"" stroke=\""black\"" transform=\""translate(0 30) rotate(-45 50 50)\""/>"",""<circle cx=\""50\"" cy=\""50\"" r=\""10\"" fill=\""none\"" transform=\""translate(-26 15)\"" stroke=\""black\"" /><path d=\""M 50 57 L 50 43\"" stroke=\""black\"" transform=\""translate(-26 15) rotate(-45 50 50)\""/>"",""<circle cx=\""50\"" cy=\""50\"" r=\""10\"" fill=\""none\"" transform=\""translate(-26 -15)\"" stroke=\""lime\"" /><path d=\""M 50 57 L 50 43\"" stroke=\""black\"" transform=\""translate(-26 -15) rotate(90 50 50)\""/>"",""<circle cx=\""50\"" cy=\""50\"" r=\""10\"" fill=\""none\"" transform=\""translate(0 -30)\"" stroke=\""blue\"" /><path d=\""M 50 57 L 50 43\"" stroke=\""black\"" transform=\""translate(0 -30) rotate(45 50 50)\""/>"",""<circle cx=\""50\"" cy=\""50\"" r=\""10\"" fill=\""none\"" transform=\""translate(26 -15)\"" stroke=\""magenta\"" /><path d=\""M 50 57 L 50 43\"" stroke=\""black\"" transform=\""translate(26 -15) rotate(45 50 50)\""/>"",""</svg>""]","z","VDACtrain","g","3","h","true","high","","","",""
"","html-keyboard-response","19","384779","0.0-1.0-2.0-2.3","3pn","[""g""]","","null","<p style=""font-size:300%;"">Correct!</p>","null","","","","","","","","","",""
"","html-keyboard-response","20","386281","0.0-1.0-2.0-0.4","3pn","[""g""]","","null","<svg viewBox=""0 0 100 100"" > <path d=""M 50 52 L 50 48"" stroke=""black"" stroke-width="".5""/> <path d=""M 52 50 L 48 50"" stroke=""black"" stroke-width="".5""/>","null","","","","","","","","","",""
"","html-keyboard-response","21","386942","0.0-1.0-2.0-1.4","3pn","[""g""]","","657.7000002861023","[""<svg viewBox=\""0 0 100 100\"" >"",""<text font-size=\""10%\"" text-anchor=\""middle\""  x=\""50\"" y=\""98\"">Press z for horizontal or m for vertical</text>"",""<path d=\""M 50 52 L 50 48\"" stroke=\""black\"" stroke-width=\"".5\""/> <path d=\""M 52 50 L 48 50\"" stroke=\""black\"" stroke-width=\"".5\""/>"",""<circle cx=\""50\"" cy=\""50\"" r=\""10\"" fill=\""none\"" transform=\""translate(26 15)\"" stroke=\""yellow\"" /><path d=\""M 50 57 L 50 43\"" stroke=\""black\"" transform=\""translate(26 15) rotate(45 50 50)\""/>"",""<circle cx=\""50\"" cy=\""50\"" r=\""10\"" fill=\""none\"" transform=\""translate(0 30)\"" stroke=\""black\"" /><path d=\""M 50 57 L 50 43\"" stroke=\""black\"" transform=\""translate(0 30) rotate(45 50 50)\""/>"",""<circle cx=\""50\"" cy=\""50\"" r=\""10\"" fill=\""none\"" transform=\""translate(-26 15)\"" stroke=\""cyan\"" /><path d=\""M 50 57 L 50 43\"" stroke=\""black\"" transform=\""translate(-26 15) rotate(-45 50 50)\""/>"",""<circle cx=\""50\"" cy=\""50\"" r=\""10\"" fill=\""none\"" transform=\""translate(-26 -15)\"" stroke=\""blue\"" /><path d=\""M 50 57 L 50 43\"" stroke=\""black\"" transform=\""translate(-26 -15) rotate(-45 50 50)\""/>"",""<circle cx=\""50\"" cy=\""50\"" r=\""10\"" fill=\""none\"" transform=\""translate(0 -30)\"" stroke=\""magenta\"" /><path d=\""M 50 57 L 50 43\"" stroke=\""black\"" transform=\""translate(0 -30) rotate(-45 50 50)\""/>"",""<circle cx=\""50\"" cy=\""50\"" r=\""10\"" fill=\""none\"" transform=\""translate(26 -15)\"" stroke=\""lime\"" /><path d=\""M 50 57 L 50 43\"" stroke=\""black\"" transform=\""translate(26 -15) rotate(90 50 50)\""/>"",""</svg>""]","z","VDACtrain","g","5","h","true","high","","","",""
"","html-keyboard-response","22","389445","0.0-1.0-2.0-2.4","3pn","[""g""]","","null","<p style=""font-size:300%;"">Correct!</p>","null","","","","","","","","","",""
"","html-keyboard-response","23","390946","0.0-1.0-2.0-0.5","3pn","[""g""]","","null","<svg viewBox=""0 0 100 100"" > <path d=""M 50 52 L 50 48"" stroke=""black"" stroke-width="".5""/> <path d=""M 52 50 L 48 50"" stroke=""black"" stroke-width="".5""/>","null","","","","","","","","","",""
"","html-keyboard-response","24","391598","0.0-1.0-2.0-1.5","3pn","[""g""]","","648","[""<svg viewBox=\""0 0 100 100\"" >"",""<text font-size=\""10%\"" text-anchor=\""middle\""  x=\""50\"" y=\""98\"">Press z for horizontal or m for vertical</text>"",""<path d=\""M 50 52 L 50 48\"" stroke=\""black\"" stroke-width=\"".5\""/> <path d=\""M 52 50 L 48 50\"" stroke=\""black\"" stroke-width=\"".5\""/>"",""<circle cx=\""50\"" cy=\""50\"" r=\""10\"" fill=\""none\"" transform=\""translate(26 15)\"" stroke=\""red\"" /><path d=\""M 50 57 L 50 43\"" stroke=\""black\"" transform=\""translate(26 15) rotate(90 50 50)\""/>"",""<circle cx=\""50\"" cy=\""50\"" r=\""10\"" fill=\""none\"" transform=\""translate(0 30)\"" stroke=\""cyan\"" /><path d=\""M 50 57 L 50 43\"" stroke=\""black\"" transform=\""translate(0 30) rotate(-45 50 50)\""/>"",""<circle cx=\""50\"" cy=\""50\"" r=\""10\"" fill=\""none\"" transform=\""translate(-26 15)\"" stroke=\""yellow\"" /><path d=\""M 50 57 L 50 43\"" stroke=\""black\"" transform=\""translate(-26 15) rotate(-45 50 50)\""/>"",""<circle cx=\""50\"" cy=\""50\"" r=\""10\"" fill=\""none\"" transform=\""translate(-26 -15)\"" stroke=\""black\"" /><path d=\""M 50 57 L 50 43\"" stroke=\""black\"" transform=\""translate(-26 -15) rotate(45 50 50)\""/>"",""<circle cx=\""50\"" cy=\""50\"" r=\""10\"" fill=\""none\"" transform=\""translate(0 -30)\"" stroke=\""blue\"" /><path d=\""M 50 57 L 50 43\"" stroke=\""black\"" transform=\""translate(0 -30) rotate(45 50 50)\""/>"",""<circle cx=\""50\"" cy=\""50\"" r=\""10\"" fill=\""none\"" transform=\""translate(26 -15)\"" stroke=\""magenta\"" /><path d=\""M 50 57 L 50 43\"" stroke=\""black\"" transform=\""translate(26 -15) rotate(-45 50 50)\""/>"",""</svg>""]","z","VDACtrain","r","0","h","true","low","","","",""
"","html-keyboard-response","25","394100","0.0-1.0-2.0-2.5","3pn","[""g""]","","null","<p style=""font-size:300%;"">Correct!</p>","null","","","","","","","","","",""
"","html-keyboard-response","26","395600","0.0-1.0-2.0-0.6","3pn","[""g""]","","null","<svg viewBox=""0 0 100 100"" > <path d=""M 50 52 L 50 48"" stroke=""black"" stroke-width="".5""/> <path d=""M 52 50 L 48 50"" stroke=""black"" stroke-width="".5""/>","null","","","","","","","","","",""
"","html-keyboard-response","27","396086","0.0-1.0-2.0-1.6","3pn","[""g""]","","482.59999990463257","[""<svg viewBox=\""0 0 100 100\"" >"",""<text font-size=\""10%\"" text-anchor=\""middle\""  x=\""50\"" y=\""98\"">Press z for horizontal or m for vertical</text>"",""<path d=\""M 50 52 L 50 48\"" stroke=\""black\"" stroke-width=\"".5\""/> <path d=\""M 52 50 L 48 50\"" stroke=\""black\"" stroke-width=\"".5\""/>"",""<circle cx=\""50\"" cy=\""50\"" r=\""10\"" fill=\""none\"" transform=\""translate(26 15)\"" stroke=\""magenta\"" /><path d=\""M 50 57 L 50 43\"" stroke=\""black\"" transform=\""translate(26 15) rotate(-45 50 50)\""/>"",""<circle cx=\""50\"" cy=\""50\"" r=\""10\"" fill=\""none\"" transform=\""translate(0 30)\"" stroke=\""black\"" /><path d=\""M 50 57 L 50 43\"" stroke=\""black\"" transform=\""translate(0 30) rotate(45 50 50)\""/>"",""<circle cx=\""50\"" cy=\""50\"" r=\""10\"" fill=\""none\"" transform=\""translate(-26 15)\"" stroke=\""cyan\"" /><path d=\""M 50 57 L 50 43\"" stroke=\""black\"" transform=\""translate(-26 15) rotate(45 50 50)\""/>"",""<circle cx=\""50\"" cy=\""50\"" r=\""10\"" fill=\""none\"" transform=\""translate(-26 -15)\"" stroke=\""red\"" /><path d=\""M 50 57 L 50 43\"" stroke=\""black\"" transform=\""translate(-26 -15) rotate(0 50 50)\""/>"",""<circle cx=\""50\"" cy=\""50\"" r=\""10\"" fill=\""none\"" transform=\""translate(0 -30)\"" stroke=\""yellow\"" /><path d=\""M 50 57 L 50 43\"" stroke=\""black\"" transform=\""translate(0 -30) rotate(45 50 50)\""/>"",""<circle cx=\""50\"" cy=\""50\"" r=\""10\"" fill=\""none\"" transform=\""translate(26 -15)\"" stroke=\""blue\"" /><path d=\""M 50 57 L 50 43\"" stroke=\""black\"" transform=\""translate(26 -15) rotate(-45 50 50)\""/>"",""</svg>""]","m","VDACtrain","r","3","v","true","low","","","",""
"","html-keyboard-response","28","398589","0.0-1.0-2.0-2.6","3pn","[""g""]","","null","<p style=""font-size:300%;"">Correct!</p>","null","","","","","","","","","",""
"","html-keyboard-response","29","400090","0.0-1.0-2.0-0.7","3pn","[""g""]","","null","<svg viewBox=""0 0 100 100"" > <path d=""M 50 52 L 50 48"" stroke=""black"" stroke-width="".5""/> <path d=""M 52 50 L 48 50"" stroke=""black"" stroke-width="".5""/>","null","","","","","","","","","",""
"","html-keyboard-response","30","400742","0.0-1.0-2.0-1.7","3pn","[""g""]","","647.9000000953674","[""<svg viewBox=\""0 0 100 100\"" >"",""<text font-size=\""10%\"" text-anchor=\""middle\""  x=\""50\"" y=\""98\"">Press z for horizontal or m for vertical</text>"",""<path d=\""M 50 52 L 50 48\"" stroke=\""black\"" stroke-width=\"".5\""/> <path d=\""M 52 50 L 48 50\"" stroke=\""black\"" stroke-width=\"".5\""/>"",""<circle cx=\""50\"" cy=\""50\"" r=\""10\"" fill=\""none\"" transform=\""translate(26 15)\"" stroke=\""cyan\"" /><path d=\""M 50 57 L 50 43\"" stroke=\""black\"" transform=\""translate(26 15) rotate(-45 50 50)\""/>"",""<circle cx=\""50\"" cy=\""50\"" r=\""10\"" fill=\""none\"" transform=\""translate(0 30)\"" stroke=\""red\"" /><path d=\""M 50 57 L 50 43\"" stroke=\""black\"" transform=\""translate(0 30) rotate(90 50 50)\""/>"",""<circle cx=\""50\"" cy=\""50\"" r=\""10\"" fill=\""none\"" transform=\""translate(-26 15)\"" stroke=\""magenta\"" /><path d=\""M 50 57 L 50 43\"" stroke=\""black\"" transform=\""translate(-26 15) rotate(-45 50 50)\""/>"",""<circle cx=\""50\"" cy=\""50\"" r=\""10\"" fill=\""none\"" transform=\""translate(-26 -15)\"" stroke=\""yellow\"" /><path d=\""M 50 57 L 50 43\"" stroke=\""black\"" transform=\""translate(-26 -15) rotate(-45 50 50)\""/>"",""<circle cx=\""50\"" cy=\""50\"" r=\""10\"" fill=\""none\"" transform=\""translate(0 -30)\"" stroke=\""blue\"" /><path d=\""M 50 57 L 50 43\"" stroke=\""black\"" transform=\""translate(0 -30) rotate(-45 50 50)\""/>"",""<circle cx=\""50\"" cy=\""50\"" r=\""10\"" fill=\""none\"" transform=\""translate(26 -15)\"" stroke=\""black\"" /><path d=\""M 50 57 L 50 43\"" stroke=\""black\"" transform=\""translate(26 -15) rotate(-45 50 50)\""/>"",""</svg>""]","z","VDACtrain","r","1","h","true","low","","","",""
"","html-keyboard-response","31","403244","0.0-1.0-2.0-2.7","3pn","[""g""]","","null","<p style=""font-size:300%;"">Correct!</p>","null","","","","","","","","","",""
"","html-keyboard-response","32","404745","0.0-1.0-2.0-0.8","3pn","[""g""]","","null","<svg viewBox=""0 0 100 100"" > <path d=""M 50 52 L 50 48"" stroke=""black"" stroke-width="".5""/> <path d=""M 52 50 L 48 50"" stroke=""black"" stroke-width="".5""/>","null","","","","","","","","","",""
"","html-keyboard-response","33","405198","0.0-1.0-2.0-1.8","3pn","[""g""]","","449","[""<svg viewBox=\""0 0 100 100\"" >"",""<text font-size=\""10%\"" text-anchor=\""middle\""  x=\""50\"" y=\""98\"">Press z for horizontal or m for vertical</text>"",""<path d=\""M 50 52 L 50 48\"" stroke=\""black\"" stroke-width=\"".5\""/> <path d=\""M 52 50 L 48 50\"" stroke=\""black\"" stroke-width=\"".5\""/>"",""<circle cx=\""50\"" cy=\""50\"" r=\""10\"" fill=\""none\"" transform=\""translate(26 15)\"" stroke=\""black\"" /><path d=\""M 50 57 L 50 43\"" stroke=\""black\"" transform=\""translate(26 15) rotate(-45 50 50)\""/>"",""<circle cx=\""50\"" cy=\""50\"" r=\""10\"" fill=\""none\"" transform=\""translate(0 30)\"" stroke=\""cyan\"" /><path d=\""M 50 57 L 50 43\"" stroke=\""black\"" transform=\""translate(0 30) rotate(45 50 50)\""/>"",""<circle cx=\""50\"" cy=\""50\"" r=\""10\"" fill=\""none\"" transform=\""translate(-26 15)\"" stroke=\""yellow\"" /><path d=\""M 50 57 L 50 43\"" stroke=\""black\"" transform=\""translate(-26 15) rotate(-45 50 50)\""/>"",""<circle cx=\""50\"" cy=\""50\"" r=\""10\"" fill=\""none\"" transform=\""translate(-26 -15)\"" stroke=\""magenta\"" /><path d=\""M 50 57 L 50 43\"" stroke=\""black\"" transform=\""translate(-26 -15) rotate(45 50 50)\""/>"",""<circle cx=\""50\"" cy=\""50\"" r=\""10\"" fill=\""none\"" transform=\""translate(0 -30)\"" stroke=\""blue\"" /><path d=\""M 50 57 L 50 43\"" stroke=\""black\"" transform=\""translate(0 -30) rotate(45 50 50)\""/>"",""<circle cx=\""50\"" cy=\""50\"" r=\""10\"" fill=\""none\"" transform=\""translate(26 -15)\"" stroke=\""lime\"" /><path d=\""M 50 57 L 50 43\"" stroke=\""black\"" transform=\""translate(26 -15) rotate(0 50 50)\""/>"",""</svg>""]","m","VDACtrain","g","5","v","true","high","","","",""
"","html-keyboard-response","34","407700","0.0-1.0-2.0-2.8","3pn","[""g""]","","null","<p style=""font-size:300%;"">Correct!</p>","null","","","","","","","","","",""
"","html-keyboard-response","35","409200","0.0-1.0-2.0-0.9","3pn","[""g""]","","null","<svg viewBox=""0 0 100 100"" > <path d=""M 50 52 L 50 48"" stroke=""black"" stroke-width="".5""/> <path d=""M 52 50 L 48 50"" stroke=""black"" stroke-width="".5""/>","null","","","","","","","","","",""
"","html-keyboard-response","36","409886","0.0-1.0-2.0-1.9","3pn","[""g""]","","681.5999999046326","[""<svg viewBox=\""0 0 100 100\"" >"",""<text font-size=\""10%\"" text-anchor=\""middle\""  x=\""50\"" y=\""98\"">Press z for horizontal or m for vertical</text>"",""<path d=\""M 50 52 L 50 48\"" stroke=\""black\"" stroke-width=\"".5\""/> <path d=\""M 52 50 L 48 50\"" stroke=\""black\"" stroke-width=\"".5\""/>"",""<circle cx=\""50\"" cy=\""50\"" r=\""10\"" fill=\""none\"" transform=\""translate(26 15)\"" stroke=\""lime\"" /><path d=\""M 50 57 L 50 43\"" stroke=\""black\"" transform=\""translate(26 15) rotate(0 50 50)\""/>"",""<circle cx=\""50\"" cy=\""50\"" r=\""10\"" fill=\""none\"" transform=\""translate(0 30)\"" stroke=\""cyan\"" /><path d=\""M 50 57 L 50 43\"" stroke=\""black\"" transform=\""translate(0 30) rotate(-45 50 50)\""/>"",""<circle cx=\""50\"" cy=\""50\"" r=\""10\"" fill=\""none\"" transform=\""translate(-26 15)\"" stroke=\""magenta\"" /><path d=\""M 50 57 L 50 43\"" stroke=\""black\"" transform=\""translate(-26 15) rotate(45 50 50)\""/>"",""<circle cx=\""50\"" cy=\""50\"" r=\""10\"" fill=\""none\"" transform=\""translate(-26 -15)\"" stroke=\""yellow\"" /><path d=\""M 50 57 L 50 43\"" stroke=\""black\"" transform=\""translate(-26 -15) rotate(-45 50 50)\""/>"",""<circle cx=\""50\"" cy=\""50\"" r=\""10\"" fill=\""none\"" transform=\""translate(0 -30)\"" stroke=\""black\"" /><path d=\""M 50 57 L 50 43\"" stroke=\""black\"" transform=\""translate(0 -30) rotate(45 50 50)\""/>"",""<circle cx=\""50\"" cy=\""50\"" r=\""10\"" fill=\""none\"" transform=\""translate(26 -15)\"" stroke=\""blue\"" /><path d=\""M 50 57 L 50 43\"" stroke=\""black\"" transform=\""translate(26 -15) rotate(45 50 50)\""/>"",""</svg>""]","m","VDACtrain","g","0","v","true","high","","","",""
"","html-keyboard-response","37","412389","0.0-1.0-2.0-2.9","3pn","[""g""]","","null","<p style=""font-size:300%;"">Correct!</p>","null","","","","","","","","","",""
"","html-keyboard-response","38","420780","0.0-1.0-3.0","3pn","[""g""]","","7390.39999961853","<p>You have now finished the training exercise. If you would like to repeat the instructions and training exercise, press <b>R</b>.<p>If you are ready to continue to the task, press <b>C</b>.</p>","c","","","","","","","","","",""
"","html-keyboard-response","39","423783","0.0-2.0-0.0","3pn","[""g""]","","null","<p>Place your fingers on the <b>z</b> and <b>m</b> keys. The experiment will begin shortly.</p> <p></p>","null","","","","","","","","","",""
"","html-keyboard-response","40","424785","0.0-2.0-1.0","3pn","[""g""]","","null","<p>Place your fingers on the <b>z</b> and <b>m</b> keys. </b>The experiment will begin shortly.</p><p>5</p>","null","","","","","","","","","",""
"","html-keyboard-response","41","425788","0.0-2.0-2.0","3pn","[""g""]","","null","<p>Place your fingers on the <b>z</b> and <b>m</b> keys. </b>The experiment will begin shortly.</p><p>4</p>","null","","","","","","","","","",""
"","html-keyboard-response","42","426790","0.0-2.0-3.0","3pn","[""g""]","","null","<p>Place your fingers on the <b>z</b> and <b>m</b> keys. </b>The experiment will begin shortly.</p><p>3</p>","null","","","","","","","","","",""
"","html-keyboard-response","43","427792","0.0-2.0-4.0","3pn","[""g""]","","null","<p>Place your fingers on the <b>z</b> and <b>m</b> keys. </b>The experiment will begin shortly.</p><p>2</p>","null","","","","","","","","","",""
"","html-keyboard-response","44","428793","0.0-2.0-5.0","3pn","[""g""]","","null","<p>Place your fingers on the <b>z</b> and <b>m</b> keys. </b>The experiment will begin shortly.</p><p>1</p>","null","","","","","","","","","",""
"","html-keyboard-response","45","429295","0.0-3.0-0.0","3pn","[""g""]","","null","<svg viewBox=""0 0 100 100"" > <path d=""M 50 52 L 50 48"" stroke=""black"" stroke-width="".5""/> <path d=""M 52 50 L 48 50"" stroke=""black"" stroke-width="".5""/>","null","","","","","","","","","",""
"","html-keyboard-response","46","429846","0.0-3.0-1.0","3pn","[""g""]","","546.7999997138977","[""<svg viewBox=\""0 0 100 100\"" >"",""<path d=\""M 50 52 L 50 48\"" stroke=\""black\"" stroke-width=\"".5\""/>"","" <path d=\""M 52 50 L 48 50\"" stroke=\""black\"" stroke-width=\"".5\""/>"",""<circle cx=\""50\"" cy=\""50\"" r=\""10\"" fill=\""none\"" transform=\""translate(26 15)\"" stroke=\""blue\"" />"",""<path d=\""M 50 57 L 50 43\"" stroke=\""black\"" transform=\""translate(26 15) rotate(-45 50 50)\""/>"",""<circle cx=\""50\"" cy=\""50\"" r=\""10\"" fill=\""none\"" transform=\""translate(0 30)\"" stroke=\""magenta\"" />"",""<path d=\""M 50 57 L 50 43\"" stroke=\""black\"" transform=\""translate(0 30) rotate(45 50 50)\""/>"",""<circle cx=\""50\"" cy=\""50\"" r=\""10\"" fill=\""none\"" transform=\""translate(-26 15)\"" stroke=\""yellow\"" />"",""<path d=\""M 50 57 L 50 43\"" stroke=\""black\"" transform=\""translate(-26 15) rotate(-45 50 50)\""/>"",""<circle cx=\""50\"" cy=\""50\"" r=\""10\"" fill=\""none\"" transform=\""translate(-26 -15)\"" stroke=\""black\"" />"",""<path d=\""M 50 57 L 50 43\"" stroke=\""black\"" transform=\""translate(-26 -15) rotate(45 50 50)\""/>"",""<circle cx=\""50\"" cy=\""50\"" r=\""10\"" fill=\""none\"" transform=\""translate(0 -30)\"" stroke=\""cyan\"" />"",""<path d=\""M 50 57 L 50 43\"" stroke=\""black\"" transform=\""translate(0 -30) rotate(45 50 50)\""/>"",""<circle cx=\""50\"" cy=\""50\"" r=\""10\"" fill=\""none\"" transform=\""translate(26 -15)\"" stroke=\""red\"" />"",""<path d=\""M 50 57 L 50 43\"" stroke=\""black\"" transform=\""translate(26 -15) rotate(0 50 50)\""/>"",""</svg>""]","m","VDACtest","r","5","v","true","low","","","",""
"","html-keyboard-response","47","432348","0.0-3.0-2.0","3pn","[""g""]","","null","<p style=""font-size:300%;""> + 10 points.</p><p style=""font-size:300%"">Total: 10 points.</p>","null","","","","","","","10","","",""
"","html-keyboard-response","48","433849","0.0-3.0-0.1","3pn","[""g""]","","null","<svg viewBox=""0 0 100 100"" > <path d=""M 50 52 L 50 48"" stroke=""black"" stroke-width="".5""/> <path d=""M 52 50 L 48 50"" stroke=""black"" stroke-width="".5""/>","null","","","","","","","","","",""
"","html-keyboard-response","49","434342","0.0-3.0-1.1","3pn","[""g""]","","489.30000019073486","[""<svg viewBox=\""0 0 100 100\"" >"",""<path d=\""M 50 52 L 50 48\"" stroke=\""black\"" stroke-width=\"".5\""/>"","" <path d=\""M 52 50 L 48 50\"" stroke=\""black\"" stroke-width=\"".5\""/>"",""<circle cx=\""50\"" cy=\""50\"" r=\""10\"" fill=\""none\"" transform=\""translate(26 15)\"" stroke=\""yellow\"" />"",""<path d=\""M 50 57 L 50 43\"" stroke=\""black\"" transform=\""translate(26 15) rotate(45 50 50)\""/>"",""<circle cx=\""50\"" cy=\""50\"" r=\""10\"" fill=\""none\"" transform=\""translate(0 30)\"" stroke=\""black\"" />"",""<path d=\""M 50 57 L 50 43\"" stroke=\""black\"" transform=\""translate(0 30) rotate(-45 50 50)\""/>"",""<circle cx=\""50\"" cy=\""50\"" r=\""10\"" fill=\""none\"" transform=\""translate(-26 15)\"" stroke=\""cyan\"" />"",""<path d=\""M 50 57 L 50 43\"" stroke=\""black\"" transform=\""translate(-26 15) rotate(45 50 50)\""/>"",""<circle cx=\""50\"" cy=\""50\"" r=\""10\"" fill=\""none\"" transform=\""translate(-26 -15)\"" stroke=\""magenta\"" />"",""<path d=\""M 50 57 L 50 43\"" stroke=\""black\"" transform=\""translate(-26 -15) rotate(-45 50 50)\""/>"",""<circle cx=\""50\"" cy=\""50\"" r=\""10\"" fill=\""none\"" transform=\""translate(0 -30)\"" stroke=\""red\"" />"",""<path d=\""M 50 57 L 50 43\"" stroke=\""black\"" transform=\""translate(0 -30) rotate(90 50 50)\""/>"",""<circle cx=\""50\"" cy=\""50\"" r=\""10\"" fill=\""none\"" transform=\""translate(26 -15)\"" stroke=\""blue\"" />"",""<path d=\""M 50 57 L 50 43\"" stroke=\""black\"" transform=\""translate(26 -15) rotate(45 50 50)\""/>"",""</svg>""]","z","VDACtest","r","4","h","true","low","","","",""
"","html-keyboard-response","50","436846","0.0-3.0-2.1","3pn","[""g""]","","null","<p style=""font-size:300%;""> + 2 points.</p><p style=""font-size:300%"">Total: 12 points.</p>","null","","","","","","","12","","",""
"","html-keyboard-response","51","438346","0.0-3.0-0.2","3pn","[""g""]","","null","<svg viewBox=""0 0 100 100"" > <path d=""M 50 52 L 50 48"" stroke=""black"" stroke-width="".5""/> <path d=""M 52 50 L 48 50"" stroke=""black"" stroke-width="".5""/>","null","","","","","","","","","",""
"","html-keyboard-response","52","438862","0.0-3.0-1.2","3pn","[""g""]","","512.5","[""<svg viewBox=\""0 0 100 100\"" >"",""<path d=\""M 50 52 L 50 48\"" stroke=\""black\"" stroke-width=\"".5\""/>"","" <path d=\""M 52 50 L 48 50\"" stroke=\""black\"" stroke-width=\"".5\""/>"",""<circle cx=\""50\"" cy=\""50\"" r=\""10\"" fill=\""none\"" transform=\""translate(26 15)\"" stroke=\""black\"" />"",""<path d=\""M 50 57 L 50 43\"" stroke=\""black\"" transform=\""translate(26 15) rotate(45 50 50)\""/>"",""<circle cx=\""50\"" cy=\""50\"" r=\""10\"" fill=\""none\"" transform=\""translate(0 30)\"" stroke=\""lime\"" />"",""<path d=\""M 50 57 L 50 43\"" stroke=\""black\"" transform=\""translate(0 30) rotate(90 50 50)\""/>"",""<circle cx=\""50\"" cy=\""50\"" r=\""10\"" fill=\""none\"" transform=\""translate(-26 15)\"" stroke=\""magenta\"" />"",""<path d=\""M 50 57 L 50 43\"" stroke=\""black\"" transform=\""translate(-26 15) rotate(-45 50 50)\""/>"",""<circle cx=\""50\"" cy=\""50\"" r=\""10\"" fill=\""none\"" transform=\""translate(-26 -15)\"" stroke=\""blue\"" />"",""<path d=\""M 50 57 L 50 43\"" stroke=\""black\"" transform=\""translate(-26 -15) rotate(45 50 50)\""/>"",""<circle cx=\""50\"" cy=\""50\"" r=\""10\"" fill=\""none\"" transform=\""translate(0 -30)\"" stroke=\""cyan\"" />"",""<path d=\""M 50 57 L 50 43\"" stroke=\""black\"" transform=\""translate(0 -30) rotate(-45 50 50)\""/>"",""<circle cx=\""50\"" cy=\""50\"" r=\""10\"" fill=\""none\"" transform=\""translate(26 -15)\"" stroke=\""yellow\"" />"",""<path d=\""M 50 57 L 50 43\"" stroke=\""black\"" transform=\""translate(26 -15) rotate(-45 50 50)\""/>"",""</svg>""]","m","VDACtest","g","1","h","false","high","","","",""
"","html-keyboard-response","53","441365","0.0-3.0-2.2","3pn","[""g""]","","null","<p style=""font-size:300%;"">Miss.</p><p style=""font-size:300%"">Total: 12 points.</p>","null","","","","","","","12","","",""
"","html-keyboard-response","54","442867","0.0-3.0-0.3","3pn","[""g""]","","null","<svg viewBox=""0 0 100 100"" > <path d=""M 50 52 L 50 48"" stroke=""black"" stroke-width="".5""/> <path d=""M 52 50 L 48 50"" stroke=""black"" stroke-width="".5""/>","null","","","","","","","","","",""
"","html-keyboard-response","55","443438","0.0-3.0-1.3","3pn","[""g""]","","567","[""<svg viewBox=\""0 0 100 100\"" >"",""<path d=\""M 50 52 L 50 48\"" stroke=\""black\"" stroke-width=\"".5\""/>"","" <path d=\""M 52 50 L 48 50\"" stroke=\""black\"" stroke-width=\"".5\""/>"",""<circle cx=\""50\"" cy=\""50\"" r=\""10\"" fill=\""none\"" transform=\""translate(26 15)\"" stroke=\""black\"" />"",""<path d=\""M 50 57 L 50 43\"" stroke=\""black\"" transform=\""translate(26 15) rotate(45 50 50)\""/>"",""<circle cx=\""50\"" cy=\""50\"" r=\""10\"" fill=\""none\"" transform=\""translate(0 30)\"" stroke=\""magenta\"" />"",""<path d=\""M 50 57 L 50 43\"" stroke=\""black\"" transform=\""translate(0 30) rotate(-45 50 50)\""/>"",""<circle cx=\""50\"" cy=\""50\"" r=\""10\"" fill=\""none\"" transform=\""translate(-26 15)\"" stroke=\""blue\"" />"",""<path d=\""M 50 57 L 50 43\"" stroke=\""black\"" transform=\""translate(-26 15) rotate(45 50 50)\""/>"",""<circle cx=\""50\"" cy=\""50\"" r=\""10\"" fill=\""none\"" transform=\""translate(-26 -15)\"" stroke=\""yellow\"" />"",""<path d=\""M 50 57 L 50 43\"" stroke=\""black\"" transform=\""translate(-26 -15) rotate(45 50 50)\""/>"",""<circle cx=\""50\"" cy=\""50\"" r=\""10\"" fill=\""none\"" transform=\""translate(0 -30)\"" stroke=\""lime\"" />"",""<path d=\""M 50 57 L 50 43\"" stroke=\""black\"" transform=\""translate(0 -30) rotate(0 50 50)\""/>"",""<circle cx=\""50\"" cy=\""50\"" r=\""10\"" fill=\""none\"" transform=\""translate(26 -15)\"" stroke=\""cyan\"" />"",""<path d=\""M 50 57 L 50 43\"" stroke=\""black\"" transform=\""translate(26 -15) rotate(-45 50 50)\""/>"",""</svg>""]","m","VDACtest","g","4","v","true","high","","","",""
"","html-keyboard-response","56","445941","0.0-3.0-2.3","3pn","[""g""]","","null","<p style=""font-size:300%;""> + 10 points.</p><p style=""font-size:300%"">Total: 22 points.</p>","null","","","","","","","22","","",""
"","html-keyboard-response","57","447442","0.0-3.0-0.4","3pn","[""g""]","","null","<svg viewBox=""0 0 100 100"" > <path d=""M 50 52 L 50 48"" stroke=""black"" stroke-width="".5""/> <path d=""M 52 50 L 48 50"" stroke=""black"" stroke-width="".5""/>","null","","","","","","","","","",""
"","html-keyboard-response","58","448150","0.0-3.0-1.4","3pn","[""g""]","","703.5","[""<svg viewBox=\""0 0 100 100\"" >"",""<path d=\""M 50 52 L 50 48\"" stroke=\""black\"" stroke-width=\"".5\""/>"","" <path d=\""M 52 50 L 48 50\"" stroke=\""black\"" stroke-width=\"".5\""/>"",""<circle cx=\""50\"" cy=\""50\"" r=\""10\"" fill=\""none\"" transform=\""translate(26 15)\"" stroke=\""magenta\"" />"",""<path d=\""M 50 57 L 50 43\"" stroke=\""black\"" transform=\""translate(26 15) rotate(-45 50 50)\""/>"",""<circle cx=\""50\"" cy=\""50\"" r=\""10\"" fill=\""none\"" transform=\""translate(0 30)\"" stroke=\""blue\"" />"",""<path d=\""M 50 57 L 50 43\"" stroke=\""black\"" transform=\""translate(0 30) rotate(45 50 50)\""/>"",""<circle cx=\""50\"" cy=\""50\"" r=\""10\"" fill=\""none\"" transform=\""translate(-26 15)\"" stroke=\""yellow\"" />"",""<path d=\""M 50 57 L 50 43\"" stroke=\""black\"" transform=\""translate(-26 15) rotate(-45 50 50)\""/>"",""<circle cx=\""50\"" cy=\""50\"" r=\""10\"" fill=\""none\"" transform=\""translate(-26 -15)\"" stroke=\""cyan\"" />"",""<path d=\""M 50 57 L 50 43\"" stroke=\""black\"" transform=\""translate(-26 -15) rotate(45 50 50)\""/>"",""<circle cx=\""50\"" cy=\""50\"" r=\""10\"" fill=\""none\"" transform=\""translate(0 -30)\"" stroke=\""black\"" />"",""<path d=\""M 50 57 L 50 43\"" stroke=\""black\"" transform=\""translate(0 -30) rotate(-45 50 50)\""/>"",""<circle cx=\""50\"" cy=\""50\"" r=\""10\"" fill=\""none\"" transform=\""translate(26 -15)\"" stroke=\""red\"" />"",""<path d=\""M 50 57 L 50 43\"" stroke=\""black\"" transform=\""translate(26 -15) rotate(0 50 50)\""/>"",""</svg>""]","m","VDACtest","r","5","v","true","low","","","",""
"","html-keyboard-response","59","450653","0.0-3.0-2.4","3pn","[""g""]","","null","<p style=""font-size:300%;""> + 2 points.</p><p style=""font-size:300%"">Total: 24 points.</p>","null","","","","","","","24","","",""
"","html-keyboard-response","60","452154","0.0-3.0-0.5","3pn","[""g""]","","null","<svg viewBox=""0 0 100 100"" > <path d=""M 50 52 L 50 48"" stroke=""black"" stroke-width="".5""/> <path d=""M 52 50 L 48 50"" stroke=""black"" stroke-width="".5""/>","null","","","","","","","","","",""
"","html-keyboard-response","61","452750","0.0-3.0-1.5","3pn","[""g""]","","592.0999999046326","[""<svg viewBox=\""0 0 100 100\"" >"",""<path d=\""M 50 52 L 50 48\"" stroke=\""black\"" stroke-width=\"".5\""/>"","" <path d=\""M 52 50 L 48 50\"" stroke=\""black\"" stroke-width=\"".5\""/>"",""<circle cx=\""50\"" cy=\""50\"" r=\""10\"" fill=\""none\"" transform=\""translate(26 15)\"" stroke=\""magenta\"" />"",""<path d=\""M 50 57 L 50 43\"" stroke=\""black\"" transform=\""translate(26 15) rotate(45 50 50)\""/>"",""<circle cx=\""50\"" cy=\""50\"" r=\""10\"" fill=\""none\"" transform=\""translate(0 30)\"" stroke=\""lime\"" />"",""<path d=\""M 50 57 L 50 43\"" stroke=\""black\"" transform=\""translate(0 30) rotate(0 50 50)\""/>"",""<circle cx=\""50\"" cy=\""50\"" r=\""10\"" fill=\""none\"" transform=\""translate(-26 15)\"" stroke=\""blue\"" />"",""<path d=\""M 50 57 L 50 43\"" stroke=\""black\"" transform=\""translate(-26 15) rotate(-45 50 50)\""/>"",""<circle cx=\""50\"" cy=\""50\"" r=\""10\"" fill=\""none\"" transform=\""translate(-26 -15)\"" stroke=\""cyan\"" />"",""<path d=\""M 50 57 L 50 43\"" stroke=\""black\"" transform=\""translate(-26 -15) rotate(-45 50 50)\""/>"",""<circle cx=\""50\"" cy=\""50\"" r=\""10\"" fill=\""none\"" transform=\""translate(0 -30)\"" stroke=\""yellow\"" />"",""<path d=\""M 50 57 L 50 43\"" stroke=\""black\"" transform=\""translate(0 -30) rotate(-45 50 50)\""/>"",""<circle cx=\""50\"" cy=\""50\"" r=\""10\"" fill=\""none\"" transform=\""translate(26 -15)\"" stroke=\""black\"" />"",""<path d=\""M 50 57 L 50 43\"" stroke=\""black\"" transform=\""translate(26 -15) rotate(45 50 50)\""/>"",""</svg>""]","m","VDACtest","g","1","v","true","high","","","",""
"","html-keyboard-response","62","455252","0.0-3.0-2.5","3pn","[""g""]","","null","<p style=""font-size:300%;""> + 2 points.</p><p style=""font-size:300%"">Total: 26 points.</p>","null","","","","","","","26","","",""
"","html-keyboard-response","63","456753","0.0-3.0-0.6","3pn","[""g""]","","null","<svg viewBox=""0 0 100 100"" > <path d=""M 50 52 L 50 48"" stroke=""black"" stroke-width="".5""/> <path d=""M 52 50 L 48 50"" stroke=""black"" stroke-width="".5""/>","null","","","","","","","","","",""
"","html-keyboard-response","64","457413","0.0-3.0-1.6","3pn","[""g""]","","657.5","[""<svg viewBox=\""0 0 100 100\"" >"",""<path d=\""M 50 52 L 50 48\"" stroke=\""black\"" stroke-width=\"".5\""/>"","" <path d=\""M 52 50 L 48 50\"" stroke=\""black\"" stroke-width=\"".5\""/>"",""<circle cx=\""50\"" cy=\""50\"" r=\""10\"" fill=\""none\"" transform=\""translate(26 15)\"" stroke=\""black\"" />"",""<path d=\""M 50 57 L 50 43\"" stroke=\""black\"" transform=\""translate(26 15) rotate(-45 50 50)\""/>"",""<circle cx=\""50\"" cy=\""50\"" r=\""10\"" fill=\""none\"" transform=\""translate(0 30)\"" stroke=\""yellow\"" />"",""<path d=\""M 50 57 L 50 43\"" stroke=\""black\"" transform=\""translate(0 30) rotate(-45 50 50)\""/>"",""<circle cx=\""50\"" cy=\""50\"" r=\""10\"" fill=\""none\"" transform=\""translate(-26 15)\"" stroke=\""magenta\"" />"",""<path d=\""M 50 57 L 50 43\"" stroke=\""black\"" transform=\""translate(-26 15) rotate(45 50 50)\""/>"",""<circle cx=\""50\"" cy=\""50\"" r=\""10\"" fill=\""none\"" transform=\""translate(-26 -15)\"" stroke=\""blue\"" />"",""<path d=\""M 50 57 L 50 43\"" stroke=\""black\"" transform=\""translate(-26 -15) rotate(-45 50 50)\""/>"",""<circle cx=\""50\"" cy=\""50\"" r=\""10\"" fill=\""none\"" transform=\""translate(0 -30)\"" stroke=\""lime\"" />"",""<path d=\""M 50 57 L 50 43\"" stroke=\""black\"" transform=\""translate(0 -30) rotate(90 50 50)\""/>"",""<circle cx=\""50\"" cy=\""50\"" r=\""10\"" fill=\""none\"" transform=\""translate(26 -15)\"" stroke=\""cyan\"" />"",""<path d=\""M 50 57 L 50 43\"" stroke=\""black\"" transform=\""translate(26 -15) rotate(45 50 50)\""/>"",""</svg>""]","m","VDACtest","g","4","h","false","high","","","",""
"","html-keyboard-response","65","459917","0.0-3.0-2.6","3pn","[""g""]","","null","<p style=""font-size:300%;"">Miss.</p><p style=""font-size:300%"">Total: 26 points.</p>","null","","","","","","","26","","",""
"","html-keyboard-response","66","461417","0.0-3.0-0.7","3pn","[""g""]","","null","<svg viewBox=""0 0 100 100"" > <path d=""M 50 52 L 50 48"" stroke=""black"" stroke-width="".5""/> <path d=""M 52 50 L 48 50"" stroke=""black"" stroke-width="".5""/>","null","","","","","","","","","",""
"","html-keyboard-response","67","461998","0.0-3.0-1.7","3pn","[""g""]","","576.2999997138977","[""<svg viewBox=\""0 0 100 100\"" >"",""<path d=\""M 50 52 L 50 48\"" stroke=\""black\"" stroke-width=\"".5\""/>"","" <path d=\""M 52 50 L 48 50\"" stroke=\""black\"" stroke-width=\"".5\""/>"",""<circle cx=\""50\"" cy=\""50\"" r=\""10\"" fill=\""none\"" transform=\""translate(26 15)\"" stroke=\""magenta\"" />"",""<path d=\""M 50 57 L 50 43\"" stroke=\""black\"" transform=\""translate(26 15) rotate(-45 50 50)\""/>"",""<circle cx=\""50\"" cy=\""50\"" r=\""10\"" fill=\""none\"" transform=\""translate(0 30)\"" stroke=\""yellow\"" />"",""<path d=\""M 50 57 L 50 43\"" stroke=\""black\"" transform=\""translate(0 30) rotate(45 50 50)\""/>"",""<circle cx=\""50\"" cy=\""50\"" r=\""10\"" fill=\""none\"" transform=\""translate(-26 15)\"" stroke=\""cyan\"" />"",""<path d=\""M 50 57 L 50 43\"" stroke=\""black\"" transform=\""translate(-26 15) rotate(45 50 50)\""/>"",""<circle cx=\""50\"" cy=\""50\"" r=\""10\"" fill=\""none\"" transform=\""translate(-26 -15)\"" stroke=\""red\"" />"",""<path d=\""M 50 57 L 50 43\"" stroke=\""black\"" transform=\""translate(-26 -15) rotate(0 50 50)\""/>"",""<circle cx=\""50\"" cy=\""50\"" r=\""10\"" fill=\""none\"" transform=\""translate(0 -30)\"" stroke=\""black\"" />"",""<path d=\""M 50 57 L 50 43\"" stroke=\""black\"" transform=\""translate(0 -30) rotate(-45 50 50)\""/>"",""<circle cx=\""50\"" cy=\""50\"" r=\""10\"" fill=\""none\"" transform=\""translate(26 -15)\"" stroke=\""blue\"" />"",""<path d=\""M 50 57 L 50 43\"" stroke=\""black\"" transform=\""translate(26 -15) rotate(-45 50 50)\""/>"",""</svg>""]","m","VDACtest","r","3","v","true","low","","","",""
"","html-keyboard-response","68","464500","0.0-3.0-2.7","3pn","[""g""]","","null","<p style=""font-size:300%;""> + 2 points.</p><p style=""font-size:300%"">Total: 28 points.</p>","null","","","","","","","28","","",""
"","html-keyboard-response","69","466002","0.0-3.0-0.8","3pn","[""g""]","","null","<svg viewBox=""0 0 100 100"" > <path d=""M 50 52 L 50 48"" stroke=""black"" stroke-width="".5""/> <path d=""M 52 50 L 48 50"" stroke=""black"" stroke-width="".5""/>","null","","","","","","","","","",""
"","html-keyboard-response","70","466533","0.0-3.0-1.8","3pn","[""g""]","","528.3000001907349","[""<svg viewBox=\""0 0 100 100\"" >"",""<path d=\""M 50 52 L 50 48\"" stroke=\""black\"" stroke-width=\"".5\""/>"","" <path d=\""M 52 50 L 48 50\"" stroke=\""black\"" stroke-width=\"".5\""/>"",""<circle cx=\""50\"" cy=\""50\"" r=\""10\"" fill=\""none\"" transform=\""translate(26 15)\"" stroke=\""magenta\"" />"",""<path d=\""M 50 57 L 50 43\"" stroke=\""black\"" transform=\""translate(26 15) rotate(45 50 50)\""/>"",""<circle cx=\""50\"" cy=\""50\"" r=\""10\"" fill=\""none\"" transform=\""translate(0 30)\"" stroke=\""yellow\"" />"",""<path d=\""M 50 57 L 50 43\"" stroke=\""black\"" transform=\""translate(0 30) rotate(-45 50 50)\""/>"",""<circle cx=\""50\"" cy=\""50\"" r=\""10\"" fill=\""none\"" transform=\""translate(-26 15)\"" stroke=\""cyan\"" />"",""<path d=\""M 50 57 L 50 43\"" stroke=\""black\"" transform=\""translate(-26 15) rotate(45 50 50)\""/>"",""<circle cx=\""50\"" cy=\""50\"" r=\""10\"" fill=\""none\"" transform=\""translate(-26 -15)\"" stroke=\""black\"" />"",""<path d=\""M 50 57 L 50 43\"" stroke=\""black\"" transform=\""translate(-26 -15) rotate(-45 50 50)\""/>"",""<circle cx=\""50\"" cy=\""50\"" r=\""10\"" fill=\""none\"" transform=\""translate(0 -30)\"" stroke=\""lime\"" />"",""<path d=\""M 50 57 L 50 43\"" stroke=\""black\"" transform=\""translate(0 -30) rotate(90 50 50)\""/>"",""<circle cx=\""50\"" cy=\""50\"" r=\""10\"" fill=\""none\"" transform=\""translate(26 -15)\"" stroke=\""blue\"" />"",""<path d=\""M 50 57 L 50 43\"" stroke=\""black\"" transform=\""translate(26 -15) rotate(-45 50 50)\""/>"",""</svg>""]","z","VDACtest","g","4","h","true","high","","","",""
"","html-keyboard-response","71","469036","0.0-3.0-2.8","3pn","[""g""]","","null","<p style=""font-size:300%;""> + 10 points.</p><p style=""font-size:300%"">Total: 38 points.</p>","null","","","","","","","38","","",""
"","html-keyboard-response","72","470536","0.0-3.0-0.9","3pn","[""g""]","","null","<svg viewBox=""0 0 100 100"" > <path d=""M 50 52 L 50 48"" stroke=""black"" stroke-width="".5""/> <path d=""M 52 50 L 48 50"" stroke=""black"" stroke-width="".5""/>","null","","","","","","","","","",""
"","html-keyboard-response","73","470950","0.0-3.0-1.9","3pn","[""g""]","","409.7000002861023","[""<svg viewBox=\""0 0 100 100\"" >"",""<path d=\""M 50 52 L 50 48\"" stroke=\""black\"" stroke-width=\"".5\""/>"","" <path d=\""M 52 50 L 48 50\"" stroke=\""black\"" stroke-width=\"".5\""/>"",""<circle cx=\""50\"" cy=\""50\"" r=\""10\"" fill=\""none\"" transform=\""translate(26 15)\"" stroke=\""cyan\"" />"",""<path d=\""M 50 57 L 50 43\"" stroke=\""black\"" transform=\""translate(26 15) rotate(-45 50 50)\""/>"",""<circle cx=\""50\"" cy=\""50\"" r=\""10\"" fill=\""none\"" transform=\""translate(0 30)\"" stroke=\""black\"" />"",""<path d=\""M 50 57 L 50 43\"" stroke=\""black\"" transform=\""translate(0 30) rotate(45 50 50)\""/>"",""<circle cx=\""50\"" cy=\""50\"" r=\""10\"" fill=\""none\"" transform=\""translate(-26 15)\"" stroke=\""yellow\"" />"",""<path d=\""M 50 57 L 50 43\"" stroke=\""black\"" transform=\""translate(-26 15) rotate(45 50 50)\""/>"",""<circle cx=\""50\"" cy=\""50\"" r=\""10\"" fill=\""none\"" transform=\""translate(-26 -15)\"" stroke=\""magenta\"" />"",""<path d=\""M 50 57 L 50 43\"" stroke=\""black\"" transform=\""translate(-26 -15) rotate(-45 50 50)\""/>"",""<circle cx=\""50\"" cy=\""50\"" r=\""10\"" fill=\""none\"" transform=\""translate(0 -30)\"" stroke=\""lime\"" />"",""<path d=\""M 50 57 L 50 43\"" stroke=\""black\"" transform=\""translate(0 -30) rotate(90 50 50)\""/>"",""<circle cx=\""50\"" cy=\""50\"" r=\""10\"" fill=\""none\"" transform=\""translate(26 -15)\"" stroke=\""blue\"" />"",""<path d=\""M 50 57 L 50 43\"" stroke=\""black\"" transform=\""translate(26 -15) rotate(-45 50 50)\""/>"",""</svg>""]","z","VDACtest","g","4","h","true","high","","","",""
"","html-keyboard-response","74","473452","0.0-3.0-2.9","3pn","[""g""]","","null","<p style=""font-size:300%;""> + 10 points.</p><p style=""font-size:300%"">Total: 48 points.</p>","null","","","","","","","48","","",""
"","html-keyboard-response","75","474953","0.0-3.0-0.10","3pn","[""g""]","","null","<svg viewBox=""0 0 100 100"" > <path d=""M 50 52 L 50 48"" stroke=""black"" stroke-width="".5""/> <path d=""M 52 50 L 48 50"" stroke=""black"" stroke-width="".5""/>","null","","","","","","","","","",""
"","html-keyboard-response","76","475374","0.0-3.0-1.10","3pn","[""g""]","","416.7999997138977","[""<svg viewBox=\""0 0 100 100\"" >"",""<path d=\""M 50 52 L 50 48\"" stroke=\""black\"" stroke-width=\"".5\""/>"","" <path d=\""M 52 50 L 48 50\"" stroke=\""black\"" stroke-width=\"".5\""/>"",""<circle cx=\""50\"" cy=\""50\"" r=\""10\"" fill=\""none\"" transform=\""translate(26 15)\"" stroke=\""magenta\"" />"",""<path d=\""M 50 57 L 50 43\"" stroke=\""black\"" transform=\""translate(26 15) rotate(-45 50 50)\""/>"",""<circle cx=\""50\"" cy=\""50\"" r=\""10\"" fill=\""none\"" transform=\""translate(0 30)\"" stroke=\""black\"" />"",""<path d=\""M 50 57 L 50 43\"" stroke=\""black\"" transform=\""translate(0 30) rotate(-45 50 50)\""/>"",""<circle cx=\""50\"" cy=\""50\"" r=\""10\"" fill=\""none\"" transform=\""translate(-26 15)\"" stroke=\""blue\"" />"",""<path d=\""M 50 57 L 50 43\"" stroke=\""black\"" transform=\""translate(-26 15) rotate(45 50 50)\""/>"",""<circle cx=\""50\"" cy=\""50\"" r=\""10\"" fill=\""none\"" transform=\""translate(-26 -15)\"" stroke=\""yellow\"" />"",""<path d=\""M 50 57 L 50 43\"" stroke=\""black\"" transform=\""translate(-26 -15) rotate(-45 50 50)\""/>"",""<circle cx=\""50\"" cy=\""50\"" r=\""10\"" fill=\""none\"" transform=\""translate(0 -30)\"" stroke=\""red\"" />"",""<path d=\""M 50 57 L 50 43\"" stroke=\""black\"" transform=\""translate(0 -30) rotate(90 50 50)\""/>"",""<circle cx=\""50\"" cy=\""50\"" r=\""10\"" fill=\""none\"" transform=\""translate(26 -15)\"" stroke=\""cyan\"" />"",""<path d=\""M 50 57 L 50 43\"" stroke=\""black\"" transform=\""translate(26 -15) rotate(-45 50 50)\""/>"",""</svg>""]","m","VDACtest","r","4","h","false","low","","","",""
"","html-keyboard-response","77","477877","0.0-3.0-2.10","3pn","[""g""]","","null","<p style=""font-size:300%;"">Miss.</p><p style=""font-size:300%"">Total: 48 points.</p>","null","","","","","","","48","","",""
"","html-keyboard-response","78","479378","0.0-3.0-0.11","3pn","[""g""]","","null","<svg viewBox=""0 0 100 100"" > <path d=""M 50 52 L 50 48"" stroke=""black"" stroke-width="".5""/> <path d=""M 52 50 L 48 50"" stroke=""black"" stroke-width="".5""/>","null","","","","","","","","","",""
"","html-keyboard-response","79","479997","0.0-3.0-1.11","3pn","[""g""]","","615.5","[""<svg viewBox=\""0 0 100 100\"" >"",""<path d=\""M 50 52 L 50 48\"" stroke=\""black\"" stroke-width=\"".5\""/>"","" <path d=\""M 52 50 L 48 50\"" stroke=\""black\"" stroke-width=\"".5\""/>"",""<circle cx=\""50\"" cy=\""50\"" r=\""10\"" fill=\""none\"" transform=\""translate(26 15)\"" stroke=\""cyan\"" />"",""<path d=\""M 50 57 L 50 43\"" stroke=\""black\"" transform=\""translate(26 15) rotate(-45 50 50)\""/>"",""<circle cx=\""50\"" cy=\""50\"" r=\""10\"" fill=\""none\"" transform=\""translate(0 30)\"" stroke=\""yellow\"" />"",""<path d=\""M 50 57 L 50 43\"" stroke=\""black\"" transform=\""translate(0 30) rotate(-45 50 50)\""/>"",""<circle cx=\""50\"" cy=\""50\"" r=\""10\"" fill=\""none\"" transform=\""translate(-26 15)\"" stroke=\""black\"" />"",""<path d=\""M 50 57 L 50 43\"" stroke=\""black\"" transform=\""translate(-26 15) rotate(45 50 50)\""/>"",""<circle cx=\""50\"" cy=\""50\"" r=\""10\"" fill=\""none\"" transform=\""translate(-26 -15)\"" stroke=\""blue\"" />"",""<path d=\""M 50 57 L 50 43\"" stroke=\""black\"" transform=\""translate(-26 -15) rotate(-45 50 50)\""/>"",""<circle cx=\""50\"" cy=\""50\"" r=\""10\"" fill=\""none\"" transform=\""translate(0 -30)\"" stroke=\""lime\"" />"",""<path d=\""M 50 57 L 50 43\"" stroke=\""black\"" transform=\""translate(0 -30) rotate(0 50 50)\""/>"",""<circle cx=\""50\"" cy=\""50\"" r=\""10\"" fill=\""none\"" transform=\""translate(26 -15)\"" stroke=\""magenta\"" />"",""<path d=\""M 50 57 L 50 43\"" stroke=\""black\"" transform=\""translate(26 -15) rotate(45 50 50)\""/>"",""</svg>""]","m","VDACtest","g","4","v","true","high","","","",""
"","html-keyboard-response","80","482501","0.0-3.0-2.11","3pn","[""g""]","","null","<p style=""font-size:300%;""> + 10 points.</p><p style=""font-size:300%"">Total: 58 points.</p>","null","","","","","","","58","","",""
"","html-keyboard-response","81","484001","0.0-3.0-0.12","3pn","[""g""]","","null","<svg viewBox=""0 0 100 100"" > <path d=""M 50 52 L 50 48"" stroke=""black"" stroke-width="".5""/> <path d=""M 52 50 L 48 50"" stroke=""black"" stroke-width="".5""/>","null","","","","","","","","","",""
"","html-keyboard-response","82","484669","0.0-3.0-1.12","3pn","[""g""]","","665.1000003814697","[""<svg viewBox=\""0 0 100 100\"" >"",""<path d=\""M 50 52 L 50 48\"" stroke=\""black\"" stroke-width=\"".5\""/>"","" <path d=\""M 52 50 L 48 50\"" stroke=\""black\"" stroke-width=\"".5\""/>"",""<circle cx=\""50\"" cy=\""50\"" r=\""10\"" fill=\""none\"" transform=\""translate(26 15)\"" stroke=\""yellow\"" />"",""<path d=\""M 50 57 L 50 43\"" stroke=\""black\"" transform=\""translate(26 15) rotate(-45 50 50)\""/>"",""<circle cx=\""50\"" cy=\""50\"" r=\""10\"" fill=\""none\"" transform=\""translate(0 30)\"" stroke=\""cyan\"" />"",""<path d=\""M 50 57 L 50 43\"" stroke=\""black\"" transform=\""translate(0 30) rotate(45 50 50)\""/>"",""<circle cx=\""50\"" cy=\""50\"" r=\""10\"" fill=\""none\"" transform=\""translate(-26 15)\"" stroke=\""blue\"" />"",""<path d=\""M 50 57 L 50 43\"" stroke=\""black\"" transform=\""translate(-26 15) rotate(45 50 50)\""/>"",""<circle cx=\""50\"" cy=\""50\"" r=\""10\"" fill=\""none\"" transform=\""translate(-26 -15)\"" stroke=\""red\"" />"",""<path d=\""M 50 57 L 50 43\"" stroke=\""black\"" transform=\""translate(-26 -15) rotate(90 50 50)\""/>"",""<circle cx=\""50\"" cy=\""50\"" r=\""10\"" fill=\""none\"" transform=\""translate(0 -30)\"" stroke=\""magenta\"" />"",""<path d=\""M 50 57 L 50 43\"" stroke=\""black\"" transform=\""translate(0 -30) rotate(45 50 50)\""/>"",""<circle cx=\""50\"" cy=\""50\"" r=\""10\"" fill=\""none\"" transform=\""translate(26 -15)\"" stroke=\""black\"" />"",""<path d=\""M 50 57 L 50 43\"" stroke=\""black\"" transform=\""translate(26 -15) rotate(45 50 50)\""/>"",""</svg>""]","m","VDACtest","r","3","h","false","low","","","",""
"","html-keyboard-response","83","487173","0.0-3.0-2.12","3pn","[""g""]","","null","<p style=""font-size:300%;"">Miss.</p><p style=""font-size:300%"">Total: 58 points.</p>","null","","","","","","","58","","",""
"","html-keyboard-response","84","488673","0.0-3.0-0.13","3pn","[""g""]","","null","<svg viewBox=""0 0 100 100"" > <path d=""M 50 52 L 50 48"" stroke=""black"" stroke-width="".5""/> <path d=""M 52 50 L 48 50"" stroke=""black"" stroke-width="".5""/>","null","","","","","","","","","",""
"","html-keyboard-response","85","489230","0.0-3.0-1.13","3pn","[""g""]","","552.9000000953674","[""<svg viewBox=\""0 0 100 100\"" >"",""<path d=\""M 50 52 L 50 48\"" stroke=\""black\"" stroke-width=\"".5\""/>"","" <path d=\""M 52 50 L 48 50\"" stroke=\""black\"" stroke-width=\"".5\""/>"",""<circle cx=\""50\"" cy=\""50\"" r=\""10\"" fill=\""none\"" transform=\""translate(26 15)\"" stroke=\""magenta\"" />"",""<path d=\""M 50 57 L 50 43\"" stroke=\""black\"" transform=\""translate(26 15) rotate(45 50 50)\""/>"",""<circle cx=\""50\"" cy=\""50\"" r=\""10\"" fill=\""none\"" transform=\""translate(0 30)\"" stroke=\""yellow\"" />"",""<path d=\""M 50 57 L 50 43\"" stroke=\""black\"" transform=\""translate(0 30) rotate(45 50 50)\""/>"",""<circle cx=\""50\"" cy=\""50\"" r=\""10\"" fill=\""none\"" transform=\""translate(-26 15)\"" stroke=\""lime\"" />"",""<path d=\""M 50 57 L 50 43\"" stroke=\""black\"" transform=\""translate(-26 15) rotate(90 50 50)\""/>"",""<circle cx=\""50\"" cy=\""50\"" r=\""10\"" fill=\""none\"" transform=\""translate(-26 -15)\"" stroke=\""blue\"" />"",""<path d=\""M 50 57 L 50 43\"" stroke=\""black\"" transform=\""translate(-26 -15) rotate(-45 50 50)\""/>"",""<circle cx=\""50\"" cy=\""50\"" r=\""10\"" fill=\""none\"" transform=\""translate(0 -30)\"" stroke=\""black\"" />"",""<path d=\""M 50 57 L 50 43\"" stroke=\""black\"" transform=\""translate(0 -30) rotate(45 50 50)\""/>"",""<circle cx=\""50\"" cy=\""50\"" r=\""10\"" fill=\""none\"" transform=\""translate(26 -15)\"" stroke=\""cyan\"" />"",""<path d=\""M 50 57 L 50 43\"" stroke=\""black\"" transform=\""translate(26 -15) rotate(-45 50 50)\""/>"",""</svg>""]","z","VDACtest","g","2","h","true","high","","","",""
"","html-keyboard-response","86","491732","0.0-3.0-2.13","3pn","[""g""]","","null","<p style=""font-size:300%;""> + 10 points.</p><p style=""font-size:300%"">Total: 68 points.</p>","null","","","","","","","68","","",""
"","html-keyboard-response","87","493231","0.0-3.0-0.14","3pn","[""g""]","","null","<svg viewBox=""0 0 100 100"" > <path d=""M 50 52 L 50 48"" stroke=""black"" stroke-width="".5""/> <path d=""M 52 50 L 48 50"" stroke=""black"" stroke-width="".5""/>","null","","","","","","","","","",""
"","html-keyboard-response","88","493709","0.0-3.0-1.14","3pn","[""g""]","","473.80000019073486","[""<svg viewBox=\""0 0 100 100\"" >"",""<path d=\""M 50 52 L 50 48\"" stroke=\""black\"" stroke-width=\"".5\""/>"","" <path d=\""M 52 50 L 48 50\"" stroke=\""black\"" stroke-width=\"".5\""/>"",""<circle cx=\""50\"" cy=\""50\"" r=\""10\"" fill=\""none\"" transform=\""translate(26 15)\"" stroke=\""black\"" />"",""<path d=\""M 50 57 L 50 43\"" stroke=\""black\"" transform=\""translate(26 15) rotate(-45 50 50)\""/>"",""<circle cx=\""50\"" cy=\""50\"" r=\""10\"" fill=\""none\"" transform=\""translate(0 30)\"" stroke=\""magenta\"" />"",""<path d=\""M 50 57 L 50 43\"" stroke=\""black\"" transform=\""translate(0 30) rotate(-45 50 50)\""/>"",""<circle cx=\""50\"" cy=\""50\"" r=\""10\"" fill=\""none\"" transform=\""translate(-26 15)\"" stroke=\""red\"" />"",""<path d=\""M 50 57 L 50 43\"" stroke=\""black\"" transform=\""translate(-26 15) rotate(0 50 50)\""/>"",""<circle cx=\""50\"" cy=\""50\"" r=\""10\"" fill=\""none\"" transform=\""translate(-26 -15)\"" stroke=\""blue\"" />"",""<path d=\""M 50 57 L 50 43\"" stroke=\""black\"" transform=\""translate(-26 -15) rotate(-45 50 50)\""/>"",""<circle cx=\""50\"" cy=\""50\"" r=\""10\"" fill=\""none\"" transform=\""translate(0 -30)\"" stroke=\""cyan\"" />"",""<path d=\""M 50 57 L 50 43\"" stroke=\""black\"" transform=\""translate(0 -30) rotate(45 50 50)\""/>"",""<circle cx=\""50\"" cy=\""50\"" r=\""10\"" fill=\""none\"" transform=\""translate(26 -15)\"" stroke=\""yellow\"" />"",""<path d=\""M 50 57 L 50 43\"" stroke=\""black\"" transform=\""translate(26 -15) rotate(45 50 50)\""/>"",""</svg>""]","m","VDACtest","r","2","v","true","low","","","",""
"","html-keyboard-response","89","496212","0.0-3.0-2.14","3pn","[""g""]","","null","<p style=""font-size:300%;""> + 2 points.</p><p style=""font-size:300%"">Total: 70 points.</p>","null","","","","","","","70","","",""
"","html-keyboard-response","90","497712","0.0-3.0-0.15","3pn","[""g""]","","null","<svg viewBox=""0 0 100 100"" > <path d=""M 50 52 L 50 48"" stroke=""black"" stroke-width="".5""/> <path d=""M 52 50 L 48 50"" stroke=""black"" stroke-width="".5""/>","null","","","","","","","","","",""
"","html-keyboard-response","91","498333","0.0-3.0-1.15","3pn","[""g""]","","617.1000003814697","[""<svg viewBox=\""0 0 100 100\"" >"",""<path d=\""M 50 52 L 50 48\"" stroke=\""black\"" stroke-width=\"".5\""/>"","" <path d=\""M 52 50 L 48 50\"" stroke=\""black\"" stroke-width=\"".5\""/>"",""<circle cx=\""50\"" cy=\""50\"" r=\""10\"" fill=\""none\"" transform=\""translate(26 15)\"" stroke=\""blue\"" />"",""<path d=\""M 50 57 L 50 43\"" stroke=\""black\"" transform=\""translate(26 15) rotate(45 50 50)\""/>"",""<circle cx=\""50\"" cy=\""50\"" r=\""10\"" fill=\""none\"" transform=\""translate(0 30)\"" stroke=\""yellow\"" />"",""<path d=\""M 50 57 L 50 43\"" stroke=\""black\"" transform=\""translate(0 30) rotate(-45 50 50)\""/>"",""<circle cx=\""50\"" cy=\""50\"" r=\""10\"" fill=\""none\"" transform=\""translate(-26 15)\"" stroke=\""black\"" />"",""<path d=\""M 50 57 L 50 43\"" stroke=\""black\"" transform=\""translate(-26 15) rotate(-45 50 50)\""/>"",""<circle cx=\""50\"" cy=\""50\"" r=\""10\"" fill=\""none\"" transform=\""translate(-26 -15)\"" stroke=\""magenta\"" />"",""<path d=\""M 50 57 L 50 43\"" stroke=\""black\"" transform=\""translate(-26 -15) rotate(-45 50 50)\""/>"",""<circle cx=\""50\"" cy=\""50\"" r=\""10\"" fill=\""none\"" transform=\""translate(0 -30)\"" stroke=\""lime\"" />"",""<path d=\""M 50 57 L 50 43\"" stroke=\""black\"" transform=\""translate(0 -30) rotate(0 50 50)\""/>"",""<circle cx=\""50\"" cy=\""50\"" r=\""10\"" fill=\""none\"" transform=\""translate(26 -15)\"" stroke=\""cyan\"" />"",""<path d=\""M 50 57 L 50 43\"" stroke=\""black\"" transform=\""translate(26 -15) rotate(45 50 50)\""/>"",""</svg>""]","m","VDACtest","g","4","v","true","high","","","",""
"","html-keyboard-response","92","500836","0.0-3.0-2.15","3pn","[""g""]","","null","<p style=""font-size:300%;""> + 10 points.</p><p style=""font-size:300%"">Total: 80 points.</p>","null","","","","","","","80","","",""
"","html-keyboard-response","93","502336","0.0-3.0-0.16","3pn","[""g""]","","null","<svg viewBox=""0 0 100 100"" > <path d=""M 50 52 L 50 48"" stroke=""black"" stroke-width="".5""/> <path d=""M 52 50 L 48 50"" stroke=""black"" stroke-width="".5""/>","null","","","","","","","","","",""
"","html-keyboard-response","94","502869","0.0-3.0-1.16","3pn","[""g""]","","531.1999998092651","[""<svg viewBox=\""0 0 100 100\"" >"",""<path d=\""M 50 52 L 50 48\"" stroke=\""black\"" stroke-width=\"".5\""/>"","" <path d=\""M 52 50 L 48 50\"" stroke=\""black\"" stroke-width=\"".5\""/>"",""<circle cx=\""50\"" cy=\""50\"" r=\""10\"" fill=\""none\"" transform=\""translate(26 15)\"" stroke=\""cyan\"" />"",""<path d=\""M 50 57 L 50 43\"" stroke=\""black\"" transform=\""translate(26 15) rotate(45 50 50)\""/>"",""<circle cx=\""50\"" cy=\""50\"" r=\""10\"" fill=\""none\"" transform=\""translate(0 30)\"" stroke=\""black\"" />"",""<path d=\""M 50 57 L 50 43\"" stroke=\""black\"" transform=\""translate(0 30) rotate(-45 50 50)\""/>"",""<circle cx=\""50\"" cy=\""50\"" r=\""10\"" fill=\""none\"" transform=\""translate(-26 15)\"" stroke=\""magenta\"" />"",""<path d=\""M 50 57 L 50 43\"" stroke=\""black\"" transform=\""translate(-26 15) rotate(45 50 50)\""/>"",""<circle cx=\""50\"" cy=\""50\"" r=\""10\"" fill=\""none\"" transform=\""translate(-26 -15)\"" stroke=\""yellow\"" />"",""<path d=\""M 50 57 L 50 43\"" stroke=\""black\"" transform=\""translate(-26 -15) rotate(45 50 50)\""/>"",""<circle cx=\""50\"" cy=\""50\"" r=\""10\"" fill=\""none\"" transform=\""translate(0 -30)\"" stroke=\""red\"" />"",""<path d=\""M 50 57 L 50 43\"" stroke=\""black\"" transform=\""translate(0 -30) rotate(0 50 50)\""/>"",""<circle cx=\""50\"" cy=\""50\"" r=\""10\"" fill=\""none\"" transform=\""translate(26 -15)\"" stroke=\""blue\"" />"",""<path d=\""M 50 57 L 50 43\"" stroke=\""black\"" transform=\""translate(26 -15) rotate(-45 50 50)\""/>"",""</svg>""]","m","VDACtest","r","4","v","true","low","","","",""
"","html-keyboard-response","95","505372","0.0-3.0-2.16","3pn","[""g""]","","null","<p style=""font-size:300%;""> + 2 points.</p><p style=""font-size:300%"">Total: 82 points.</p>","null","","","","","","","82","","",""
"","html-keyboard-response","96","506873","0.0-3.0-0.17","3pn","[""g""]","","null","<svg viewBox=""0 0 100 100"" > <path d=""M 50 52 L 50 48"" stroke=""black"" stroke-width="".5""/> <path d=""M 52 50 L 48 50"" stroke=""black"" stroke-width="".5""/>","null","","","","","","","","","",""
"","html-keyboard-response","97","507493","0.0-3.0-1.17","3pn","[""g""]","","615.8999996185303","[""<svg viewBox=\""0 0 100 100\"" >"",""<path d=\""M 50 52 L 50 48\"" stroke=\""black\"" stroke-width=\"".5\""/>"","" <path d=\""M 52 50 L 48 50\"" stroke=\""black\"" stroke-width=\"".5\""/>"",""<circle cx=\""50\"" cy=\""50\"" r=\""10\"" fill=\""none\"" transform=\""translate(26 15)\"" stroke=\""red\"" />"",""<path d=\""M 50 57 L 50 43\"" stroke=\""black\"" transform=\""translate(26 15) rotate(0 50 50)\""/>"",""<circle cx=\""50\"" cy=\""50\"" r=\""10\"" fill=\""none\"" transform=\""translate(0 30)\"" stroke=\""black\"" />"",""<path d=\""M 50 57 L 50 43\"" stroke=\""black\"" transform=\""translate(0 30) rotate(-45 50 50)\""/>"",""<circle cx=\""50\"" cy=\""50\"" r=\""10\"" fill=\""none\"" transform=\""translate(-26 15)\"" stroke=\""cyan\"" />"",""<path d=\""M 50 57 L 50 43\"" stroke=\""black\"" transform=\""translate(-26 15) rotate(45 50 50)\""/>"",""<circle cx=\""50\"" cy=\""50\"" r=\""10\"" fill=\""none\"" transform=\""translate(-26 -15)\"" stroke=\""yellow\"" />"",""<path d=\""M 50 57 L 50 43\"" stroke=\""black\"" transform=\""translate(-26 -15) rotate(45 50 50)\""/>"",""<circle cx=\""50\"" cy=\""50\"" r=\""10\"" fill=\""none\"" transform=\""translate(0 -30)\"" stroke=\""blue\"" />"",""<path d=\""M 50 57 L 50 43\"" stroke=\""black\"" transform=\""translate(0 -30) rotate(45 50 50)\""/>"",""<circle cx=\""50\"" cy=\""50\"" r=\""10\"" fill=\""none\"" transform=\""translate(26 -15)\"" stroke=\""magenta\"" />"",""<path d=\""M 50 57 L 50 43\"" stroke=\""black\"" transform=\""translate(26 -15) rotate(45 50 50)\""/>"",""</svg>""]","m","VDACtest","r","0","v","true","low","","","",""
"","html-keyboard-response","98","509996","0.0-3.0-2.17","3pn","[""g""]","","null","<p style=""font-size:300%;""> + 2 points.</p><p style=""font-size:300%"">Total: 84 points.</p>","null","","","","","","","84","","",""
"","html-keyboard-response","99","511496","0.0-3.0-0.18","3pn","[""g""]","","null","<svg viewBox=""0 0 100 100"" > <path d=""M 50 52 L 50 48"" stroke=""black"" stroke-width="".5""/> <path d=""M 52 50 L 48 50"" stroke=""black"" stroke-width="".5""/>","null","","","","","","","","","",""
"","html-keyboard-response","100","511933","0.0-3.0-1.18","3pn","[""g""]","","432.59999990463257","[""<svg viewBox=\""0 0 100 100\"" >"",""<path d=\""M 50 52 L 50 48\"" stroke=\""black\"" stroke-width=\"".5\""/>"","" <path d=\""M 52 50 L 48 50\"" stroke=\""black\"" stroke-width=\"".5\""/>"",""<circle cx=\""50\"" cy=\""50\"" r=\""10\"" fill=\""none\"" transform=\""translate(26 15)\"" stroke=\""yellow\"" />"",""<path d=\""M 50 57 L 50 43\"" stroke=\""black\"" transform=\""translate(26 15) rotate(45 50 50)\""/>"",""<circle cx=\""50\"" cy=\""50\"" r=\""10\"" fill=\""none\"" transform=\""translate(0 30)\"" stroke=\""cyan\"" />"",""<path d=\""M 50 57 L 50 43\"" stroke=\""black\"" transform=\""translate(0 30) rotate(45 50 50)\""/>"",""<circle cx=\""50\"" cy=\""50\"" r=\""10\"" fill=\""none\"" transform=\""translate(-26 15)\"" stroke=\""blue\"" />"",""<path d=\""M 50 57 L 50 43\"" stroke=\""black\"" transform=\""translate(-26 15) rotate(-45 50 50)\""/>"",""<circle cx=\""50\"" cy=\""50\"" r=\""10\"" fill=\""none\"" transform=\""translate(-26 -15)\"" stroke=\""black\"" />"",""<path d=\""M 50 57 L 50 43\"" stroke=\""black\"" transform=\""translate(-26 -15) rotate(-45 50 50)\""/>"",""<circle cx=\""50\"" cy=\""50\"" r=\""10\"" fill=\""none\"" transform=\""translate(0 -30)\"" stroke=\""red\"" />"",""<path d=\""M 50 57 L 50 43\"" stroke=\""black\"" transform=\""translate(0 -30) rotate(0 50 50)\""/>"",""<circle cx=\""50\"" cy=\""50\"" r=\""10\"" fill=\""none\"" transform=\""translate(26 -15)\"" stroke=\""magenta\"" />"",""<path d=\""M 50 57 L 50 43\"" stroke=\""black\"" transform=\""translate(26 -15) rotate(45 50 50)\""/>"",""</svg>""]","m","VDACtest","r","4","v","true","low","","","",""
"","html-keyboard-response","101","514435","0.0-3.0-2.18","3pn","[""g""]","","null","<p style=""font-size:300%;""> + 2 points.</p><p style=""font-size:300%"">Total: 86 points.</p>","null","","","","","","","86","","",""
"","html-keyboard-response","102","515936","0.0-3.0-0.19","3pn","[""g""]","","null","<svg viewBox=""0 0 100 100"" > <path d=""M 50 52 L 50 48"" stroke=""black"" stroke-width="".5""/> <path d=""M 52 50 L 48 50"" stroke=""black"" stroke-width="".5""/>","null","","","","","","","","","",""
"","html-keyboard-response","103","516381","0.0-3.0-1.19","3pn","[""g""]","","443.69999980926514","[""<svg viewBox=\""0 0 100 100\"" >"",""<path d=\""M 50 52 L 50 48\"" stroke=\""black\"" stroke-width=\"".5\""/>"","" <path d=\""M 52 50 L 48 50\"" stroke=\""black\"" stroke-width=\"".5\""/>"",""<circle cx=\""50\"" cy=\""50\"" r=\""10\"" fill=\""none\"" transform=\""translate(26 15)\"" stroke=\""yellow\"" />"",""<path d=\""M 50 57 L 50 43\"" stroke=\""black\"" transform=\""translate(26 15) rotate(-45 50 50)\""/>"",""<circle cx=\""50\"" cy=\""50\"" r=\""10\"" fill=\""none\"" transform=\""translate(0 30)\"" stroke=\""magenta\"" />"",""<path d=\""M 50 57 L 50 43\"" stroke=\""black\"" transform=\""translate(0 30) rotate(45 50 50)\""/>"",""<circle cx=\""50\"" cy=\""50\"" r=\""10\"" fill=\""none\"" transform=\""translate(-26 15)\"" stroke=\""blue\"" />"",""<path d=\""M 50 57 L 50 43\"" stroke=\""black\"" transform=\""translate(-26 15) rotate(-45 50 50)\""/>"",""<circle cx=\""50\"" cy=\""50\"" r=\""10\"" fill=\""none\"" transform=\""translate(-26 -15)\"" stroke=\""red\"" />"",""<path d=\""M 50 57 L 50 43\"" stroke=\""black\"" transform=\""translate(-26 -15) rotate(0 50 50)\""/>"",""<circle cx=\""50\"" cy=\""50\"" r=\""10\"" fill=\""none\"" transform=\""translate(0 -30)\"" stroke=\""black\"" />"",""<path d=\""M 50 57 L 50 43\"" stroke=\""black\"" transform=\""translate(0 -30) rotate(45 50 50)\""/>"",""<circle cx=\""50\"" cy=\""50\"" r=\""10\"" fill=\""none\"" transform=\""translate(26 -15)\"" stroke=\""cyan\"" />"",""<path d=\""M 50 57 L 50 43\"" stroke=\""black\"" transform=\""translate(26 -15) rotate(-45 50 50)\""/>"",""</svg>""]","m","VDACtest","r","3","v","true","low","","","",""
"","html-keyboard-response","104","518884","0.0-3.0-2.19","3pn","[""g""]","","null","<p style=""font-size:300%;""> + 2 points.</p><p style=""font-size:300%"">Total: 88 points.</p>","null","","","","","","","88","","",""
"","html-keyboard-response","105","520385","0.0-3.0-0.20","3pn","[""g""]","","null","<svg viewBox=""0 0 100 100"" > <path d=""M 50 52 L 50 48"" stroke=""black"" stroke-width="".5""/> <path d=""M 52 50 L 48 50"" stroke=""black"" stroke-width="".5""/>","null","","","","","","","","","",""
"","html-keyboard-response","106","520853","0.0-3.0-1.20","3pn","[""g""]","","464.59999990463257","[""<svg viewBox=\""0 0 100 100\"" >"",""<path d=\""M 50 52 L 50 48\"" stroke=\""black\"" stroke-width=\"".5\""/>"","" <path d=\""M 52 50 L 48 50\"" stroke=\""black\"" stroke-width=\"".5\""/>"",""<circle cx=\""50\"" cy=\""50\"" r=\""10\"" fill=\""none\"" transform=\""translate(26 15)\"" stroke=\""magenta\"" />"",""<path d=\""M 50 57 L 50 43\"" stroke=\""black\"" transform=\""translate(26 15) rotate(-45 50 50)\""/>"",""<circle cx=\""50\"" cy=\""50\"" r=\""10\"" fill=\""none\"" transform=\""translate(0 30)\"" stroke=\""cyan\"" />"",""<path d=\""M 50 57 L 50 43\"" stroke=\""black\"" transform=\""translate(0 30) rotate(45 50 50)\""/>"",""<circle cx=\""50\"" cy=\""50\"" r=\""10\"" fill=\""none\"" transform=\""translate(-26 15)\"" stroke=\""yellow\"" />"",""<path d=\""M 50 57 L 50 43\"" stroke=\""black\"" transform=\""translate(-26 15) rotate(-45 50 50)\""/>"",""<circle cx=\""50\"" cy=\""50\"" r=\""10\"" fill=\""none\"" transform=\""translate(-26 -15)\"" stroke=\""black\"" />"",""<path d=\""M 50 57 L 50 43\"" stroke=\""black\"" transform=\""translate(-26 -15) rotate(45 50 50)\""/>"",""<circle cx=\""50\"" cy=\""50\"" r=\""10\"" fill=\""none\"" transform=\""translate(0 -30)\"" stroke=\""blue\"" />"",""<path d=\""M 50 57 L 50 43\"" stroke=\""black\"" transform=\""translate(0 -30) rotate(-45 50 50)\""/>"",""<circle cx=\""50\"" cy=\""50\"" r=\""10\"" fill=\""none\"" transform=\""translate(26 -15)\"" stroke=\""lime\"" />"",""<path d=\""M 50 57 L 50 43\"" stroke=\""black\"" transform=\""translate(26 -15) rotate(90 50 50)\""/>"",""</svg>""]","z","VDACtest","g","5","h","true","high","","","",""
"","html-keyboard-response","107","523355","0.0-3.0-2.20","3pn","[""g""]","","null","<p style=""font-size:300%;""> + 10 points.</p><p style=""font-size:300%"">Total: 98 points.</p>","null","","","","","","","98","","",""
"","html-keyboard-response","108","524855","0.0-3.0-0.21","3pn","[""g""]","","null","<svg viewBox=""0 0 100 100"" > <path d=""M 50 52 L 50 48"" stroke=""black"" stroke-width="".5""/> <path d=""M 52 50 L 48 50"" stroke=""black"" stroke-width="".5""/>","null","","","","","","","","","",""
"","html-keyboard-response","109","525405","0.0-3.0-1.21","3pn","[""g""]","","545.8000001907349","[""<svg viewBox=\""0 0 100 100\"" >"",""<path d=\""M 50 52 L 50 48\"" stroke=\""black\"" stroke-width=\"".5\""/>"","" <path d=\""M 52 50 L 48 50\"" stroke=\""black\"" stroke-width=\"".5\""/>"",""<circle cx=\""50\"" cy=\""50\"" r=\""10\"" fill=\""none\"" transform=\""translate(26 15)\"" stroke=\""yellow\"" />"",""<path d=\""M 50 57 L 50 43\"" stroke=\""black\"" transform=\""translate(26 15) rotate(45 50 50)\""/>"",""<circle cx=\""50\"" cy=\""50\"" r=\""10\"" fill=\""none\"" transform=\""translate(0 30)\"" stroke=\""red\"" />"",""<path d=\""M 50 57 L 50 43\"" stroke=\""black\"" transform=\""translate(0 30) rotate(0 50 50)\""/>"",""<circle cx=\""50\"" cy=\""50\"" r=\""10\"" fill=\""none\"" transform=\""translate(-26 15)\"" stroke=\""cyan\"" />"",""<path d=\""M 50 57 L 50 43\"" stroke=\""black\"" transform=\""translate(-26 15) rotate(-45 50 50)\""/>"",""<circle cx=\""50\"" cy=\""50\"" r=\""10\"" fill=\""none\"" transform=\""translate(-26 -15)\"" stroke=\""magenta\"" />"",""<path d=\""M 50 57 L 50 43\"" stroke=\""black\"" transform=\""translate(-26 -15) rotate(-45 50 50)\""/>"",""<circle cx=\""50\"" cy=\""50\"" r=\""10\"" fill=\""none\"" transform=\""translate(0 -30)\"" stroke=\""blue\"" />"",""<path d=\""M 50 57 L 50 43\"" stroke=\""black\"" transform=\""translate(0 -30) rotate(-45 50 50)\""/>"",""<circle cx=\""50\"" cy=\""50\"" r=\""10\"" fill=\""none\"" transform=\""translate(26 -15)\"" stroke=\""black\"" />"",""<path d=\""M 50 57 L 50 43\"" stroke=\""black\"" transform=\""translate(26 -15) rotate(45 50 50)\""/>"",""</svg>""]","m","VDACtest","r","1","v","true","low","","","",""
"","html-keyboard-response","110","527908","0.0-3.0-2.21","3pn","[""g""]","","null","<p style=""font-size:300%;""> + 2 points.</p><p style=""font-size:300%"">Total: 100 points.</p>","null","","","","","","","100","","",""
"","html-keyboard-response","111","529409","0.0-3.0-0.22","3pn","[""g""]","","null","<svg viewBox=""0 0 100 100"" > <path d=""M 50 52 L 50 48"" stroke=""black"" stroke-width="".5""/> <path d=""M 52 50 L 48 50"" stroke=""black"" stroke-width="".5""/>","null","","","","","","","","","",""
"","html-keyboard-response","112","529965","0.0-3.0-1.22","3pn","[""g""]","","552.5","[""<svg viewBox=\""0 0 100 100\"" >"",""<path d=\""M 50 52 L 50 48\"" stroke=\""black\"" stroke-width=\"".5\""/>"","" <path d=\""M 52 50 L 48 50\"" stroke=\""black\"" stroke-width=\"".5\""/>"",""<circle cx=\""50\"" cy=\""50\"" r=\""10\"" fill=\""none\"" transform=\""translate(26 15)\"" stroke=\""cyan\"" />"",""<path d=\""M 50 57 L 50 43\"" stroke=\""black\"" transform=\""translate(26 15) rotate(45 50 50)\""/>"",""<circle cx=\""50\"" cy=\""50\"" r=\""10\"" fill=\""none\"" transform=\""translate(0 30)\"" stroke=\""magenta\"" />"",""<path d=\""M 50 57 L 50 43\"" stroke=\""black\"" transform=\""translate(0 30) rotate(45 50 50)\""/>"",""<circle cx=\""50\"" cy=\""50\"" r=\""10\"" fill=\""none\"" transform=\""translate(-26 15)\"" stroke=\""black\"" />"",""<path d=\""M 50 57 L 50 43\"" stroke=\""black\"" transform=\""translate(-26 15) rotate(45 50 50)\""/>"",""<circle cx=\""50\"" cy=\""50\"" r=\""10\"" fill=\""none\"" transform=\""translate(-26 -15)\"" stroke=\""yellow\"" />"",""<path d=\""M 50 57 L 50 43\"" stroke=\""black\"" transform=\""translate(-26 -15) rotate(45 50 50)\""/>"",""<circle cx=\""50\"" cy=\""50\"" r=\""10\"" fill=\""none\"" transform=\""translate(0 -30)\"" stroke=\""blue\"" />"",""<path d=\""M 50 57 L 50 43\"" stroke=\""black\"" transform=\""translate(0 -30) rotate(45 50 50)\""/>"",""<circle cx=\""50\"" cy=\""50\"" r=\""10\"" fill=\""none\"" transform=\""translate(26 -15)\"" stroke=\""red\"" />"",""<path d=\""M 50 57 L 50 43\"" stroke=\""black\"" transform=\""translate(26 -15) rotate(90 50 50)\""/>"",""</svg>""]","m","VDACtest","r","5","h","false","low","","","",""
"","html-keyboard-response","113","532467","0.0-3.0-2.22","3pn","[""g""]","","null","<p style=""font-size:300%;"">Miss.</p><p style=""font-size:300%"">Total: 100 points.</p>","null","","","","","","","100","","",""
"","html-keyboard-response","114","533967","0.0-3.0-0.23","3pn","[""g""]","","null","<svg viewBox=""0 0 100 100"" > <path d=""M 50 52 L 50 48"" stroke=""black"" stroke-width="".5""/> <path d=""M 52 50 L 48 50"" stroke=""black"" stroke-width="".5""/>","null","","","","","","","","","",""
"","html-keyboard-response","115","534517","0.0-3.0-1.23","3pn","[""g""]","","546.4000000953674","[""<svg viewBox=\""0 0 100 100\"" >"",""<path d=\""M 50 52 L 50 48\"" stroke=\""black\"" stroke-width=\"".5\""/>"","" <path d=\""M 52 50 L 48 50\"" stroke=\""black\"" stroke-width=\"".5\""/>"",""<circle cx=\""50\"" cy=\""50\"" r=\""10\"" fill=\""none\"" transform=\""translate(26 15)\"" stroke=\""blue\"" />"",""<path d=\""M 50 57 L 50 43\"" stroke=\""black\"" transform=\""translate(26 15) rotate(45 50 50)\""/>"",""<circle cx=\""50\"" cy=\""50\"" r=\""10\"" fill=\""none\"" transform=\""translate(0 30)\"" stroke=\""black\"" />"",""<path d=\""M 50 57 L 50 43\"" stroke=\""black\"" transform=\""translate(0 30) rotate(45 50 50)\""/>"",""<circle cx=\""50\"" cy=\""50\"" r=\""10\"" fill=\""none\"" transform=\""translate(-26 15)\"" stroke=\""magenta\"" />"",""<path d=\""M 50 57 L 50 43\"" stroke=\""black\"" transform=\""translate(-26 15) rotate(45 50 50)\""/>"",""<circle cx=\""50\"" cy=\""50\"" r=\""10\"" fill=\""none\"" transform=\""translate(-26 -15)\"" stroke=\""red\"" />"",""<path d=\""M 50 57 L 50 43\"" stroke=\""black\"" transform=\""translate(-26 -15) rotate(0 50 50)\""/>"",""<circle cx=\""50\"" cy=\""50\"" r=\""10\"" fill=\""none\"" transform=\""translate(0 -30)\"" stroke=\""cyan\"" />"",""<path d=\""M 50 57 L 50 43\"" stroke=\""black\"" transform=\""translate(0 -30) rotate(45 50 50)\""/>"",""<circle cx=\""50\"" cy=\""50\"" r=\""10\"" fill=\""none\"" transform=\""translate(26 -15)\"" stroke=\""yellow\"" />"",""<path d=\""M 50 57 L 50 43\"" stroke=\""black\"" transform=\""translate(26 -15) rotate(-45 50 50)\""/>"",""</svg>""]","m","VDACtest","r","3","v","true","low","","","",""
"","html-keyboard-response","116","537019","0.0-3.0-2.23","3pn","[""g""]","","null","<p style=""font-size:300%;""> + 2 points.</p><p style=""font-size:300%"">Total: 102 points.</p>","null","","","","","","","102","","",""
"","html-keyboard-response","117","538519","0.0-3.0-0.24","3pn","[""g""]","","null","<svg viewBox=""0 0 100 100"" > <path d=""M 50 52 L 50 48"" stroke=""black"" stroke-width="".5""/> <path d=""M 52 50 L 48 50"" stroke=""black"" stroke-width="".5""/>","null","","","","","","","","","",""
"","html-keyboard-response","118","539157","0.0-3.0-1.24","3pn","[""g""]","","634.5","[""<svg viewBox=\""0 0 100 100\"" >"",""<path d=\""M 50 52 L 50 48\"" stroke=\""black\"" stroke-width=\"".5\""/>"","" <path d=\""M 52 50 L 48 50\"" stroke=\""black\"" stroke-width=\"".5\""/>"",""<circle cx=\""50\"" cy=\""50\"" r=\""10\"" fill=\""none\"" transform=\""translate(26 15)\"" stroke=\""blue\"" />"",""<path d=\""M 50 57 L 50 43\"" stroke=\""black\"" transform=\""translate(26 15) rotate(-45 50 50)\""/>"",""<circle cx=\""50\"" cy=\""50\"" r=\""10\"" fill=\""none\"" transform=\""translate(0 30)\"" stroke=\""magenta\"" />"",""<path d=\""M 50 57 L 50 43\"" stroke=\""black\"" transform=\""translate(0 30) rotate(45 50 50)\""/>"",""<circle cx=\""50\"" cy=\""50\"" r=\""10\"" fill=\""none\"" transform=\""translate(-26 15)\"" stroke=\""black\"" />"",""<path d=\""M 50 57 L 50 43\"" stroke=\""black\"" transform=\""translate(-26 15) rotate(-45 50 50)\""/>"",""<circle cx=\""50\"" cy=\""50\"" r=\""10\"" fill=\""none\"" transform=\""translate(-26 -15)\"" stroke=\""yellow\"" />"",""<path d=\""M 50 57 L 50 43\"" stroke=\""black\"" transform=\""translate(-26 -15) rotate(45 50 50)\""/>"",""<circle cx=\""50\"" cy=\""50\"" r=\""10\"" fill=\""none\"" transform=\""translate(0 -30)\"" stroke=\""lime\"" />"",""<path d=\""M 50 57 L 50 43\"" stroke=\""black\"" transform=\""translate(0 -30) rotate(0 50 50)\""/>"",""<circle cx=\""50\"" cy=\""50\"" r=\""10\"" fill=\""none\"" transform=\""translate(26 -15)\"" stroke=\""cyan\"" />"",""<path d=\""M 50 57 L 50 43\"" stroke=\""black\"" transform=\""translate(26 -15) rotate(-45 50 50)\""/>"",""</svg>""]","m","VDACtest","g","4","v","true","high","","","",""
"","html-keyboard-response","119","541658","0.0-3.0-2.24","3pn","[""g""]","","null","<p style=""font-size:300%;""> + 10 points.</p><p style=""font-size:300%"">Total: 112 points.</p>","null","","","","","","","112","","",""
"","html-keyboard-response","120","543159","0.0-3.0-0.25","3pn","[""g""]","","null","<svg viewBox=""0 0 100 100"" > <path d=""M 50 52 L 50 48"" stroke=""black"" stroke-width="".5""/> <path d=""M 52 50 L 48 50"" stroke=""black"" stroke-width="".5""/>","null","","","","","","","","","",""
"","html-keyboard-response","121","543805","0.0-3.0-1.25","3pn","[""g""]","","642.6999998092651","[""<svg viewBox=\""0 0 100 100\"" >"",""<path d=\""M 50 52 L 50 48\"" stroke=\""black\"" stroke-width=\"".5\""/>"","" <path d=\""M 52 50 L 48 50\"" stroke=\""black\"" stroke-width=\"".5\""/>"",""<circle cx=\""50\"" cy=\""50\"" r=\""10\"" fill=\""none\"" transform=\""translate(26 15)\"" stroke=\""magenta\"" />"",""<path d=\""M 50 57 L 50 43\"" stroke=\""black\"" transform=\""translate(26 15) rotate(45 50 50)\""/>"",""<circle cx=\""50\"" cy=\""50\"" r=\""10\"" fill=\""none\"" transform=\""translate(0 30)\"" stroke=\""yellow\"" />"",""<path d=\""M 50 57 L 50 43\"" stroke=\""black\"" transform=\""translate(0 30) rotate(45 50 50)\""/>"",""<circle cx=\""50\"" cy=\""50\"" r=\""10\"" fill=\""none\"" transform=\""translate(-26 15)\"" stroke=\""blue\"" />"",""<path d=\""M 50 57 L 50 43\"" stroke=\""black\"" transform=\""translate(-26 15) rotate(-45 50 50)\""/>"",""<circle cx=\""50\"" cy=\""50\"" r=\""10\"" fill=\""none\"" transform=\""translate(-26 -15)\"" stroke=\""cyan\"" />"",""<path d=\""M 50 57 L 50 43\"" stroke=\""black\"" transform=\""translate(-26 -15) rotate(45 50 50)\""/>"",""<circle cx=\""50\"" cy=\""50\"" r=\""10\"" fill=\""none\"" transform=\""translate(0 -30)\"" stroke=\""black\"" />"",""<path d=\""M 50 57 L 50 43\"" stroke=\""black\"" transform=\""translate(0 -30) rotate(45 50 50)\""/>"",""<circle cx=\""50\"" cy=\""50\"" r=\""10\"" fill=\""none\"" transform=\""translate(26 -15)\"" stroke=\""lime\"" />"",""<path d=\""M 50 57 L 50 43\"" stroke=\""black\"" transform=\""translate(26 -15) rotate(0 50 50)\""/>"",""</svg>""]","m","VDACtest","g","5","v","true","high","","","",""
"","html-keyboard-response","122","546308","0.0-3.0-2.25","3pn","[""g""]","","null","<p style=""font-size:300%;""> + 10 points.</p><p style=""font-size:300%"">Total: 122 points.</p>","null","","","","","","","122","","",""
"","html-keyboard-response","123","547809","0.0-3.0-0.26","3pn","[""g""]","","null","<svg viewBox=""0 0 100 100"" > <path d=""M 50 52 L 50 48"" stroke=""black"" stroke-width="".5""/> <path d=""M 52 50 L 48 50"" stroke=""black"" stroke-width="".5""/>","null","","","","","","","","","",""
"","html-keyboard-response","124","548485","0.0-3.0-1.26","3pn","[""g""]","","672","[""<svg viewBox=\""0 0 100 100\"" >"",""<path d=\""M 50 52 L 50 48\"" stroke=\""black\"" stroke-width=\"".5\""/>"","" <path d=\""M 52 50 L 48 50\"" stroke=\""black\"" stroke-width=\"".5\""/>"",""<circle cx=\""50\"" cy=\""50\"" r=\""10\"" fill=\""none\"" transform=\""translate(26 15)\"" stroke=\""black\"" />"",""<path d=\""M 50 57 L 50 43\"" stroke=\""black\"" transform=\""translate(26 15) rotate(45 50 50)\""/>"",""<circle cx=\""50\"" cy=\""50\"" r=\""10\"" fill=\""none\"" transform=\""translate(0 30)\"" stroke=\""blue\"" />"",""<path d=\""M 50 57 L 50 43\"" stroke=\""black\"" transform=\""translate(0 30) rotate(45 50 50)\""/>"",""<circle cx=\""50\"" cy=\""50\"" r=\""10\"" fill=\""none\"" transform=\""translate(-26 15)\"" stroke=\""lime\"" />"",""<path d=\""M 50 57 L 50 43\"" stroke=\""black\"" transform=\""translate(-26 15) rotate(90 50 50)\""/>"",""<circle cx=\""50\"" cy=\""50\"" r=\""10\"" fill=\""none\"" transform=\""translate(-26 -15)\"" stroke=\""cyan\"" />"",""<path d=\""M 50 57 L 50 43\"" stroke=\""black\"" transform=\""translate(-26 -15) rotate(-45 50 50)\""/>"",""<circle cx=\""50\"" cy=\""50\"" r=\""10\"" fill=\""none\"" transform=\""translate(0 -30)\"" stroke=\""yellow\"" />"",""<path d=\""M 50 57 L 50 43\"" stroke=\""black\"" transform=\""translate(0 -30) rotate(-45 50 50)\""/>"",""<circle cx=\""50\"" cy=\""50\"" r=\""10\"" fill=\""none\"" transform=\""translate(26 -15)\"" stroke=\""magenta\"" />"",""<path d=\""M 50 57 L 50 43\"" stroke=\""black\"" transform=\""translate(26 -15) rotate(45 50 50)\""/>"",""</svg>""]","z","VDACtest","g","2","h","true","high","","","",""
"","html-keyboard-response","125","550989","0.0-3.0-2.26","3pn","[""g""]","","null","<p style=""font-size:300%;""> + 10 points.</p><p style=""font-size:300%"">Total: 132 points.</p>","null","","","","","","","132","","",""
"","html-keyboard-response","126","552488","0.0-3.0-0.27","3pn","[""g""]","","null","<svg viewBox=""0 0 100 100"" > <path d=""M 50 52 L 50 48"" stroke=""black"" stroke-width="".5""/> <path d=""M 52 50 L 48 50"" stroke=""black"" stroke-width="".5""/>","null","","","","","","","","","",""
"","html-keyboard-response","127","552957","0.0-3.0-1.27","3pn","[""g""]","","464.80000019073486","[""<svg viewBox=\""0 0 100 100\"" >"",""<path d=\""M 50 52 L 50 48\"" stroke=\""black\"" stroke-width=\"".5\""/>"","" <path d=\""M 52 50 L 48 50\"" stroke=\""black\"" stroke-width=\"".5\""/>"",""<circle cx=\""50\"" cy=\""50\"" r=\""10\"" fill=\""none\"" transform=\""translate(26 15)\"" stroke=\""cyan\"" />"",""<path d=\""M 50 57 L 50 43\"" stroke=\""black\"" transform=\""translate(26 15) rotate(45 50 50)\""/>"",""<circle cx=\""50\"" cy=\""50\"" r=\""10\"" fill=\""none\"" transform=\""translate(0 30)\"" stroke=\""yellow\"" />"",""<path d=\""M 50 57 L 50 43\"" stroke=\""black\"" transform=\""translate(0 30) rotate(-45 50 50)\""/>"",""<circle cx=\""50\"" cy=\""50\"" r=\""10\"" fill=\""none\"" transform=\""translate(-26 15)\"" stroke=\""black\"" />"",""<path d=\""M 50 57 L 50 43\"" stroke=\""black\"" transform=\""translate(-26 15) rotate(-45 50 50)\""/>"",""<circle cx=\""50\"" cy=\""50\"" r=\""10\"" fill=\""none\"" transform=\""translate(-26 -15)\"" stroke=\""lime\"" />"",""<path d=\""M 50 57 L 50 43\"" stroke=\""black\"" transform=\""translate(-26 -15) rotate(90 50 50)\""/>"",""<circle cx=\""50\"" cy=\""50\"" r=\""10\"" fill=\""none\"" transform=\""translate(0 -30)\"" stroke=\""magenta\"" />"",""<path d=\""M 50 57 L 50 43\"" stroke=\""black\"" transform=\""translate(0 -30) rotate(-45 50 50)\""/>"",""<circle cx=\""50\"" cy=\""50\"" r=\""10\"" fill=\""none\"" transform=\""translate(26 -15)\"" stroke=\""blue\"" />"",""<path d=\""M 50 57 L 50 43\"" stroke=\""black\"" transform=\""translate(26 -15) rotate(-45 50 50)\""/>"",""</svg>""]","z","VDACtest","g","3","h","true","high","","","",""
"","html-keyboard-response","128","555460","0.0-3.0-2.27","3pn","[""g""]","","null","<p style=""font-size:300%;""> + 10 points.</p><p style=""font-size:300%"">Total: 142 points.</p>","null","","","","","","","142","","",""
"","html-keyboard-response","129","556961","0.0-3.0-0.28","3pn","[""g""]","","null","<svg viewBox=""0 0 100 100"" > <path d=""M 50 52 L 50 48"" stroke=""black"" stroke-width="".5""/> <path d=""M 52 50 L 48 50"" stroke=""black"" stroke-width="".5""/>","null","","","","","","","","","",""
"","html-keyboard-response","130","557501","0.0-3.0-1.28","3pn","[""g""]","","536.6999998092651","[""<svg viewBox=\""0 0 100 100\"" >"",""<path d=\""M 50 52 L 50 48\"" stroke=\""black\"" stroke-width=\"".5\""/>"","" <path d=\""M 52 50 L 48 50\"" stroke=\""black\"" stroke-width=\"".5\""/>"",""<circle cx=\""50\"" cy=\""50\"" r=\""10\"" fill=\""none\"" transform=\""translate(26 15)\"" stroke=\""black\"" />"",""<path d=\""M 50 57 L 50 43\"" stroke=\""black\"" transform=\""translate(26 15) rotate(45 50 50)\""/>"",""<circle cx=\""50\"" cy=\""50\"" r=\""10\"" fill=\""none\"" transform=\""translate(0 30)\"" stroke=\""cyan\"" />"",""<path d=\""M 50 57 L 50 43\"" stroke=\""black\"" transform=\""translate(0 30) rotate(-45 50 50)\""/>"",""<circle cx=\""50\"" cy=\""50\"" r=\""10\"" fill=\""none\"" transform=\""translate(-26 15)\"" stroke=\""magenta\"" />"",""<path d=\""M 50 57 L 50 43\"" stroke=\""black\"" transform=\""translate(-26 15) rotate(-45 50 50)\""/>"",""<circle cx=\""50\"" cy=\""50\"" r=\""10\"" fill=\""none\"" transform=\""translate(-26 -15)\"" stroke=\""yellow\"" />"",""<path d=\""M 50 57 L 50 43\"" stroke=\""black\"" transform=\""translate(-26 -15) rotate(-45 50 50)\""/>"",""<circle cx=\""50\"" cy=\""50\"" r=\""10\"" fill=\""none\"" transform=\""translate(0 -30)\"" stroke=\""blue\"" />"",""<path d=\""M 50 57 L 50 43\"" stroke=\""black\"" transform=\""translate(0 -30) rotate(-45 50 50)\""/>"",""<circle cx=\""50\"" cy=\""50\"" r=\""10\"" fill=\""none\"" transform=\""translate(26 -15)\"" stroke=\""lime\"" />"",""<path d=\""M 50 57 L 50 43\"" stroke=\""black\"" transform=\""translate(26 -15) rotate(90 50 50)\""/>"",""</svg>""]","z","VDACtest","g","5","h","true","high","","","",""
"","html-keyboard-response","131","560003","0.0-3.0-2.28","3pn","[""g""]","","null","<p style=""font-size:300%;""> + 10 points.</p><p style=""font-size:300%"">Total: 152 points.</p>","null","","","","","","","152","","",""
"","html-keyboard-response","132","561504","0.0-3.0-0.29","3pn","[""g""]","","null","<svg viewBox=""0 0 100 100"" > <path d=""M 50 52 L 50 48"" stroke=""black"" stroke-width="".5""/> <path d=""M 52 50 L 48 50"" stroke=""black"" stroke-width="".5""/>","null","","","","","","","","","",""
"","html-keyboard-response","133","562101","0.0-3.0-1.29","3pn","[""g""]","","593.3000001907349","[""<svg viewBox=\""0 0 100 100\"" >"",""<path d=\""M 50 52 L 50 48\"" stroke=\""black\"" stroke-width=\"".5\""/>"","" <path d=\""M 52 50 L 48 50\"" stroke=\""black\"" stroke-width=\"".5\""/>"",""<circle cx=\""50\"" cy=\""50\"" r=\""10\"" fill=\""none\"" transform=\""translate(26 15)\"" stroke=\""black\"" />"",""<path d=\""M 50 57 L 50 43\"" stroke=\""black\"" transform=\""translate(26 15) rotate(45 50 50)\""/>"",""<circle cx=\""50\"" cy=\""50\"" r=\""10\"" fill=\""none\"" transform=\""translate(0 30)\"" stroke=\""magenta\"" />"",""<path d=\""M 50 57 L 50 43\"" stroke=\""black\"" transform=\""translate(0 30) rotate(-45 50 50)\""/>"",""<circle cx=\""50\"" cy=\""50\"" r=\""10\"" fill=\""none\"" transform=\""translate(-26 15)\"" stroke=\""blue\"" />"",""<path d=\""M 50 57 L 50 43\"" stroke=\""black\"" transform=\""translate(-26 15) rotate(-45 50 50)\""/>"",""<circle cx=\""50\"" cy=\""50\"" r=\""10\"" fill=\""none\"" transform=\""translate(-26 -15)\"" stroke=\""cyan\"" />"",""<path d=\""M 50 57 L 50 43\"" stroke=\""black\"" transform=\""translate(-26 -15) rotate(45 50 50)\""/>"",""<circle cx=\""50\"" cy=\""50\"" r=\""10\"" fill=\""none\"" transform=\""translate(0 -30)\"" stroke=\""yellow\"" />"",""<path d=\""M 50 57 L 50 43\"" stroke=\""black\"" transform=\""translate(0 -30) rotate(45 50 50)\""/>"",""<circle cx=\""50\"" cy=\""50\"" r=\""10\"" fill=\""none\"" transform=\""translate(26 -15)\"" stroke=\""red\"" />"",""<path d=\""M 50 57 L 50 43\"" stroke=\""black\"" transform=\""translate(26 -15) rotate(90 50 50)\""/>"",""</svg>""]","z","VDACtest","r","5","h","true","low","","","",""
"","html-keyboard-response","134","564603","0.0-3.0-2.29","3pn","[""g""]","","null","<p style=""font-size:300%;""> + 2 points.</p><p style=""font-size:300%"">Total: 154 points.</p>","null","","","","","","","154","","",""
"","html-keyboard-response","135","566104","0.0-3.0-0.30","3pn","[""g""]","","null","<svg viewBox=""0 0 100 100"" > <path d=""M 50 52 L 50 48"" stroke=""black"" stroke-width="".5""/> <path d=""M 52 50 L 48 50"" stroke=""black"" stroke-width="".5""/>","null","","","","","","","","","",""
"","html-keyboard-response","136","566669","0.0-3.0-1.30","3pn","[""g""]","","562.3000001907349","[""<svg viewBox=\""0 0 100 100\"" >"",""<path d=\""M 50 52 L 50 48\"" stroke=\""black\"" stroke-width=\"".5\""/>"","" <path d=\""M 52 50 L 48 50\"" stroke=\""black\"" stroke-width=\"".5\""/>"",""<circle cx=\""50\"" cy=\""50\"" r=\""10\"" fill=\""none\"" transform=\""translate(26 15)\"" stroke=\""blue\"" />"",""<path d=\""M 50 57 L 50 43\"" stroke=\""black\"" transform=\""translate(26 15) rotate(45 50 50)\""/>"",""<circle cx=\""50\"" cy=\""50\"" r=\""10\"" fill=\""none\"" transform=\""translate(0 30)\"" stroke=\""black\"" />"",""<path d=\""M 50 57 L 50 43\"" stroke=\""black\"" transform=\""translate(0 30) rotate(-45 50 50)\""/>"",""<circle cx=\""50\"" cy=\""50\"" r=\""10\"" fill=\""none\"" transform=\""translate(-26 15)\"" stroke=\""magenta\"" />"",""<path d=\""M 50 57 L 50 43\"" stroke=\""black\"" transform=\""translate(-26 15) rotate(45 50 50)\""/>"",""<circle cx=\""50\"" cy=\""50\"" r=\""10\"" fill=\""none\"" transform=\""translate(-26 -15)\"" stroke=\""yellow\"" />"",""<path d=\""M 50 57 L 50 43\"" stroke=\""black\"" transform=\""translate(-26 -15) rotate(-45 50 50)\""/>"",""<circle cx=\""50\"" cy=\""50\"" r=\""10\"" fill=\""none\"" transform=\""translate(0 -30)\"" stroke=\""lime\"" />"",""<path d=\""M 50 57 L 50 43\"" stroke=\""black\"" transform=\""translate(0 -30) rotate(0 50 50)\""/>"",""<circle cx=\""50\"" cy=\""50\"" r=\""10\"" fill=\""none\"" transform=\""translate(26 -15)\"" stroke=\""cyan\"" />"",""<path d=\""M 50 57 L 50 43\"" stroke=\""black\"" transform=\""translate(26 -15) rotate(-45 50 50)\""/>"",""</svg>""]","m","VDACtest","g","4","v","true","high","","","",""
"","html-keyboard-response","137","569171","0.0-3.0-2.30","3pn","[""g""]","","null","<p style=""font-size:300%;""> + 10 points.</p><p style=""font-size:300%"">Total: 164 points.</p>","null","","","","","","","164","","",""
"","html-keyboard-response","138","570671","0.0-3.0-0.31","3pn","[""g""]","","null","<svg viewBox=""0 0 100 100"" > <path d=""M 50 52 L 50 48"" stroke=""black"" stroke-width="".5""/> <path d=""M 52 50 L 48 50"" stroke=""black"" stroke-width="".5""/>","null","","","","","","","","","",""
"","html-keyboard-response","139","571221","0.0-3.0-1.31","3pn","[""g""]","","547.0999999046326","[""<svg viewBox=\""0 0 100 100\"" >"",""<path d=\""M 50 52 L 50 48\"" stroke=\""black\"" stroke-width=\"".5\""/>"","" <path d=\""M 52 50 L 48 50\"" stroke=\""black\"" stroke-width=\"".5\""/>"",""<circle cx=\""50\"" cy=\""50\"" r=\""10\"" fill=\""none\"" transform=\""translate(26 15)\"" stroke=\""red\"" />"",""<path d=\""M 50 57 L 50 43\"" stroke=\""black\"" transform=\""translate(26 15) rotate(90 50 50)\""/>"",""<circle cx=\""50\"" cy=\""50\"" r=\""10\"" fill=\""none\"" transform=\""translate(0 30)\"" stroke=\""blue\"" />"",""<path d=\""M 50 57 L 50 43\"" stroke=\""black\"" transform=\""translate(0 30) rotate(-45 50 50)\""/>"",""<circle cx=\""50\"" cy=\""50\"" r=\""10\"" fill=\""none\"" transform=\""translate(-26 15)\"" stroke=\""yellow\"" />"",""<path d=\""M 50 57 L 50 43\"" stroke=\""black\"" transform=\""translate(-26 15) rotate(45 50 50)\""/>"",""<circle cx=\""50\"" cy=\""50\"" r=\""10\"" fill=\""none\"" transform=\""translate(-26 -15)\"" stroke=\""black\"" />"",""<path d=\""M 50 57 L 50 43\"" stroke=\""black\"" transform=\""translate(-26 -15) rotate(-45 50 50)\""/>"",""<circle cx=\""50\"" cy=\""50\"" r=\""10\"" fill=\""none\"" transform=\""translate(0 -30)\"" stroke=\""cyan\"" />"",""<path d=\""M 50 57 L 50 43\"" stroke=\""black\"" transform=\""translate(0 -30) rotate(45 50 50)\""/>"",""<circle cx=\""50\"" cy=\""50\"" r=\""10\"" fill=\""none\"" transform=\""translate(26 -15)\"" stroke=\""magenta\"" />"",""<path d=\""M 50 57 L 50 43\"" stroke=\""black\"" transform=\""translate(26 -15) rotate(-45 50 50)\""/>"",""</svg>""]","z","VDACtest","r","0","h","true","low","","","",""
"","html-keyboard-response","140","573724","0.0-3.0-2.31","3pn","[""g""]","","null","<p style=""font-size:300%;""> + 10 points.</p><p style=""font-size:300%"">Total: 174 points.</p>","null","","","","","","","174","","",""
"","html-keyboard-response","141","575224","0.0-3.0-0.32","3pn","[""g""]","","null","<svg viewBox=""0 0 100 100"" > <path d=""M 50 52 L 50 48"" stroke=""black"" stroke-width="".5""/> <path d=""M 52 50 L 48 50"" stroke=""black"" stroke-width="".5""/>","null","","","","","","","","","",""
"","html-keyboard-response","142","575677","0.0-3.0-1.32","3pn","[""g""]","","449.19999980926514","[""<svg viewBox=\""0 0 100 100\"" >"",""<path d=\""M 50 52 L 50 48\"" stroke=\""black\"" stroke-width=\"".5\""/>"","" <path d=\""M 52 50 L 48 50\"" stroke=\""black\"" stroke-width=\"".5\""/>"",""<circle cx=\""50\"" cy=\""50\"" r=\""10\"" fill=\""none\"" transform=\""translate(26 15)\"" stroke=\""red\"" />"",""<path d=\""M 50 57 L 50 43\"" stroke=\""black\"" transform=\""translate(26 15) rotate(90 50 50)\""/>"",""<circle cx=\""50\"" cy=\""50\"" r=\""10\"" fill=\""none\"" transform=\""translate(0 30)\"" stroke=\""black\"" />"",""<path d=\""M 50 57 L 50 43\"" stroke=\""black\"" transform=\""translate(0 30) rotate(-45 50 50)\""/>"",""<circle cx=\""50\"" cy=\""50\"" r=\""10\"" fill=\""none\"" transform=\""translate(-26 15)\"" stroke=\""blue\"" />"",""<path d=\""M 50 57 L 50 43\"" stroke=\""black\"" transform=\""translate(-26 15) rotate(-45 50 50)\""/>"",""<circle cx=\""50\"" cy=\""50\"" r=\""10\"" fill=\""none\"" transform=\""translate(-26 -15)\"" stroke=\""yellow\"" />"",""<path d=\""M 50 57 L 50 43\"" stroke=\""black\"" transform=\""translate(-26 -15) rotate(-45 50 50)\""/>"",""<circle cx=\""50\"" cy=\""50\"" r=\""10\"" fill=\""none\"" transform=\""translate(0 -30)\"" stroke=\""magenta\"" />"",""<path d=\""M 50 57 L 50 43\"" stroke=\""black\"" transform=\""translate(0 -30) rotate(45 50 50)\""/>"",""<circle cx=\""50\"" cy=\""50\"" r=\""10\"" fill=\""none\"" transform=\""translate(26 -15)\"" stroke=\""cyan\"" />"",""<path d=\""M 50 57 L 50 43\"" stroke=\""black\"" transform=\""translate(26 -15) rotate(45 50 50)\""/>"",""</svg>""]","z","VDACtest","r","0","h","true","low","","","",""
"","html-keyboard-response","143","578180","0.0-3.0-2.32","3pn","[""g""]","","null","<p style=""font-size:300%;""> + 10 points.</p><p style=""font-size:300%"">Total: 184 points.</p>","null","","","","","","","184","","",""
"","html-keyboard-response","144","579680","0.0-3.0-0.33","3pn","[""g""]","","null","<svg viewBox=""0 0 100 100"" > <path d=""M 50 52 L 50 48"" stroke=""black"" stroke-width="".5""/> <path d=""M 52 50 L 48 50"" stroke=""black"" stroke-width="".5""/>","null","","","","","","","","","",""
