"success","trial_type","trial_index","time_elapsed","internal_node_id","subject","condition","view_history","rt","stimulus","response","trialType","tgtCol","tgtPos","tgtDir","correct","rwdType","reward","value","colPos","question_order"
"true","fullscreen","0","1156043","0.0-0.0","4yv","[""r""]","","","","","","","","","","","","","",""
"","instructions","1","1390048","0.0-1.0-0.0","4yv","[""r""]","[{""page_index"":0,""viewing_time"":142609.40000009537},{""page_index"":1,""viewing_time"":21351.599999904633},{""page_index"":2,""viewing_time"":18775.900000095367},{""page_index"":3,""viewing_time"":2408},{""page_index"":4,""viewing_time"":4928.099999904633},{""page_index"":5,""viewing_time"":3655.9000000953674},{""page_index"":6,""viewing_time"":3616},{""page_index"":7,""viewing_time"":3151.9000000953674},{""page_index"":8,""viewing_time"":5552.099999904633},{""page_index"":9,""viewing_time"":16303.900000095367},{""page_index"":8,""viewing_time"":1695.8999996185303},{""page_index"":7,""viewing_time"":760.1000003814697},{""page_index"":6,""viewing_time"":751.8999996185303},{""page_index"":5,""viewing_time"":3808},{""page_index"":6,""viewing_time"":1184.1000003814697},{""page_index"":7,""viewing_time"":536},{""page_index"":8,""viewing_time"":519.8999996185303},{""page_index"":9,""viewing_time"":2392}]","234001.40000009537","","","","","","","","","","","",""
"","html-keyboard-response","2","1393050","0.0-1.0-1.0-0.0","4yv","[""r""]","","null","<p>Place your fingers on the <b>z</b> and <b>m</b> keys. The experiment will begin shortly.</p> <p></p>","null","","","","","","","","","",""
"","html-keyboard-response","3","1394052","0.0-1.0-1.0-1.0","4yv","[""r""]","","null","<p>Place your fingers on the <b>z</b> and <b>m</b> keys. </b>The experiment will begin shortly.</p><p>5</p>","null","","","","","","","","","",""
"","html-keyboard-response","4","1395054","0.0-1.0-1.0-2.0","4yv","[""r""]","","null","<p>Place your fingers on the <b>z</b> and <b>m</b> keys. </b>The experiment will begin shortly.</p><p>4</p>","null","","","","","","","","","",""
"","html-keyboard-response","5","1396057","0.0-1.0-1.0-3.0","4yv","[""r""]","","null","<p>Place your fingers on the <b>z</b> and <b>m</b> keys. </b>The experiment will begin shortly.</p><p>3</p>","null","","","","","","","","","",""
"","html-keyboard-response","6","1397059","0.0-1.0-1.0-4.0","4yv","[""r""]","","null","<p>Place your fingers on the <b>z</b> and <b>m</b> keys. </b>The experiment will begin shortly.</p><p>2</p>","null","","","","","","","","","",""
"","html-keyboard-response","7","1398063","0.0-1.0-1.0-5.0","4yv","[""r""]","","null","<p>Place your fingers on the <b>z</b> and <b>m</b> keys. </b>The experiment will begin shortly.</p><p>1</p>","null","","","","","","","","","",""
"","html-keyboard-response","8","1398605","0.0-1.0-2.0-0.0","4yv","[""r""]","","null","<svg viewBox=""0 0 100 100"" > <path d=""M 50 52 L 50 48"" stroke=""black"" stroke-width="".5""/> <path d=""M 52 50 L 48 50"" stroke=""black"" stroke-width="".5""/>","null","","","","","","","","","",""
"","html-keyboard-response","9","1399610","0.0-1.0-2.0-1.0","4yv","[""r""]","","null","[""<svg viewBox=\""0 0 100 100\"" >"",""<text font-size=\""10%\"" text-anchor=\""middle\""  x=\""50\"" y=\""98\"">Press z for horizontal or m for vertical</text>"",""<path d=\""M 50 52 L 50 48\"" stroke=\""black\"" stroke-width=\"".5\""/> <path d=\""M 52 50 L 48 50\"" stroke=\""black\"" stroke-width=\"".5\""/>"",""<circle cx=\""50\"" cy=\""50\"" r=\""10\"" fill=\""none\"" transform=\""translate(26 15)\"" stroke=\""black\"" /><path d=\""M 50 57 L 50 43\"" stroke=\""black\"" transform=\""translate(26 15) rotate(45 50 50)\""/>"",""<circle cx=\""50\"" cy=\""50\"" r=\""10\"" fill=\""none\"" transform=\""translate(0 30)\"" stroke=\""yellow\"" /><path d=\""M 50 57 L 50 43\"" stroke=\""black\"" transform=\""translate(0 30) rotate(-45 50 50)\""/>"",""<circle cx=\""50\"" cy=\""50\"" r=\""10\"" fill=\""none\"" transform=\""translate(-26 15)\"" stroke=\""blue\"" /><path d=\""M 50 57 L 50 43\"" stroke=\""black\"" transform=\""translate(-26 15) rotate(-45 50 50)\""/>"",""<circle cx=\""50\"" cy=\""50\"" r=\""10\"" fill=\""none\"" transform=\""translate(-26 -15)\"" stroke=\""magenta\"" /><path d=\""M 50 57 L 50 43\"" stroke=\""black\"" transform=\""translate(-26 -15) rotate(45 50 50)\""/>"",""<circle cx=\""50\"" cy=\""50\"" r=\""10\"" fill=\""none\"" transform=\""translate(0 -30)\"" stroke=\""cyan\"" /><path d=\""M 50 57 L 50 43\"" stroke=\""black\"" transform=\""translate(0 -30) rotate(45 50 50)\""/>"",""<circle cx=\""50\"" cy=\""50\"" r=\""10\"" fill=\""none\"" transform=\""translate(26 -15)\"" stroke=\""lime\"" /><path d=\""M 50 57 L 50 43\"" stroke=\""black\"" transform=\""translate(26 -15) rotate(0 50 50)\""/>"",""</svg>""]","null","VDACtrain","g","5","v","null","low","","","",""
"","html-keyboard-response","10","1402113","0.0-1.0-2.0-2.0","4yv","[""r""]","","null","<p style=""font-size:300%;"">Miss.</p> <p style=""font-size:300%;"">Too slow.</p>","null","","","","","","","","","",""
"","html-keyboard-response","11","1403656","0.0-1.0-2.0-0.1","4yv","[""r""]","","null","<svg viewBox=""0 0 100 100"" > <path d=""M 50 52 L 50 48"" stroke=""black"" stroke-width="".5""/> <path d=""M 52 50 L 48 50"" stroke=""black"" stroke-width="".5""/>","null","","","","","","","","","",""
"","html-keyboard-response","12","1404205","0.0-1.0-2.0-1.1","4yv","[""r""]","","546.1999998092651","[""<svg viewBox=\""0 0 100 100\"" >"",""<text font-size=\""10%\"" text-anchor=\""middle\""  x=\""50\"" y=\""98\"">Press z for horizontal or m for vertical</text>"",""<path d=\""M 50 52 L 50 48\"" stroke=\""black\"" stroke-width=\"".5\""/> <path d=\""M 52 50 L 48 50\"" stroke=\""black\"" stroke-width=\"".5\""/>"",""<circle cx=\""50\"" cy=\""50\"" r=\""10\"" fill=\""none\"" transform=\""translate(26 15)\"" stroke=\""red\"" /><path d=\""M 50 57 L 50 43\"" stroke=\""black\"" transform=\""translate(26 15) rotate(90 50 50)\""/>"",""<circle cx=\""50\"" cy=\""50\"" r=\""10\"" fill=\""none\"" transform=\""translate(0 30)\"" stroke=\""magenta\"" /><path d=\""M 50 57 L 50 43\"" stroke=\""black\"" transform=\""translate(0 30) rotate(45 50 50)\""/>"",""<circle cx=\""50\"" cy=\""50\"" r=\""10\"" fill=\""none\"" transform=\""translate(-26 15)\"" stroke=\""cyan\"" /><path d=\""M 50 57 L 50 43\"" stroke=\""black\"" transform=\""translate(-26 15) rotate(-45 50 50)\""/>"",""<circle cx=\""50\"" cy=\""50\"" r=\""10\"" fill=\""none\"" transform=\""translate(-26 -15)\"" stroke=\""yellow\"" /><path d=\""M 50 57 L 50 43\"" stroke=\""black\"" transform=\""translate(-26 -15) rotate(-45 50 50)\""/>"",""<circle cx=\""50\"" cy=\""50\"" r=\""10\"" fill=\""none\"" transform=\""translate(0 -30)\"" stroke=\""blue\"" /><path d=\""M 50 57 L 50 43\"" stroke=\""black\"" transform=\""translate(0 -30) rotate(-45 50 50)\""/>"",""<circle cx=\""50\"" cy=\""50\"" r=\""10\"" fill=\""none\"" transform=\""translate(26 -15)\"" stroke=\""black\"" /><path d=\""M 50 57 L 50 43\"" stroke=\""black\"" transform=\""translate(26 -15) rotate(45 50 50)\""/>"",""</svg>""]","m","VDACtrain","r","0","h","false","high","","","",""
"","html-keyboard-response","13","1406708","0.0-1.0-2.0-2.1","4yv","[""r""]","","null","<p style=""font-size:300%;"">Miss.</p> <p style=""font-size:300%;"">Wrong response.</p>","null","","","","","","","","","",""
"","html-keyboard-response","14","1408251","0.0-1.0-2.0-0.2","4yv","[""r""]","","null","<svg viewBox=""0 0 100 100"" > <path d=""M 50 52 L 50 48"" stroke=""black"" stroke-width="".5""/> <path d=""M 52 50 L 48 50"" stroke=""black"" stroke-width="".5""/>","null","","","","","","","","","",""
"","html-keyboard-response","15","1409037","0.0-1.0-2.0-1.2","4yv","[""r""]","","781.3000001907349","[""<svg viewBox=\""0 0 100 100\"" >"",""<text font-size=\""10%\"" text-anchor=\""middle\""  x=\""50\"" y=\""98\"">Press z for horizontal or m for vertical</text>"",""<path d=\""M 50 52 L 50 48\"" stroke=\""black\"" stroke-width=\"".5\""/> <path d=\""M 52 50 L 48 50\"" stroke=\""black\"" stroke-width=\"".5\""/>"",""<circle cx=\""50\"" cy=\""50\"" r=\""10\"" fill=\""none\"" transform=\""translate(26 15)\"" stroke=\""lime\"" /><path d=\""M 50 57 L 50 43\"" stroke=\""black\"" transform=\""translate(26 15) rotate(0 50 50)\""/>"",""<circle cx=\""50\"" cy=\""50\"" r=\""10\"" fill=\""none\"" transform=\""translate(0 30)\"" stroke=\""yellow\"" /><path d=\""M 50 57 L 50 43\"" stroke=\""black\"" transform=\""translate(0 30) rotate(-45 50 50)\""/>"",""<circle cx=\""50\"" cy=\""50\"" r=\""10\"" fill=\""none\"" transform=\""translate(-26 15)\"" stroke=\""blue\"" /><path d=\""M 50 57 L 50 43\"" stroke=\""black\"" transform=\""translate(-26 15) rotate(-45 50 50)\""/>"",""<circle cx=\""50\"" cy=\""50\"" r=\""10\"" fill=\""none\"" transform=\""translate(-26 -15)\"" stroke=\""cyan\"" /><path d=\""M 50 57 L 50 43\"" stroke=\""black\"" transform=\""translate(-26 -15) rotate(45 50 50)\""/>"",""<circle cx=\""50\"" cy=\""50\"" r=\""10\"" fill=\""none\"" transform=\""translate(0 -30)\"" stroke=\""magenta\"" /><path d=\""M 50 57 L 50 43\"" stroke=\""black\"" transform=\""translate(0 -30) rotate(-45 50 50)\""/>"",""<circle cx=\""50\"" cy=\""50\"" r=\""10\"" fill=\""none\"" transform=\""translate(26 -15)\"" stroke=\""black\"" /><path d=\""M 50 57 L 50 43\"" stroke=\""black\"" transform=\""translate(26 -15) rotate(-45 50 50)\""/>"",""</svg>""]","z","VDACtrain","g","0","v","false","low","","","",""
"","html-keyboard-response","16","1411541","0.0-1.0-2.0-2.2","4yv","[""r""]","","null","<p style=""font-size:300%;"">Miss.</p> <p style=""font-size:300%;"">Wrong response.</p>","null","","","","","","","","","",""
"","html-keyboard-response","17","1413083","0.0-1.0-2.0-0.3","4yv","[""r""]","","null","<svg viewBox=""0 0 100 100"" > <path d=""M 50 52 L 50 48"" stroke=""black"" stroke-width="".5""/> <path d=""M 52 50 L 48 50"" stroke=""black"" stroke-width="".5""/>","null","","","","","","","","","",""
"","html-keyboard-response","18","1413956","0.0-1.0-2.0-1.3","4yv","[""r""]","","869.3000001907349","[""<svg viewBox=\""0 0 100 100\"" >"",""<text font-size=\""10%\"" text-anchor=\""middle\""  x=\""50\"" y=\""98\"">Press z for horizontal or m for vertical</text>"",""<path d=\""M 50 52 L 50 48\"" stroke=\""black\"" stroke-width=\"".5\""/> <path d=\""M 52 50 L 48 50\"" stroke=\""black\"" stroke-width=\"".5\""/>"",""<circle cx=\""50\"" cy=\""50\"" r=\""10\"" fill=\""none\"" transform=\""translate(26 15)\"" stroke=\""cyan\"" /><path d=\""M 50 57 L 50 43\"" stroke=\""black\"" transform=\""translate(26 15) rotate(45 50 50)\""/>"",""<circle cx=\""50\"" cy=\""50\"" r=\""10\"" fill=\""none\"" transform=\""translate(0 30)\"" stroke=\""black\"" /><path d=\""M 50 57 L 50 43\"" stroke=\""black\"" transform=\""translate(0 30) rotate(45 50 50)\""/>"",""<circle cx=\""50\"" cy=\""50\"" r=\""10\"" fill=\""none\"" transform=\""translate(-26 15)\"" stroke=\""blue\"" /><path d=\""M 50 57 L 50 43\"" stroke=\""black\"" transform=\""translate(-26 15) rotate(45 50 50)\""/>"",""<circle cx=\""50\"" cy=\""50\"" r=\""10\"" fill=\""none\"" transform=\""translate(-26 -15)\"" stroke=\""magenta\"" /><path d=\""M 50 57 L 50 43\"" stroke=\""black\"" transform=\""translate(-26 -15) rotate(45 50 50)\""/>"",""<circle cx=\""50\"" cy=\""50\"" r=\""10\"" fill=\""none\"" transform=\""translate(0 -30)\"" stroke=\""red\"" /><path d=\""M 50 57 L 50 43\"" stroke=\""black\"" transform=\""translate(0 -30) rotate(0 50 50)\""/>"",""<circle cx=\""50\"" cy=\""50\"" r=\""10\"" fill=\""none\"" transform=\""translate(26 -15)\"" stroke=\""yellow\"" /><path d=\""M 50 57 L 50 43\"" stroke=\""black\"" transform=\""translate(26 -15) rotate(45 50 50)\""/>"",""</svg>""]","m","VDACtrain","r","4","v","true","high","","","",""
"","html-keyboard-response","19","1416460","0.0-1.0-2.0-2.3","4yv","[""r""]","","null","<p style=""font-size:300%;"">Correct!</p>","null","","","","","","","","","",""
"","html-keyboard-response","20","1418003","0.0-1.0-2.0-0.4","4yv","[""r""]","","null","<svg viewBox=""0 0 100 100"" > <path d=""M 50 52 L 50 48"" stroke=""black"" stroke-width="".5""/> <path d=""M 52 50 L 48 50"" stroke=""black"" stroke-width="".5""/>","null","","","","","","","","","",""
"","html-keyboard-response","21","1418773","0.0-1.0-2.0-1.4","4yv","[""r""]","","765.5","[""<svg viewBox=\""0 0 100 100\"" >"",""<text font-size=\""10%\"" text-anchor=\""middle\""  x=\""50\"" y=\""98\"">Press z for horizontal or m for vertical</text>"",""<path d=\""M 50 52 L 50 48\"" stroke=\""black\"" stroke-width=\"".5\""/> <path d=\""M 52 50 L 48 50\"" stroke=\""black\"" stroke-width=\"".5\""/>"",""<circle cx=\""50\"" cy=\""50\"" r=\""10\"" fill=\""none\"" transform=\""translate(26 15)\"" stroke=\""cyan\"" /><path d=\""M 50 57 L 50 43\"" stroke=\""black\"" transform=\""translate(26 15) rotate(45 50 50)\""/>"",""<circle cx=\""50\"" cy=\""50\"" r=\""10\"" fill=\""none\"" transform=\""translate(0 30)\"" stroke=\""red\"" /><path d=\""M 50 57 L 50 43\"" stroke=\""black\"" transform=\""translate(0 30) rotate(90 50 50)\""/>"",""<circle cx=\""50\"" cy=\""50\"" r=\""10\"" fill=\""none\"" transform=\""translate(-26 15)\"" stroke=\""black\"" /><path d=\""M 50 57 L 50 43\"" stroke=\""black\"" transform=\""translate(-26 15) rotate(45 50 50)\""/>"",""<circle cx=\""50\"" cy=\""50\"" r=\""10\"" fill=\""none\"" transform=\""translate(-26 -15)\"" stroke=\""yellow\"" /><path d=\""M 50 57 L 50 43\"" stroke=\""black\"" transform=\""translate(-26 -15) rotate(45 50 50)\""/>"",""<circle cx=\""50\"" cy=\""50\"" r=\""10\"" fill=\""none\"" transform=\""translate(0 -30)\"" stroke=\""magenta\"" /><path d=\""M 50 57 L 50 43\"" stroke=\""black\"" transform=\""translate(0 -30) rotate(-45 50 50)\""/>"",""<circle cx=\""50\"" cy=\""50\"" r=\""10\"" fill=\""none\"" transform=\""translate(26 -15)\"" stroke=\""blue\"" /><path d=\""M 50 57 L 50 43\"" stroke=\""black\"" transform=\""translate(26 -15) rotate(-45 50 50)\""/>"",""</svg>""]","m","VDACtrain","r","1","h","false","high","","","",""
"","html-keyboard-response","22","1421275","0.0-1.0-2.0-2.4","4yv","[""r""]","","null","<p style=""font-size:300%;"">Miss.</p> <p style=""font-size:300%;"">Wrong response.</p>","null","","","","","","","","","",""
"","html-keyboard-response","23","1422819","0.0-1.0-2.0-0.5","4yv","[""r""]","","null","<svg viewBox=""0 0 100 100"" > <path d=""M 50 52 L 50 48"" stroke=""black"" stroke-width="".5""/> <path d=""M 52 50 L 48 50"" stroke=""black"" stroke-width="".5""/>","null","","","","","","","","","",""
"","html-keyboard-response","24","1423823","0.0-1.0-2.0-1.5","4yv","[""r""]","","null","[""<svg viewBox=\""0 0 100 100\"" >"",""<text font-size=\""10%\"" text-anchor=\""middle\""  x=\""50\"" y=\""98\"">Press z for horizontal or m for vertical</text>"",""<path d=\""M 50 52 L 50 48\"" stroke=\""black\"" stroke-width=\"".5\""/> <path d=\""M 52 50 L 48 50\"" stroke=\""black\"" stroke-width=\"".5\""/>"",""<circle cx=\""50\"" cy=\""50\"" r=\""10\"" fill=\""none\"" transform=\""translate(26 15)\"" stroke=\""black\"" /><path d=\""M 50 57 L 50 43\"" stroke=\""black\"" transform=\""translate(26 15) rotate(-45 50 50)\""/>"",""<circle cx=\""50\"" cy=\""50\"" r=\""10\"" fill=\""none\"" transform=\""translate(0 30)\"" stroke=\""magenta\"" /><path d=\""M 50 57 L 50 43\"" stroke=\""black\"" transform=\""translate(0 30) rotate(45 50 50)\""/>"",""<circle cx=\""50\"" cy=\""50\"" r=\""10\"" fill=\""none\"" transform=\""translate(-26 15)\"" stroke=\""blue\"" /><path d=\""M 50 57 L 50 43\"" stroke=\""black\"" transform=\""translate(-26 15) rotate(-45 50 50)\""/>"",""<circle cx=\""50\"" cy=\""50\"" r=\""10\"" fill=\""none\"" transform=\""translate(-26 -15)\"" stroke=\""lime\"" /><path d=\""M 50 57 L 50 43\"" stroke=\""black\"" transform=\""translate(-26 -15) rotate(90 50 50)\""/>"",""<circle cx=\""50\"" cy=\""50\"" r=\""10\"" fill=\""none\"" transform=\""translate(0 -30)\"" stroke=\""cyan\"" /><path d=\""M 50 57 L 50 43\"" stroke=\""black\"" transform=\""translate(0 -30) rotate(-45 50 50)\""/>"",""<circle cx=\""50\"" cy=\""50\"" r=\""10\"" fill=\""none\"" transform=\""translate(26 -15)\"" stroke=\""yellow\"" /><path d=\""M 50 57 L 50 43\"" stroke=\""black\"" transform=\""translate(26 -15) rotate(-45 50 50)\""/>"",""</svg>""]","null","VDACtrain","g","3","h","null","low","","","",""
"","html-keyboard-response","25","1426325","0.0-1.0-2.0-2.5","4yv","[""r""]","","null","<p style=""font-size:300%;"">Miss.</p> <p style=""font-size:300%;"">Too slow.</p>","null","","","","","","","","","",""
"","html-keyboard-response","26","1427867","0.0-1.0-2.0-0.6","4yv","[""r""]","","null","<svg viewBox=""0 0 100 100"" > <path d=""M 50 52 L 50 48"" stroke=""black"" stroke-width="".5""/> <path d=""M 52 50 L 48 50"" stroke=""black"" stroke-width="".5""/>","null","","","","","","","","","",""
"","html-keyboard-response","27","1428708","0.0-1.0-2.0-1.6","4yv","[""r""]","","837.9000000953674","[""<svg viewBox=\""0 0 100 100\"" >"",""<text font-size=\""10%\"" text-anchor=\""middle\""  x=\""50\"" y=\""98\"">Press z for horizontal or m for vertical</text>"",""<path d=\""M 50 52 L 50 48\"" stroke=\""black\"" stroke-width=\"".5\""/> <path d=\""M 52 50 L 48 50\"" stroke=\""black\"" stroke-width=\"".5\""/>"",""<circle cx=\""50\"" cy=\""50\"" r=\""10\"" fill=\""none\"" transform=\""translate(26 15)\"" stroke=\""blue\"" /><path d=\""M 50 57 L 50 43\"" stroke=\""black\"" transform=\""translate(26 15) rotate(-45 50 50)\""/>"",""<circle cx=\""50\"" cy=\""50\"" r=\""10\"" fill=\""none\"" transform=\""translate(0 30)\"" stroke=\""yellow\"" /><path d=\""M 50 57 L 50 43\"" stroke=\""black\"" transform=\""translate(0 30) rotate(45 50 50)\""/>"",""<circle cx=\""50\"" cy=\""50\"" r=\""10\"" fill=\""none\"" transform=\""translate(-26 15)\"" stroke=\""red\"" /><path d=\""M 50 57 L 50 43\"" stroke=\""black\"" transform=\""translate(-26 15) rotate(90 50 50)\""/>"",""<circle cx=\""50\"" cy=\""50\"" r=\""10\"" fill=\""none\"" transform=\""translate(-26 -15)\"" stroke=\""cyan\"" /><path d=\""M 50 57 L 50 43\"" stroke=\""black\"" transform=\""translate(-26 -15) rotate(45 50 50)\""/>"",""<circle cx=\""50\"" cy=\""50\"" r=\""10\"" fill=\""none\"" transform=\""translate(0 -30)\"" stroke=\""magenta\"" /><path d=\""M 50 57 L 50 43\"" stroke=\""black\"" transform=\""translate(0 -30) rotate(45 50 50)\""/>"",""<circle cx=\""50\"" cy=\""50\"" r=\""10\"" fill=\""none\"" transform=\""translate(26 -15)\"" stroke=\""black\"" /><path d=\""M 50 57 L 50 43\"" stroke=\""black\"" transform=\""translate(26 -15) rotate(45 50 50)\""/>"",""</svg>""]","z","VDACtrain","r","2","h","true","high","","","",""
"","html-keyboard-response","28","1431211","0.0-1.0-2.0-2.6","4yv","[""r""]","","null","<p style=""font-size:300%;"">Correct!</p>","null","","","","","","","","","",""
"","html-keyboard-response","29","1432752","0.0-1.0-2.0-0.7","4yv","[""r""]","","null","<svg viewBox=""0 0 100 100"" > <path d=""M 50 52 L 50 48"" stroke=""black"" stroke-width="".5""/> <path d=""M 52 50 L 48 50"" stroke=""black"" stroke-width="".5""/>","null","","","","","","","","","",""
"","html-keyboard-response","30","1433293","0.0-1.0-2.0-1.7","4yv","[""r""]","","536.9000000953674","[""<svg viewBox=\""0 0 100 100\"" >"",""<text font-size=\""10%\"" text-anchor=\""middle\""  x=\""50\"" y=\""98\"">Press z for horizontal or m for vertical</text>"",""<path d=\""M 50 52 L 50 48\"" stroke=\""black\"" stroke-width=\"".5\""/> <path d=\""M 52 50 L 48 50\"" stroke=\""black\"" stroke-width=\"".5\""/>"",""<circle cx=\""50\"" cy=\""50\"" r=\""10\"" fill=\""none\"" transform=\""translate(26 15)\"" stroke=\""cyan\"" /><path d=\""M 50 57 L 50 43\"" stroke=\""black\"" transform=\""translate(26 15) rotate(45 50 50)\""/>"",""<circle cx=\""50\"" cy=\""50\"" r=\""10\"" fill=\""none\"" transform=\""translate(0 30)\"" stroke=\""blue\"" /><path d=\""M 50 57 L 50 43\"" stroke=\""black\"" transform=\""translate(0 30) rotate(-45 50 50)\""/>"",""<circle cx=\""50\"" cy=\""50\"" r=\""10\"" fill=\""none\"" transform=\""translate(-26 15)\"" stroke=\""yellow\"" /><path d=\""M 50 57 L 50 43\"" stroke=\""black\"" transform=\""translate(-26 15) rotate(45 50 50)\""/>"",""<circle cx=\""50\"" cy=\""50\"" r=\""10\"" fill=\""none\"" transform=\""translate(-26 -15)\"" stroke=\""red\"" /><path d=\""M 50 57 L 50 43\"" stroke=\""black\"" transform=\""translate(-26 -15) rotate(0 50 50)\""/>"",""<circle cx=\""50\"" cy=\""50\"" r=\""10\"" fill=\""none\"" transform=\""translate(0 -30)\"" stroke=\""black\"" /><path d=\""M 50 57 L 50 43\"" stroke=\""black\"" transform=\""translate(0 -30) rotate(45 50 50)\""/>"",""<circle cx=\""50\"" cy=\""50\"" r=\""10\"" fill=\""none\"" transform=\""translate(26 -15)\"" stroke=\""magenta\"" /><path d=\""M 50 57 L 50 43\"" stroke=\""black\"" transform=\""translate(26 -15) rotate(45 50 50)\""/>"",""</svg>""]","m","VDACtrain","r","3","v","true","high","","","",""
"","html-keyboard-response","31","1435794","0.0-1.0-2.0-2.7","4yv","[""r""]","","null","<p style=""font-size:300%;"">Correct!</p>","null","","","","","","","","","",""
"","html-keyboard-response","32","1437336","0.0-1.0-2.0-0.8","4yv","[""r""]","","null","<svg viewBox=""0 0 100 100"" > <path d=""M 50 52 L 50 48"" stroke=""black"" stroke-width="".5""/> <path d=""M 52 50 L 48 50"" stroke=""black"" stroke-width="".5""/>","null","","","","","","","","","",""
"","html-keyboard-response","33","1437916","0.0-1.0-2.0-1.8","4yv","[""r""]","","577","[""<svg viewBox=\""0 0 100 100\"" >"",""<text font-size=\""10%\"" text-anchor=\""middle\""  x=\""50\"" y=\""98\"">Press z for horizontal or m for vertical</text>"",""<path d=\""M 50 52 L 50 48\"" stroke=\""black\"" stroke-width=\"".5\""/> <path d=\""M 52 50 L 48 50\"" stroke=\""black\"" stroke-width=\"".5\""/>"",""<circle cx=\""50\"" cy=\""50\"" r=\""10\"" fill=\""none\"" transform=\""translate(26 15)\"" stroke=\""blue\"" /><path d=\""M 50 57 L 50 43\"" stroke=\""black\"" transform=\""translate(26 15) rotate(45 50 50)\""/>"",""<circle cx=\""50\"" cy=\""50\"" r=\""10\"" fill=\""none\"" transform=\""translate(0 30)\"" stroke=\""yellow\"" /><path d=\""M 50 57 L 50 43\"" stroke=\""black\"" transform=\""translate(0 30) rotate(45 50 50)\""/>"",""<circle cx=\""50\"" cy=\""50\"" r=\""10\"" fill=\""none\"" transform=\""translate(-26 15)\"" stroke=\""lime\"" /><path d=\""M 50 57 L 50 43\"" stroke=\""black\"" transform=\""translate(-26 15) rotate(0 50 50)\""/>"",""<circle cx=\""50\"" cy=\""50\"" r=\""10\"" fill=\""none\"" transform=\""translate(-26 -15)\"" stroke=\""magenta\"" /><path d=\""M 50 57 L 50 43\"" stroke=\""black\"" transform=\""translate(-26 -15) rotate(45 50 50)\""/>"",""<circle cx=\""50\"" cy=\""50\"" r=\""10\"" fill=\""none\"" transform=\""translate(0 -30)\"" stroke=\""cyan\"" /><path d=\""M 50 57 L 50 43\"" stroke=\""black\"" transform=\""translate(0 -30) rotate(-45 50 50)\""/>"",""<circle cx=\""50\"" cy=\""50\"" r=\""10\"" fill=\""none\"" transform=\""translate(26 -15)\"" stroke=\""black\"" /><path d=\""M 50 57 L 50 43\"" stroke=\""black\"" transform=\""translate(26 -15) rotate(-45 50 50)\""/>"",""</svg>""]","m","VDACtrain","g","2","v","true","low","","","",""
"","html-keyboard-response","34","1440418","0.0-1.0-2.0-2.8","4yv","[""r""]","","null","<p style=""font-size:300%;"">Correct!</p>","null","","","","","","","","","",""
"","html-keyboard-response","35","1441961","0.0-1.0-2.0-0.9","4yv","[""r""]","","null","<svg viewBox=""0 0 100 100"" > <path d=""M 50 52 L 50 48"" stroke=""black"" stroke-width="".5""/> <path d=""M 52 50 L 48 50"" stroke=""black"" stroke-width="".5""/>","null","","","","","","","","","",""
"","html-keyboard-response","36","1442580","0.0-1.0-2.0-1.9","4yv","[""r""]","","616.4000000953674","[""<svg viewBox=\""0 0 100 100\"" >"",""<text font-size=\""10%\"" text-anchor=\""middle\""  x=\""50\"" y=\""98\"">Press z for horizontal or m for vertical</text>"",""<path d=\""M 50 52 L 50 48\"" stroke=\""black\"" stroke-width=\"".5\""/> <path d=\""M 52 50 L 48 50\"" stroke=\""black\"" stroke-width=\"".5\""/>"",""<circle cx=\""50\"" cy=\""50\"" r=\""10\"" fill=\""none\"" transform=\""translate(26 15)\"" stroke=\""blue\"" /><path d=\""M 50 57 L 50 43\"" stroke=\""black\"" transform=\""translate(26 15) rotate(-45 50 50)\""/>"",""<circle cx=\""50\"" cy=\""50\"" r=\""10\"" fill=\""none\"" transform=\""translate(0 30)\"" stroke=\""magenta\"" /><path d=\""M 50 57 L 50 43\"" stroke=\""black\"" transform=\""translate(0 30) rotate(45 50 50)\""/>"",""<circle cx=\""50\"" cy=\""50\"" r=\""10\"" fill=\""none\"" transform=\""translate(-26 15)\"" stroke=\""cyan\"" /><path d=\""M 50 57 L 50 43\"" stroke=\""black\"" transform=\""translate(-26 15) rotate(-45 50 50)\""/>"",""<circle cx=\""50\"" cy=\""50\"" r=\""10\"" fill=\""none\"" transform=\""translate(-26 -15)\"" stroke=\""black\"" /><path d=\""M 50 57 L 50 43\"" stroke=\""black\"" transform=\""translate(-26 -15) rotate(-45 50 50)\""/>"",""<circle cx=\""50\"" cy=\""50\"" r=\""10\"" fill=\""none\"" transform=\""translate(0 -30)\"" stroke=\""yellow\"" /><path d=\""M 50 57 L 50 43\"" stroke=\""black\"" transform=\""translate(0 -30) rotate(-45 50 50)\""/>"",""<circle cx=\""50\"" cy=\""50\"" r=\""10\"" fill=\""none\"" transform=\""translate(26 -15)\"" stroke=\""lime\"" /><path d=\""M 50 57 L 50 43\"" stroke=\""black\"" transform=\""translate(26 -15) rotate(90 50 50)\""/>"",""</svg>""]","m","VDACtrain","g","5","h","false","low","","","",""
"","html-keyboard-response","37","1445082","0.0-1.0-2.0-2.9","4yv","[""r""]","","null","<p style=""font-size:300%;"">Miss.</p> <p style=""font-size:300%;"">Wrong response.</p>","null","","","","","","","","","",""
"","html-keyboard-response","38","1452932","0.0-1.0-3.0","4yv","[""r""]","","6849.200000286102","<p>You have now finished the training exercise. If you would like to repeat the instructions and training exercise, press <b>R</b>.<p>If you are ready to continue to the task, press <b>C</b>.</p>","c","","","","","","","","","",""
"","html-keyboard-response","39","1455936","0.0-2.0-0.0","4yv","[""r""]","","null","<p>Place your fingers on the <b>z</b> and <b>m</b> keys. The experiment will begin shortly.</p> <p></p>","null","","","","","","","","","",""
"","html-keyboard-response","40","1456938","0.0-2.0-1.0","4yv","[""r""]","","null","<p>Place your fingers on the <b>z</b> and <b>m</b> keys. </b>The experiment will begin shortly.</p><p>5</p>","null","","","","","","","","","",""
"","html-keyboard-response","41","1457939","0.0-2.0-2.0","4yv","[""r""]","","null","<p>Place your fingers on the <b>z</b> and <b>m</b> keys. </b>The experiment will begin shortly.</p><p>4</p>","null","","","","","","","","","",""
"","html-keyboard-response","42","1458941","0.0-2.0-3.0","4yv","[""r""]","","null","<p>Place your fingers on the <b>z</b> and <b>m</b> keys. </b>The experiment will begin shortly.</p><p>3</p>","null","","","","","","","","","",""
"","html-keyboard-response","43","1459943","0.0-2.0-4.0","4yv","[""r""]","","null","<p>Place your fingers on the <b>z</b> and <b>m</b> keys. </b>The experiment will begin shortly.</p><p>2</p>","null","","","","","","","","","",""
"","html-keyboard-response","44","1460944","0.0-2.0-5.0","4yv","[""r""]","","null","<p>Place your fingers on the <b>z</b> and <b>m</b> keys. </b>The experiment will begin shortly.</p><p>1</p>","null","","","","","","","","","",""
"","html-keyboard-response","45","1461486","0.0-3.0-0.0","4yv","[""r""]","","null","<svg viewBox=""0 0 100 100"" > <path d=""M 50 52 L 50 48"" stroke=""black"" stroke-width="".5""/> <path d=""M 52 50 L 48 50"" stroke=""black"" stroke-width="".5""/>","null","","","","","","","","","",""
"","html-keyboard-response","46","1462076","0.0-3.0-1.0","4yv","[""r""]","","586","[""<svg viewBox=\""0 0 100 100\"" >"",""<path d=\""M 50 52 L 50 48\"" stroke=\""black\"" stroke-width=\"".5\""/>"","" <path d=\""M 52 50 L 48 50\"" stroke=\""black\"" stroke-width=\"".5\""/>"",""<circle cx=\""50\"" cy=\""50\"" r=\""10\"" fill=\""none\"" transform=\""translate(26 15)\"" stroke=\""blue\"" />"",""<path d=\""M 50 57 L 50 43\"" stroke=\""black\"" transform=\""translate(26 15) rotate(-45 50 50)\""/>"",""<circle cx=\""50\"" cy=\""50\"" r=\""10\"" fill=\""none\"" transform=\""translate(0 30)\"" stroke=\""black\"" />"",""<path d=\""M 50 57 L 50 43\"" stroke=\""black\"" transform=\""translate(0 30) rotate(-45 50 50)\""/>"",""<circle cx=\""50\"" cy=\""50\"" r=\""10\"" fill=\""none\"" transform=\""translate(-26 15)\"" stroke=\""red\"" />"",""<path d=\""M 50 57 L 50 43\"" stroke=\""black\"" transform=\""translate(-26 15) rotate(0 50 50)\""/>"",""<circle cx=\""50\"" cy=\""50\"" r=\""10\"" fill=\""none\"" transform=\""translate(-26 -15)\"" stroke=\""magenta\"" />"",""<path d=\""M 50 57 L 50 43\"" stroke=\""black\"" transform=\""translate(-26 -15) rotate(-45 50 50)\""/>"",""<circle cx=\""50\"" cy=\""50\"" r=\""10\"" fill=\""none\"" transform=\""translate(0 -30)\"" stroke=\""yellow\"" />"",""<path d=\""M 50 57 L 50 43\"" stroke=\""black\"" transform=\""translate(0 -30) rotate(-45 50 50)\""/>"",""<circle cx=\""50\"" cy=\""50\"" r=\""10\"" fill=\""none\"" transform=\""translate(26 -15)\"" stroke=\""cyan\"" />"",""<path d=\""M 50 57 L 50 43\"" stroke=\""black\"" transform=\""translate(26 -15) rotate(-45 50 50)\""/>"",""</svg>""]","m","VDACtest","r","2","v","true","high","","","",""
"","html-keyboard-response","47","1464579","0.0-3.0-2.0","4yv","[""r""]","","null","<p style=""font-size:300%;""> + 10 points.</p><p style=""font-size:300%"">Total: 10 points.</p>","null","","","","","","","10","","",""
"","html-keyboard-response","48","1466122","0.0-3.0-0.1","4yv","[""r""]","","null","<svg viewBox=""0 0 100 100"" > <path d=""M 50 52 L 50 48"" stroke=""black"" stroke-width="".5""/> <path d=""M 52 50 L 48 50"" stroke=""black"" stroke-width="".5""/>","null","","","","","","","","","",""
"","html-keyboard-response","49","1466932","0.0-3.0-1.1","4yv","[""r""]","","807.2000002861023","[""<svg viewBox=\""0 0 100 100\"" >"",""<path d=\""M 50 52 L 50 48\"" stroke=\""black\"" stroke-width=\"".5\""/>"","" <path d=\""M 52 50 L 48 50\"" stroke=\""black\"" stroke-width=\"".5\""/>"",""<circle cx=\""50\"" cy=\""50\"" r=\""10\"" fill=\""none\"" transform=\""translate(26 15)\"" stroke=\""cyan\"" />"",""<path d=\""M 50 57 L 50 43\"" stroke=\""black\"" transform=\""translate(26 15) rotate(-45 50 50)\""/>"",""<circle cx=\""50\"" cy=\""50\"" r=\""10\"" fill=\""none\"" transform=\""translate(0 30)\"" stroke=\""magenta\"" />"",""<path d=\""M 50 57 L 50 43\"" stroke=\""black\"" transform=\""translate(0 30) rotate(45 50 50)\""/>"",""<circle cx=\""50\"" cy=\""50\"" r=\""10\"" fill=\""none\"" transform=\""translate(-26 15)\"" stroke=\""blue\"" />"",""<path d=\""M 50 57 L 50 43\"" stroke=\""black\"" transform=\""translate(-26 15) rotate(-45 50 50)\""/>"",""<circle cx=\""50\"" cy=\""50\"" r=\""10\"" fill=\""none\"" transform=\""translate(-26 -15)\"" stroke=\""yellow\"" />"",""<path d=\""M 50 57 L 50 43\"" stroke=\""black\"" transform=\""translate(-26 -15) rotate(-45 50 50)\""/>"",""<circle cx=\""50\"" cy=\""50\"" r=\""10\"" fill=\""none\"" transform=\""translate(0 -30)\"" stroke=\""red\"" />"",""<path d=\""M 50 57 L 50 43\"" stroke=\""black\"" transform=\""translate(0 -30) rotate(0 50 50)\""/>"",""<circle cx=\""50\"" cy=\""50\"" r=\""10\"" fill=\""none\"" transform=\""translate(26 -15)\"" stroke=\""black\"" />"",""<path d=\""M 50 57 L 50 43\"" stroke=\""black\"" transform=\""translate(26 -15) rotate(-45 50 50)\""/>"",""</svg>""]","m","VDACtest","r","4","v","true","high","","","",""
"","html-keyboard-response","50","1469435","0.0-3.0-2.1","4yv","[""r""]","","null","<p style=""font-size:300%;""> + 10 points.</p><p style=""font-size:300%"">Total: 20 points.</p>","null","","","","","","","20","","",""
"","html-keyboard-response","51","1470977","0.0-3.0-0.2","4yv","[""r""]","","null","<svg viewBox=""0 0 100 100"" > <path d=""M 50 52 L 50 48"" stroke=""black"" stroke-width="".5""/> <path d=""M 52 50 L 48 50"" stroke=""black"" stroke-width="".5""/>","null","","","","","","","","","",""
"","html-keyboard-response","52","1471516","0.0-3.0-1.2","4yv","[""r""]","","535.6999998092651","[""<svg viewBox=\""0 0 100 100\"" >"",""<path d=\""M 50 52 L 50 48\"" stroke=\""black\"" stroke-width=\"".5\""/>"","" <path d=\""M 52 50 L 48 50\"" stroke=\""black\"" stroke-width=\"".5\""/>"",""<circle cx=\""50\"" cy=\""50\"" r=\""10\"" fill=\""none\"" transform=\""translate(26 15)\"" stroke=\""black\"" />"",""<path d=\""M 50 57 L 50 43\"" stroke=\""black\"" transform=\""translate(26 15) rotate(-45 50 50)\""/>"",""<circle cx=\""50\"" cy=\""50\"" r=\""10\"" fill=\""none\"" transform=\""translate(0 30)\"" stroke=\""yellow\"" />"",""<path d=\""M 50 57 L 50 43\"" stroke=\""black\"" transform=\""translate(0 30) rotate(45 50 50)\""/>"",""<circle cx=\""50\"" cy=\""50\"" r=\""10\"" fill=\""none\"" transform=\""translate(-26 15)\"" stroke=\""cyan\"" />"",""<path d=\""M 50 57 L 50 43\"" stroke=\""black\"" transform=\""translate(-26 15) rotate(45 50 50)\""/>"",""<circle cx=\""50\"" cy=\""50\"" r=\""10\"" fill=\""none\"" transform=\""translate(-26 -15)\"" stroke=\""blue\"" />"",""<path d=\""M 50 57 L 50 43\"" stroke=\""black\"" transform=\""translate(-26 -15) rotate(45 50 50)\""/>"",""<circle cx=\""50\"" cy=\""50\"" r=\""10\"" fill=\""none\"" transform=\""translate(0 -30)\"" stroke=\""lime\"" />"",""<path d=\""M 50 57 L 50 43\"" stroke=\""black\"" transform=\""translate(0 -30) rotate(90 50 50)\""/>"",""<circle cx=\""50\"" cy=\""50\"" r=\""10\"" fill=\""none\"" transform=\""translate(26 -15)\"" stroke=\""magenta\"" />"",""<path d=\""M 50 57 L 50 43\"" stroke=\""black\"" transform=\""translate(26 -15) rotate(45 50 50)\""/>"",""</svg>""]","z","VDACtest","g","4","h","true","low","","","",""
"","html-keyboard-response","53","1474020","0.0-3.0-2.2","4yv","[""r""]","","null","<p style=""font-size:300%;""> + 10 points.</p><p style=""font-size:300%"">Total: 30 points.</p>","null","","","","","","","30","","",""
"","html-keyboard-response","54","1475561","0.0-3.0-0.3","4yv","[""r""]","","null","<svg viewBox=""0 0 100 100"" > <path d=""M 50 52 L 50 48"" stroke=""black"" stroke-width="".5""/> <path d=""M 52 50 L 48 50"" stroke=""black"" stroke-width="".5""/>","null","","","","","","","","","",""
"","html-keyboard-response","55","1476092","0.0-3.0-1.3","4yv","[""r""]","","527.0999999046326","[""<svg viewBox=\""0 0 100 100\"" >"",""<path d=\""M 50 52 L 50 48\"" stroke=\""black\"" stroke-width=\"".5\""/>"","" <path d=\""M 52 50 L 48 50\"" stroke=\""black\"" stroke-width=\"".5\""/>"",""<circle cx=\""50\"" cy=\""50\"" r=\""10\"" fill=\""none\"" transform=\""translate(26 15)\"" stroke=\""lime\"" />"",""<path d=\""M 50 57 L 50 43\"" stroke=\""black\"" transform=\""translate(26 15) rotate(0 50 50)\""/>"",""<circle cx=\""50\"" cy=\""50\"" r=\""10\"" fill=\""none\"" transform=\""translate(0 30)\"" stroke=\""blue\"" />"",""<path d=\""M 50 57 L 50 43\"" stroke=\""black\"" transform=\""translate(0 30) rotate(45 50 50)\""/>"",""<circle cx=\""50\"" cy=\""50\"" r=\""10\"" fill=\""none\"" transform=\""translate(-26 15)\"" stroke=\""cyan\"" />"",""<path d=\""M 50 57 L 50 43\"" stroke=\""black\"" transform=\""translate(-26 15) rotate(45 50 50)\""/>"",""<circle cx=\""50\"" cy=\""50\"" r=\""10\"" fill=\""none\"" transform=\""translate(-26 -15)\"" stroke=\""yellow\"" />"",""<path d=\""M 50 57 L 50 43\"" stroke=\""black\"" transform=\""translate(-26 -15) rotate(45 50 50)\""/>"",""<circle cx=\""50\"" cy=\""50\"" r=\""10\"" fill=\""none\"" transform=\""translate(0 -30)\"" stroke=\""magenta\"" />"",""<path d=\""M 50 57 L 50 43\"" stroke=\""black\"" transform=\""translate(0 -30) rotate(-45 50 50)\""/>"",""<circle cx=\""50\"" cy=\""50\"" r=\""10\"" fill=\""none\"" transform=\""translate(26 -15)\"" stroke=\""black\"" />"",""<path d=\""M 50 57 L 50 43\"" stroke=\""black\"" transform=\""translate(26 -15) rotate(-45 50 50)\""/>"",""</svg>""]","m","VDACtest","g","0","v","true","low","","","",""
"","html-keyboard-response","56","1478594","0.0-3.0-2.3","4yv","[""r""]","","null","<p style=""font-size:300%;""> + 10 points.</p><p style=""font-size:300%"">Total: 40 points.</p>","null","","","","","","","40","","",""
"","html-keyboard-response","57","1480137","0.0-3.0-0.4","4yv","[""r""]","","null","<svg viewBox=""0 0 100 100"" > <path d=""M 50 52 L 50 48"" stroke=""black"" stroke-width="".5""/> <path d=""M 52 50 L 48 50"" stroke=""black"" stroke-width="".5""/>","null","","","","","","","","","",""
"","html-keyboard-response","58","1480805","0.0-3.0-1.4","4yv","[""r""]","","664.9000000953674","[""<svg viewBox=\""0 0 100 100\"" >"",""<path d=\""M 50 52 L 50 48\"" stroke=\""black\"" stroke-width=\"".5\""/>"","" <path d=\""M 52 50 L 48 50\"" stroke=\""black\"" stroke-width=\"".5\""/>"",""<circle cx=\""50\"" cy=\""50\"" r=\""10\"" fill=\""none\"" transform=\""translate(26 15)\"" stroke=\""black\"" />"",""<path d=\""M 50 57 L 50 43\"" stroke=\""black\"" transform=\""translate(26 15) rotate(45 50 50)\""/>"",""<circle cx=\""50\"" cy=\""50\"" r=\""10\"" fill=\""none\"" transform=\""translate(0 30)\"" stroke=\""cyan\"" />"",""<path d=\""M 50 57 L 50 43\"" stroke=\""black\"" transform=\""translate(0 30) rotate(-45 50 50)\""/>"",""<circle cx=\""50\"" cy=\""50\"" r=\""10\"" fill=\""none\"" transform=\""translate(-26 15)\"" stroke=\""blue\"" />"",""<path d=\""M 50 57 L 50 43\"" stroke=\""black\"" transform=\""translate(-26 15) rotate(-45 50 50)\""/>"",""<circle cx=\""50\"" cy=\""50\"" r=\""10\"" fill=\""none\"" transform=\""translate(-26 -15)\"" stroke=\""lime\"" />"",""<path d=\""M 50 57 L 50 43\"" stroke=\""black\"" transform=\""translate(-26 -15) rotate(90 50 50)\""/>"",""<circle cx=\""50\"" cy=\""50\"" r=\""10\"" fill=\""none\"" transform=\""translate(0 -30)\"" stroke=\""magenta\"" />"",""<path d=\""M 50 57 L 50 43\"" stroke=\""black\"" transform=\""translate(0 -30) rotate(-45 50 50)\""/>"",""<circle cx=\""50\"" cy=\""50\"" r=\""10\"" fill=\""none\"" transform=\""translate(26 -15)\"" stroke=\""yellow\"" />"",""<path d=\""M 50 57 L 50 43\"" stroke=\""black\"" transform=\""translate(26 -15) rotate(-45 50 50)\""/>"",""</svg>""]","z","VDACtest","g","3","h","true","low","","","",""
"","html-keyboard-response","59","1483307","0.0-3.0-2.4","4yv","[""r""]","","null","<p style=""font-size:300%;""> + 2 points.</p><p style=""font-size:300%"">Total: 42 points.</p>","null","","","","","","","42","","",""
"","html-keyboard-response","60","1484850","0.0-3.0-0.5","4yv","[""r""]","","null","<svg viewBox=""0 0 100 100"" > <path d=""M 50 52 L 50 48"" stroke=""black"" stroke-width="".5""/> <path d=""M 52 50 L 48 50"" stroke=""black"" stroke-width="".5""/>","null","","","","","","","","","",""
"","html-keyboard-response","61","1485756","0.0-3.0-1.5","4yv","[""r""]","","902.9000000953674","[""<svg viewBox=\""0 0 100 100\"" >"",""<path d=\""M 50 52 L 50 48\"" stroke=\""black\"" stroke-width=\"".5\""/>"","" <path d=\""M 52 50 L 48 50\"" stroke=\""black\"" stroke-width=\"".5\""/>"",""<circle cx=\""50\"" cy=\""50\"" r=\""10\"" fill=\""none\"" transform=\""translate(26 15)\"" stroke=\""cyan\"" />"",""<path d=\""M 50 57 L 50 43\"" stroke=\""black\"" transform=\""translate(26 15) rotate(45 50 50)\""/>"",""<circle cx=\""50\"" cy=\""50\"" r=\""10\"" fill=\""none\"" transform=\""translate(0 30)\"" stroke=\""yellow\"" />"",""<path d=\""M 50 57 L 50 43\"" stroke=\""black\"" transform=\""translate(0 30) rotate(-45 50 50)\""/>"",""<circle cx=\""50\"" cy=\""50\"" r=\""10\"" fill=\""none\"" transform=\""translate(-26 15)\"" stroke=\""black\"" />"",""<path d=\""M 50 57 L 50 43\"" stroke=\""black\"" transform=\""translate(-26 15) rotate(-45 50 50)\""/>"",""<circle cx=\""50\"" cy=\""50\"" r=\""10\"" fill=\""none\"" transform=\""translate(-26 -15)\"" stroke=\""blue\"" />"",""<path d=\""M 50 57 L 50 43\"" stroke=\""black\"" transform=\""translate(-26 -15) rotate(45 50 50)\""/>"",""<circle cx=\""50\"" cy=\""50\"" r=\""10\"" fill=\""none\"" transform=\""translate(0 -30)\"" stroke=\""magenta\"" />"",""<path d=\""M 50 57 L 50 43\"" stroke=\""black\"" transform=\""translate(0 -30) rotate(45 50 50)\""/>"",""<circle cx=\""50\"" cy=\""50\"" r=\""10\"" fill=\""none\"" transform=\""translate(26 -15)\"" stroke=\""red\"" />"",""<path d=\""M 50 57 L 50 43\"" stroke=\""black\"" transform=\""translate(26 -15) rotate(0 50 50)\""/>"",""</svg>""]","m","VDACtest","r","5","v","true","high","","","",""
"","html-keyboard-response","62","1488259","0.0-3.0-2.5","4yv","[""r""]","","null","<p style=""font-size:300%;""> + 10 points.</p><p style=""font-size:300%"">Total: 52 points.</p>","null","","","","","","","52","","",""
"","html-keyboard-response","63","1489802","0.0-3.0-0.6","4yv","[""r""]","","null","<svg viewBox=""0 0 100 100"" > <path d=""M 50 52 L 50 48"" stroke=""black"" stroke-width="".5""/> <path d=""M 52 50 L 48 50"" stroke=""black"" stroke-width="".5""/>","null","","","","","","","","","",""
"","html-keyboard-response","64","1490492","0.0-3.0-1.6","4yv","[""r""]","","686.3999996185303","[""<svg viewBox=\""0 0 100 100\"" >"",""<path d=\""M 50 52 L 50 48\"" stroke=\""black\"" stroke-width=\"".5\""/>"","" <path d=\""M 52 50 L 48 50\"" stroke=\""black\"" stroke-width=\"".5\""/>"",""<circle cx=\""50\"" cy=\""50\"" r=\""10\"" fill=\""none\"" transform=\""translate(26 15)\"" stroke=\""black\"" />"",""<path d=\""M 50 57 L 50 43\"" stroke=\""black\"" transform=\""translate(26 15) rotate(-45 50 50)\""/>"",""<circle cx=\""50\"" cy=\""50\"" r=\""10\"" fill=\""none\"" transform=\""translate(0 30)\"" stroke=\""blue\"" />"",""<path d=\""M 50 57 L 50 43\"" stroke=\""black\"" transform=\""translate(0 30) rotate(45 50 50)\""/>"",""<circle cx=\""50\"" cy=\""50\"" r=\""10\"" fill=\""none\"" transform=\""translate(-26 15)\"" stroke=\""magenta\"" />"",""<path d=\""M 50 57 L 50 43\"" stroke=\""black\"" transform=\""translate(-26 15) rotate(-45 50 50)\""/>"",""<circle cx=\""50\"" cy=\""50\"" r=\""10\"" fill=\""none\"" transform=\""translate(-26 -15)\"" stroke=\""red\"" />"",""<path d=\""M 50 57 L 50 43\"" stroke=\""black\"" transform=\""translate(-26 -15) rotate(90 50 50)\""/>"",""<circle cx=\""50\"" cy=\""50\"" r=\""10\"" fill=\""none\"" transform=\""translate(0 -30)\"" stroke=\""yellow\"" />"",""<path d=\""M 50 57 L 50 43\"" stroke=\""black\"" transform=\""translate(0 -30) rotate(45 50 50)\""/>"",""<circle cx=\""50\"" cy=\""50\"" r=\""10\"" fill=\""none\"" transform=\""translate(26 -15)\"" stroke=\""cyan\"" />"",""<path d=\""M 50 57 L 50 43\"" stroke=\""black\"" transform=\""translate(26 -15) rotate(-45 50 50)\""/>"",""</svg>""]","z","VDACtest","r","3","h","true","high","","","",""
"","html-keyboard-response","65","1492995","0.0-3.0-2.6","4yv","[""r""]","","null","<p style=""font-size:300%;""> + 10 points.</p><p style=""font-size:300%"">Total: 62 points.</p>","null","","","","","","","62","","",""
"","html-keyboard-response","66","1494538","0.0-3.0-0.7","4yv","[""r""]","","null","<svg viewBox=""0 0 100 100"" > <path d=""M 50 52 L 50 48"" stroke=""black"" stroke-width="".5""/> <path d=""M 52 50 L 48 50"" stroke=""black"" stroke-width="".5""/>","null","","","","","","","","","",""
"","html-keyboard-response","67","1495036","0.0-3.0-1.7","4yv","[""r""]","","495.1000003814697","[""<svg viewBox=\""0 0 100 100\"" >"",""<path d=\""M 50 52 L 50 48\"" stroke=\""black\"" stroke-width=\"".5\""/>"","" <path d=\""M 52 50 L 48 50\"" stroke=\""black\"" stroke-width=\"".5\""/>"",""<circle cx=\""50\"" cy=\""50\"" r=\""10\"" fill=\""none\"" transform=\""translate(26 15)\"" stroke=\""lime\"" />"",""<path d=\""M 50 57 L 50 43\"" stroke=\""black\"" transform=\""translate(26 15) rotate(90 50 50)\""/>"",""<circle cx=\""50\"" cy=\""50\"" r=\""10\"" fill=\""none\"" transform=\""translate(0 30)\"" stroke=\""black\"" />"",""<path d=\""M 50 57 L 50 43\"" stroke=\""black\"" transform=\""translate(0 30) rotate(45 50 50)\""/>"",""<circle cx=\""50\"" cy=\""50\"" r=\""10\"" fill=\""none\"" transform=\""translate(-26 15)\"" stroke=\""blue\"" />"",""<path d=\""M 50 57 L 50 43\"" stroke=\""black\"" transform=\""translate(-26 15) rotate(45 50 50)\""/>"",""<circle cx=\""50\"" cy=\""50\"" r=\""10\"" fill=\""none\"" transform=\""translate(-26 -15)\"" stroke=\""cyan\"" />"",""<path d=\""M 50 57 L 50 43\"" stroke=\""black\"" transform=\""translate(-26 -15) rotate(-45 50 50)\""/>"",""<circle cx=\""50\"" cy=\""50\"" r=\""10\"" fill=\""none\"" transform=\""translate(0 -30)\"" stroke=\""magenta\"" />"",""<path d=\""M 50 57 L 50 43\"" stroke=\""black\"" transform=\""translate(0 -30) rotate(-45 50 50)\""/>"",""<circle cx=\""50\"" cy=\""50\"" r=\""10\"" fill=\""none\"" transform=\""translate(26 -15)\"" stroke=\""yellow\"" />"",""<path d=\""M 50 57 L 50 43\"" stroke=\""black\"" transform=\""translate(26 -15) rotate(45 50 50)\""/>"",""</svg>""]","m","VDACtest","g","0","h","false","low","","","",""
"","html-keyboard-response","68","1497540","0.0-3.0-2.7","4yv","[""r""]","","null","<p style=""font-size:300%;"">Miss.</p><p style=""font-size:300%"">Total: 62 points.</p>","null","","","","","","","62","","",""
"","html-keyboard-response","69","1499084","0.0-3.0-0.8","4yv","[""r""]","","null","<svg viewBox=""0 0 100 100"" > <path d=""M 50 52 L 50 48"" stroke=""black"" stroke-width="".5""/> <path d=""M 52 50 L 48 50"" stroke=""black"" stroke-width="".5""/>","null","","","","","","","","","",""
"","html-keyboard-response","70","1499940","0.0-3.0-1.8","4yv","[""r""]","","852.6000003814697","[""<svg viewBox=\""0 0 100 100\"" >"",""<path d=\""M 50 52 L 50 48\"" stroke=\""black\"" stroke-width=\"".5\""/>"","" <path d=\""M 52 50 L 48 50\"" stroke=\""black\"" stroke-width=\"".5\""/>"",""<circle cx=\""50\"" cy=\""50\"" r=\""10\"" fill=\""none\"" transform=\""translate(26 15)\"" stroke=\""cyan\"" />"",""<path d=\""M 50 57 L 50 43\"" stroke=\""black\"" transform=\""translate(26 15) rotate(45 50 50)\""/>"",""<circle cx=\""50\"" cy=\""50\"" r=\""10\"" fill=\""none\"" transform=\""translate(0 30)\"" stroke=\""magenta\"" />"",""<path d=\""M 50 57 L 50 43\"" stroke=\""black\"" transform=\""translate(0 30) rotate(45 50 50)\""/>"",""<circle cx=\""50\"" cy=\""50\"" r=\""10\"" fill=\""none\"" transform=\""translate(-26 15)\"" stroke=\""blue\"" />"",""<path d=\""M 50 57 L 50 43\"" stroke=\""black\"" transform=\""translate(-26 15) rotate(45 50 50)\""/>"",""<circle cx=\""50\"" cy=\""50\"" r=\""10\"" fill=\""none\"" transform=\""translate(-26 -15)\"" stroke=\""red\"" />"",""<path d=\""M 50 57 L 50 43\"" stroke=\""black\"" transform=\""translate(-26 -15) rotate(90 50 50)\""/>"",""<circle cx=\""50\"" cy=\""50\"" r=\""10\"" fill=\""none\"" transform=\""translate(0 -30)\"" stroke=\""black\"" />"",""<path d=\""M 50 57 L 50 43\"" stroke=\""black\"" transform=\""translate(0 -30) rotate(-45 50 50)\""/>"",""<circle cx=\""50\"" cy=\""50\"" r=\""10\"" fill=\""none\"" transform=\""translate(26 -15)\"" stroke=\""yellow\"" />"",""<path d=\""M 50 57 L 50 43\"" stroke=\""black\"" transform=\""translate(26 -15) rotate(-45 50 50)\""/>"",""</svg>""]","z","VDACtest","r","3","h","true","high","","","",""
"","html-keyboard-response","71","1502442","0.0-3.0-2.8","4yv","[""r""]","","null","<p style=""font-size:300%;""> + 10 points.</p><p style=""font-size:300%"">Total: 72 points.</p>","null","","","","","","","72","","",""
"","html-keyboard-response","72","1503983","0.0-3.0-0.9","4yv","[""r""]","","null","<svg viewBox=""0 0 100 100"" > <path d=""M 50 52 L 50 48"" stroke=""black"" stroke-width="".5""/> <path d=""M 52 50 L 48 50"" stroke=""black"" stroke-width="".5""/>","null","","","","","","","","","",""
"","html-keyboard-response","73","1504700","0.0-3.0-1.9","4yv","[""r""]","","712.9000000953674","[""<svg viewBox=\""0 0 100 100\"" >"",""<path d=\""M 50 52 L 50 48\"" stroke=\""black\"" stroke-width=\"".5\""/>"","" <path d=\""M 52 50 L 48 50\"" stroke=\""black\"" stroke-width=\"".5\""/>"",""<circle cx=\""50\"" cy=\""50\"" r=\""10\"" fill=\""none\"" transform=\""translate(26 15)\"" stroke=\""magenta\"" />"",""<path d=\""M 50 57 L 50 43\"" stroke=\""black\"" transform=\""translate(26 15) rotate(-45 50 50)\""/>"",""<circle cx=\""50\"" cy=\""50\"" r=\""10\"" fill=\""none\"" transform=\""translate(0 30)\"" stroke=\""lime\"" />"",""<path d=\""M 50 57 L 50 43\"" stroke=\""black\"" transform=\""translate(0 30) rotate(0 50 50)\""/>"",""<circle cx=\""50\"" cy=\""50\"" r=\""10\"" fill=\""none\"" transform=\""translate(-26 15)\"" stroke=\""yellow\"" />"",""<path d=\""M 50 57 L 50 43\"" stroke=\""black\"" transform=\""translate(-26 15) rotate(45 50 50)\""/>"",""<circle cx=\""50\"" cy=\""50\"" r=\""10\"" fill=\""none\"" transform=\""translate(-26 -15)\"" stroke=\""black\"" />"",""<path d=\""M 50 57 L 50 43\"" stroke=\""black\"" transform=\""translate(-26 -15) rotate(45 50 50)\""/>"",""<circle cx=\""50\"" cy=\""50\"" r=\""10\"" fill=\""none\"" transform=\""translate(0 -30)\"" stroke=\""blue\"" />"",""<path d=\""M 50 57 L 50 43\"" stroke=\""black\"" transform=\""translate(0 -30) rotate(45 50 50)\""/>"",""<circle cx=\""50\"" cy=\""50\"" r=\""10\"" fill=\""none\"" transform=\""translate(26 -15)\"" stroke=\""cyan\"" />"",""<path d=\""M 50 57 L 50 43\"" stroke=\""black\"" transform=\""translate(26 -15) rotate(45 50 50)\""/>"",""</svg>""]","m","VDACtest","g","1","v","true","low","","","",""
"","html-keyboard-response","74","1507204","0.0-3.0-2.9","4yv","[""r""]","","null","<p style=""font-size:300%;""> + 2 points.</p><p style=""font-size:300%"">Total: 74 points.</p>","null","","","","","","","74","","",""
"","html-keyboard-response","75","1508746","0.0-3.0-0.10","4yv","[""r""]","","null","<svg viewBox=""0 0 100 100"" > <path d=""M 50 52 L 50 48"" stroke=""black"" stroke-width="".5""/> <path d=""M 52 50 L 48 50"" stroke=""black"" stroke-width="".5""/>","null","","","","","","","","","",""
"","html-keyboard-response","76","1509428","0.0-3.0-1.10","4yv","[""r""]","","678.8000001907349","[""<svg viewBox=\""0 0 100 100\"" >"",""<path d=\""M 50 52 L 50 48\"" stroke=\""black\"" stroke-width=\"".5\""/>"","" <path d=\""M 52 50 L 48 50\"" stroke=\""black\"" stroke-width=\"".5\""/>"",""<circle cx=\""50\"" cy=\""50\"" r=\""10\"" fill=\""none\"" transform=\""translate(26 15)\"" stroke=\""cyan\"" />"",""<path d=\""M 50 57 L 50 43\"" stroke=\""black\"" transform=\""translate(26 15) rotate(45 50 50)\""/>"",""<circle cx=\""50\"" cy=\""50\"" r=\""10\"" fill=\""none\"" transform=\""translate(0 30)\"" stroke=\""yellow\"" />"",""<path d=\""M 50 57 L 50 43\"" stroke=\""black\"" transform=\""translate(0 30) rotate(45 50 50)\""/>"",""<circle cx=\""50\"" cy=\""50\"" r=\""10\"" fill=\""none\"" transform=\""translate(-26 15)\"" stroke=\""blue\"" />"",""<path d=\""M 50 57 L 50 43\"" stroke=\""black\"" transform=\""translate(-26 15) rotate(45 50 50)\""/>"",""<circle cx=\""50\"" cy=\""50\"" r=\""10\"" fill=\""none\"" transform=\""translate(-26 -15)\"" stroke=\""red\"" />"",""<path d=\""M 50 57 L 50 43\"" stroke=\""black\"" transform=\""translate(-26 -15) rotate(0 50 50)\""/>"",""<circle cx=\""50\"" cy=\""50\"" r=\""10\"" fill=\""none\"" transform=\""translate(0 -30)\"" stroke=\""black\"" />"",""<path d=\""M 50 57 L 50 43\"" stroke=\""black\"" transform=\""translate(0 -30) rotate(45 50 50)\""/>"",""<circle cx=\""50\"" cy=\""50\"" r=\""10\"" fill=\""none\"" transform=\""translate(26 -15)\"" stroke=\""magenta\"" />"",""<path d=\""M 50 57 L 50 43\"" stroke=\""black\"" transform=\""translate(26 -15) rotate(45 50 50)\""/>"",""</svg>""]","m","VDACtest","r","3","v","true","high","","","",""
"","html-keyboard-response","77","1511931","0.0-3.0-2.10","4yv","[""r""]","","null","<p style=""font-size:300%;""> + 10 points.</p><p style=""font-size:300%"">Total: 84 points.</p>","null","","","","","","","84","","",""
"","html-keyboard-response","78","1513472","0.0-3.0-0.11","4yv","[""r""]","","null","<svg viewBox=""0 0 100 100"" > <path d=""M 50 52 L 50 48"" stroke=""black"" stroke-width="".5""/> <path d=""M 52 50 L 48 50"" stroke=""black"" stroke-width="".5""/>","null","","","","","","","","","",""
"","html-keyboard-response","79","1513980","0.0-3.0-1.11","4yv","[""r""]","","504.2999997138977","[""<svg viewBox=\""0 0 100 100\"" >"",""<path d=\""M 50 52 L 50 48\"" stroke=\""black\"" stroke-width=\"".5\""/>"","" <path d=\""M 52 50 L 48 50\"" stroke=\""black\"" stroke-width=\"".5\""/>"",""<circle cx=\""50\"" cy=\""50\"" r=\""10\"" fill=\""none\"" transform=\""translate(26 15)\"" stroke=\""magenta\"" />"",""<path d=\""M 50 57 L 50 43\"" stroke=\""black\"" transform=\""translate(26 15) rotate(-45 50 50)\""/>"",""<circle cx=\""50\"" cy=\""50\"" r=\""10\"" fill=\""none\"" transform=\""translate(0 30)\"" stroke=\""cyan\"" />"",""<path d=\""M 50 57 L 50 43\"" stroke=\""black\"" transform=\""translate(0 30) rotate(-45 50 50)\""/>"",""<circle cx=\""50\"" cy=\""50\"" r=\""10\"" fill=\""none\"" transform=\""translate(-26 15)\"" stroke=\""blue\"" />"",""<path d=\""M 50 57 L 50 43\"" stroke=\""black\"" transform=\""translate(-26 15) rotate(-45 50 50)\""/>"",""<circle cx=\""50\"" cy=\""50\"" r=\""10\"" fill=\""none\"" transform=\""translate(-26 -15)\"" stroke=\""black\"" />"",""<path d=\""M 50 57 L 50 43\"" stroke=\""black\"" transform=\""translate(-26 -15) rotate(-45 50 50)\""/>"",""<circle cx=\""50\"" cy=\""50\"" r=\""10\"" fill=\""none\"" transform=\""translate(0 -30)\"" stroke=\""lime\"" />"",""<path d=\""M 50 57 L 50 43\"" stroke=\""black\"" transform=\""translate(0 -30) rotate(0 50 50)\""/>"",""<circle cx=\""50\"" cy=\""50\"" r=\""10\"" fill=\""none\"" transform=\""translate(26 -15)\"" stroke=\""yellow\"" />"",""<path d=\""M 50 57 L 50 43\"" stroke=\""black\"" transform=\""translate(26 -15) rotate(-45 50 50)\""/>"",""</svg>""]","m","VDACtest","g","4","v","true","low","","","",""
"","html-keyboard-response","80","1516483","0.0-3.0-2.11","4yv","[""r""]","","null","<p style=""font-size:300%;""> + 2 points.</p><p style=""font-size:300%"">Total: 86 points.</p>","null","","","","","","","86","","",""
"","html-keyboard-response","81","1518024","0.0-3.0-0.12","4yv","[""r""]","","null","<svg viewBox=""0 0 100 100"" > <path d=""M 50 52 L 50 48"" stroke=""black"" stroke-width="".5""/> <path d=""M 52 50 L 48 50"" stroke=""black"" stroke-width="".5""/>","null","","","","","","","","","",""
"","html-keyboard-response","82","1518644","0.0-3.0-1.12","4yv","[""r""]","","617.1000003814697","[""<svg viewBox=\""0 0 100 100\"" >"",""<path d=\""M 50 52 L 50 48\"" stroke=\""black\"" stroke-width=\"".5\""/>"","" <path d=\""M 52 50 L 48 50\"" stroke=\""black\"" stroke-width=\"".5\""/>"",""<circle cx=\""50\"" cy=\""50\"" r=\""10\"" fill=\""none\"" transform=\""translate(26 15)\"" stroke=\""black\"" />"",""<path d=\""M 50 57 L 50 43\"" stroke=\""black\"" transform=\""translate(26 15) rotate(-45 50 50)\""/>"",""<circle cx=\""50\"" cy=\""50\"" r=\""10\"" fill=\""none\"" transform=\""translate(0 30)\"" stroke=\""yellow\"" />"",""<path d=\""M 50 57 L 50 43\"" stroke=\""black\"" transform=\""translate(0 30) rotate(45 50 50)\""/>"",""<circle cx=\""50\"" cy=\""50\"" r=\""10\"" fill=\""none\"" transform=\""translate(-26 15)\"" stroke=\""lime\"" />"",""<path d=\""M 50 57 L 50 43\"" stroke=\""black\"" transform=\""translate(-26 15) rotate(90 50 50)\""/>"",""<circle cx=\""50\"" cy=\""50\"" r=\""10\"" fill=\""none\"" transform=\""translate(-26 -15)\"" stroke=\""magenta\"" />"",""<path d=\""M 50 57 L 50 43\"" stroke=\""black\"" transform=\""translate(-26 -15) rotate(-45 50 50)\""/>"",""<circle cx=\""50\"" cy=\""50\"" r=\""10\"" fill=\""none\"" transform=\""translate(0 -30)\"" stroke=\""cyan\"" />"",""<path d=\""M 50 57 L 50 43\"" stroke=\""black\"" transform=\""translate(0 -30) rotate(-45 50 50)\""/>"",""<circle cx=\""50\"" cy=\""50\"" r=\""10\"" fill=\""none\"" transform=\""translate(26 -15)\"" stroke=\""blue\"" />"",""<path d=\""M 50 57 L 50 43\"" stroke=\""black\"" transform=\""translate(26 -15) rotate(-45 50 50)\""/>"",""</svg>""]","z","VDACtest","g","2","h","true","low","","","",""
"","html-keyboard-response","83","1521147","0.0-3.0-2.12","4yv","[""r""]","","null","<p style=""font-size:300%;""> + 2 points.</p><p style=""font-size:300%"">Total: 88 points.</p>","null","","","","","","","88","","",""
"","html-keyboard-response","84","1522690","0.0-3.0-0.13","4yv","[""r""]","","null","<svg viewBox=""0 0 100 100"" > <path d=""M 50 52 L 50 48"" stroke=""black"" stroke-width="".5""/> <path d=""M 52 50 L 48 50"" stroke=""black"" stroke-width="".5""/>","null","","","","","","","","","",""
"","html-keyboard-response","85","1523212","0.0-3.0-1.13","4yv","[""r""]","","519.6999998092651","[""<svg viewBox=\""0 0 100 100\"" >"",""<path d=\""M 50 52 L 50 48\"" stroke=\""black\"" stroke-width=\"".5\""/>"","" <path d=\""M 52 50 L 48 50\"" stroke=\""black\"" stroke-width=\"".5\""/>"",""<circle cx=\""50\"" cy=\""50\"" r=\""10\"" fill=\""none\"" transform=\""translate(26 15)\"" stroke=\""yellow\"" />"",""<path d=\""M 50 57 L 50 43\"" stroke=\""black\"" transform=\""translate(26 15) rotate(45 50 50)\""/>"",""<circle cx=\""50\"" cy=\""50\"" r=\""10\"" fill=\""none\"" transform=\""translate(0 30)\"" stroke=\""black\"" />"",""<path d=\""M 50 57 L 50 43\"" stroke=\""black\"" transform=\""translate(0 30) rotate(-45 50 50)\""/>"",""<circle cx=\""50\"" cy=\""50\"" r=\""10\"" fill=\""none\"" transform=\""translate(-26 15)\"" stroke=\""lime\"" />"",""<path d=\""M 50 57 L 50 43\"" stroke=\""black\"" transform=\""translate(-26 15) rotate(90 50 50)\""/>"",""<circle cx=\""50\"" cy=\""50\"" r=\""10\"" fill=\""none\"" transform=\""translate(-26 -15)\"" stroke=\""cyan\"" />"",""<path d=\""M 50 57 L 50 43\"" stroke=\""black\"" transform=\""translate(-26 -15) rotate(-45 50 50)\""/>"",""<circle cx=\""50\"" cy=\""50\"" r=\""10\"" fill=\""none\"" transform=\""translate(0 -30)\"" stroke=\""magenta\"" />"",""<path d=\""M 50 57 L 50 43\"" stroke=\""black\"" transform=\""translate(0 -30) rotate(-45 50 50)\""/>"",""<circle cx=\""50\"" cy=\""50\"" r=\""10\"" fill=\""none\"" transform=\""translate(26 -15)\"" stroke=\""blue\"" />"",""<path d=\""M 50 57 L 50 43\"" stroke=\""black\"" transform=\""translate(26 -15) rotate(45 50 50)\""/>"",""</svg>""]","z","VDACtest","g","2","h","true","low","","","",""
"","html-keyboard-response","86","1525715","0.0-3.0-2.13","4yv","[""r""]","","null","<p style=""font-size:300%;""> + 2 points.</p><p style=""font-size:300%"">Total: 90 points.</p>","null","","","","","","","90","","",""
"","html-keyboard-response","87","1527257","0.0-3.0-0.14","4yv","[""r""]","","null","<svg viewBox=""0 0 100 100"" > <path d=""M 50 52 L 50 48"" stroke=""black"" stroke-width="".5""/> <path d=""M 52 50 L 48 50"" stroke=""black"" stroke-width="".5""/>","null","","","","","","","","","",""
"","html-keyboard-response","88","1527756","0.0-3.0-1.14","4yv","[""r""]","","495.5","[""<svg viewBox=\""0 0 100 100\"" >"",""<path d=\""M 50 52 L 50 48\"" stroke=\""black\"" stroke-width=\"".5\""/>"","" <path d=\""M 52 50 L 48 50\"" stroke=\""black\"" stroke-width=\"".5\""/>"",""<circle cx=\""50\"" cy=\""50\"" r=\""10\"" fill=\""none\"" transform=\""translate(26 15)\"" stroke=\""yellow\"" />"",""<path d=\""M 50 57 L 50 43\"" stroke=\""black\"" transform=\""translate(26 15) rotate(-45 50 50)\""/>"",""<circle cx=\""50\"" cy=\""50\"" r=\""10\"" fill=\""none\"" transform=\""translate(0 30)\"" stroke=\""magenta\"" />"",""<path d=\""M 50 57 L 50 43\"" stroke=\""black\"" transform=\""translate(0 30) rotate(-45 50 50)\""/>"",""<circle cx=\""50\"" cy=\""50\"" r=\""10\"" fill=\""none\"" transform=\""translate(-26 15)\"" stroke=\""cyan\"" />"",""<path d=\""M 50 57 L 50 43\"" stroke=\""black\"" transform=\""translate(-26 15) rotate(45 50 50)\""/>"",""<circle cx=\""50\"" cy=\""50\"" r=\""10\"" fill=\""none\"" transform=\""translate(-26 -15)\"" stroke=\""black\"" />"",""<path d=\""M 50 57 L 50 43\"" stroke=\""black\"" transform=\""translate(-26 -15) rotate(-45 50 50)\""/>"",""<circle cx=\""50\"" cy=\""50\"" r=\""10\"" fill=\""none\"" transform=\""translate(0 -30)\"" stroke=\""lime\"" />"",""<path d=\""M 50 57 L 50 43\"" stroke=\""black\"" transform=\""translate(0 -30) rotate(0 50 50)\""/>"",""<circle cx=\""50\"" cy=\""50\"" r=\""10\"" fill=\""none\"" transform=\""translate(26 -15)\"" stroke=\""blue\"" />"",""<path d=\""M 50 57 L 50 43\"" stroke=\""black\"" transform=\""translate(26 -15) rotate(45 50 50)\""/>"",""</svg>""]","m","VDACtest","g","4","v","true","low","","","",""
"","html-keyboard-response","89","1530258","0.0-3.0-2.14","4yv","[""r""]","","null","<p style=""font-size:300%;""> + 2 points.</p><p style=""font-size:300%"">Total: 92 points.</p>","null","","","","","","","92","","",""
"","html-keyboard-response","90","1531801","0.0-3.0-0.15","4yv","[""r""]","","null","<svg viewBox=""0 0 100 100"" > <path d=""M 50 52 L 50 48"" stroke=""black"" stroke-width="".5""/> <path d=""M 52 50 L 48 50"" stroke=""black"" stroke-width="".5""/>","null","","","","","","","","","",""
"","html-keyboard-response","91","1532596","0.0-3.0-1.15","4yv","[""r""]","","790.8999996185303","[""<svg viewBox=\""0 0 100 100\"" >"",""<path d=\""M 50 52 L 50 48\"" stroke=\""black\"" stroke-width=\"".5\""/>"","" <path d=\""M 52 50 L 48 50\"" stroke=\""black\"" stroke-width=\"".5\""/>"",""<circle cx=\""50\"" cy=\""50\"" r=\""10\"" fill=\""none\"" transform=\""translate(26 15)\"" stroke=\""red\"" />"",""<path d=\""M 50 57 L 50 43\"" stroke=\""black\"" transform=\""translate(26 15) rotate(0 50 50)\""/>"",""<circle cx=\""50\"" cy=\""50\"" r=\""10\"" fill=\""none\"" transform=\""translate(0 30)\"" stroke=\""cyan\"" />"",""<path d=\""M 50 57 L 50 43\"" stroke=\""black\"" transform=\""translate(0 30) rotate(45 50 50)\""/>"",""<circle cx=\""50\"" cy=\""50\"" r=\""10\"" fill=\""none\"" transform=\""translate(-26 15)\"" stroke=\""magenta\"" />"",""<path d=\""M 50 57 L 50 43\"" stroke=\""black\"" transform=\""translate(-26 15) rotate(-45 50 50)\""/>"",""<circle cx=\""50\"" cy=\""50\"" r=\""10\"" fill=\""none\"" transform=\""translate(-26 -15)\"" stroke=\""blue\"" />"",""<path d=\""M 50 57 L 50 43\"" stroke=\""black\"" transform=\""translate(-26 -15) rotate(45 50 50)\""/>"",""<circle cx=\""50\"" cy=\""50\"" r=\""10\"" fill=\""none\"" transform=\""translate(0 -30)\"" stroke=\""yellow\"" />"",""<path d=\""M 50 57 L 50 43\"" stroke=\""black\"" transform=\""translate(0 -30) rotate(-45 50 50)\""/>"",""<circle cx=\""50\"" cy=\""50\"" r=\""10\"" fill=\""none\"" transform=\""translate(26 -15)\"" stroke=\""black\"" />"",""<path d=\""M 50 57 L 50 43\"" stroke=\""black\"" transform=\""translate(26 -15) rotate(-45 50 50)\""/>"",""</svg>""]","m","VDACtest","r","0","v","true","high","","","",""
"","html-keyboard-response","92","1535099","0.0-3.0-2.15","4yv","[""r""]","","null","<p style=""font-size:300%;""> + 10 points.</p><p style=""font-size:300%"">Total: 102 points.</p>","null","","","","","","","102","","",""
"","html-keyboard-response","93","1536641","0.0-3.0-0.16","4yv","[""r""]","","null","<svg viewBox=""0 0 100 100"" > <path d=""M 50 52 L 50 48"" stroke=""black"" stroke-width="".5""/> <path d=""M 52 50 L 48 50"" stroke=""black"" stroke-width="".5""/>","null","","","","","","","","","",""
"","html-keyboard-response","94","1537189","0.0-3.0-1.16","4yv","[""r""]","","544.2999997138977","[""<svg viewBox=\""0 0 100 100\"" >"",""<path d=\""M 50 52 L 50 48\"" stroke=\""black\"" stroke-width=\"".5\""/>"","" <path d=\""M 52 50 L 48 50\"" stroke=\""black\"" stroke-width=\"".5\""/>"",""<circle cx=\""50\"" cy=\""50\"" r=\""10\"" fill=\""none\"" transform=\""translate(26 15)\"" stroke=\""cyan\"" />"",""<path d=\""M 50 57 L 50 43\"" stroke=\""black\"" transform=\""translate(26 15) rotate(45 50 50)\""/>"",""<circle cx=\""50\"" cy=\""50\"" r=\""10\"" fill=\""none\"" transform=\""translate(0 30)\"" stroke=\""red\"" />"",""<path d=\""M 50 57 L 50 43\"" stroke=\""black\"" transform=\""translate(0 30) rotate(90 50 50)\""/>"",""<circle cx=\""50\"" cy=\""50\"" r=\""10\"" fill=\""none\"" transform=\""translate(-26 15)\"" stroke=\""magenta\"" />"",""<path d=\""M 50 57 L 50 43\"" stroke=\""black\"" transform=\""translate(-26 15) rotate(45 50 50)\""/>"",""<circle cx=\""50\"" cy=\""50\"" r=\""10\"" fill=\""none\"" transform=\""translate(-26 -15)\"" stroke=\""black\"" />"",""<path d=\""M 50 57 L 50 43\"" stroke=\""black\"" transform=\""translate(-26 -15) rotate(-45 50 50)\""/>"",""<circle cx=\""50\"" cy=\""50\"" r=\""10\"" fill=\""none\"" transform=\""translate(0 -30)\"" stroke=\""blue\"" />"",""<path d=\""M 50 57 L 50 43\"" stroke=\""black\"" transform=\""translate(0 -30) rotate(-45 50 50)\""/>"",""<circle cx=\""50\"" cy=\""50\"" r=\""10\"" fill=\""none\"" transform=\""translate(26 -15)\"" stroke=\""yellow\"" />"",""<path d=\""M 50 57 L 50 43\"" stroke=\""black\"" transform=\""translate(26 -15) rotate(45 50 50)\""/>"",""</svg>""]","m","VDACtest","r","1","h","false","high","","","",""
"","html-keyboard-response","95","1539691","0.0-3.0-2.16","4yv","[""r""]","","null","<p style=""font-size:300%;"">Miss.</p><p style=""font-size:300%"">Total: 102 points.</p>","null","","","","","","","102","","",""
"","html-keyboard-response","96","1541233","0.0-3.0-0.17","4yv","[""r""]","","null","<svg viewBox=""0 0 100 100"" > <path d=""M 50 52 L 50 48"" stroke=""black"" stroke-width="".5""/> <path d=""M 52 50 L 48 50"" stroke=""black"" stroke-width="".5""/>","null","","","","","","","","","",""
"","html-keyboard-response","97","1541844","0.0-3.0-1.17","4yv","[""r""]","","607.0999999046326","[""<svg viewBox=\""0 0 100 100\"" >"",""<path d=\""M 50 52 L 50 48\"" stroke=\""black\"" stroke-width=\"".5\""/>"","" <path d=\""M 52 50 L 48 50\"" stroke=\""black\"" stroke-width=\"".5\""/>"",""<circle cx=\""50\"" cy=\""50\"" r=\""10\"" fill=\""none\"" transform=\""translate(26 15)\"" stroke=\""black\"" />"",""<path d=\""M 50 57 L 50 43\"" stroke=\""black\"" transform=\""translate(26 15) rotate(-45 50 50)\""/>"",""<circle cx=\""50\"" cy=\""50\"" r=\""10\"" fill=\""none\"" transform=\""translate(0 30)\"" stroke=\""magenta\"" />"",""<path d=\""M 50 57 L 50 43\"" stroke=\""black\"" transform=\""translate(0 30) rotate(45 50 50)\""/>"",""<circle cx=\""50\"" cy=\""50\"" r=\""10\"" fill=\""none\"" transform=\""translate(-26 15)\"" stroke=\""red\"" />"",""<path d=\""M 50 57 L 50 43\"" stroke=\""black\"" transform=\""translate(-26 15) rotate(0 50 50)\""/>"",""<circle cx=\""50\"" cy=\""50\"" r=\""10\"" fill=\""none\"" transform=\""translate(-26 -15)\"" stroke=\""blue\"" />"",""<path d=\""M 50 57 L 50 43\"" stroke=\""black\"" transform=\""translate(-26 -15) rotate(-45 50 50)\""/>"",""<circle cx=\""50\"" cy=\""50\"" r=\""10\"" fill=\""none\"" transform=\""translate(0 -30)\"" stroke=\""yellow\"" />"",""<path d=\""M 50 57 L 50 43\"" stroke=\""black\"" transform=\""translate(0 -30) rotate(-45 50 50)\""/>"",""<circle cx=\""50\"" cy=\""50\"" r=\""10\"" fill=\""none\"" transform=\""translate(26 -15)\"" stroke=\""cyan\"" />"",""<path d=\""M 50 57 L 50 43\"" stroke=\""black\"" transform=\""translate(26 -15) rotate(45 50 50)\""/>"",""</svg>""]","z","VDACtest","r","2","v","false","high","","","",""
"","html-keyboard-response","98","1544347","0.0-3.0-2.17","4yv","[""r""]","","null","<p style=""font-size:300%;"">Miss.</p><p style=""font-size:300%"">Total: 102 points.</p>","null","","","","","","","102","","",""
"","html-keyboard-response","99","1545890","0.0-3.0-0.18","4yv","[""r""]","","null","<svg viewBox=""0 0 100 100"" > <path d=""M 50 52 L 50 48"" stroke=""black"" stroke-width="".5""/> <path d=""M 52 50 L 48 50"" stroke=""black"" stroke-width="".5""/>","null","","","","","","","","","",""
"","html-keyboard-response","100","1546556","0.0-3.0-1.18","4yv","[""r""]","","662.5999999046326","[""<svg viewBox=\""0 0 100 100\"" >"",""<path d=\""M 50 52 L 50 48\"" stroke=\""black\"" stroke-width=\"".5\""/>"","" <path d=\""M 52 50 L 48 50\"" stroke=\""black\"" stroke-width=\"".5\""/>"",""<circle cx=\""50\"" cy=\""50\"" r=\""10\"" fill=\""none\"" transform=\""translate(26 15)\"" stroke=\""magenta\"" />"",""<path d=\""M 50 57 L 50 43\"" stroke=\""black\"" transform=\""translate(26 15) rotate(45 50 50)\""/>"",""<circle cx=\""50\"" cy=\""50\"" r=\""10\"" fill=\""none\"" transform=\""translate(0 30)\"" stroke=\""black\"" />"",""<path d=\""M 50 57 L 50 43\"" stroke=\""black\"" transform=\""translate(0 30) rotate(-45 50 50)\""/>"",""<circle cx=\""50\"" cy=\""50\"" r=\""10\"" fill=\""none\"" transform=\""translate(-26 15)\"" stroke=\""blue\"" />"",""<path d=\""M 50 57 L 50 43\"" stroke=\""black\"" transform=\""translate(-26 15) rotate(-45 50 50)\""/>"",""<circle cx=\""50\"" cy=\""50\"" r=\""10\"" fill=\""none\"" transform=\""translate(-26 -15)\"" stroke=\""red\"" />"",""<path d=\""M 50 57 L 50 43\"" stroke=\""black\"" transform=\""translate(-26 -15) rotate(90 50 50)\""/>"",""<circle cx=\""50\"" cy=\""50\"" r=\""10\"" fill=\""none\"" transform=\""translate(0 -30)\"" stroke=\""cyan\"" />"",""<path d=\""M 50 57 L 50 43\"" stroke=\""black\"" transform=\""translate(0 -30) rotate(-45 50 50)\""/>"",""<circle cx=\""50\"" cy=\""50\"" r=\""10\"" fill=\""none\"" transform=\""translate(26 -15)\"" stroke=\""yellow\"" />"",""<path d=\""M 50 57 L 50 43\"" stroke=\""black\"" transform=\""translate(26 -15) rotate(45 50 50)\""/>"",""</svg>""]","m","VDACtest","r","3","h","false","high","","","",""
"","html-keyboard-response","101","1549058","0.0-3.0-2.18","4yv","[""r""]","","null","<p style=""font-size:300%;"">Miss.</p><p style=""font-size:300%"">Total: 102 points.</p>","null","","","","","","","102","","",""
"","html-keyboard-response","102","1550602","0.0-3.0-0.19","4yv","[""r""]","","null","<svg viewBox=""0 0 100 100"" > <path d=""M 50 52 L 50 48"" stroke=""black"" stroke-width="".5""/> <path d=""M 52 50 L 48 50"" stroke=""black"" stroke-width="".5""/>","null","","","","","","","","","",""
"","html-keyboard-response","103","1551420","0.0-3.0-1.19","4yv","[""r""]","","815.3000001907349","[""<svg viewBox=\""0 0 100 100\"" >"",""<path d=\""M 50 52 L 50 48\"" stroke=\""black\"" stroke-width=\"".5\""/>"","" <path d=\""M 52 50 L 48 50\"" stroke=\""black\"" stroke-width=\"".5\""/>"",""<circle cx=\""50\"" cy=\""50\"" r=\""10\"" fill=\""none\"" transform=\""translate(26 15)\"" stroke=\""black\"" />"",""<path d=\""M 50 57 L 50 43\"" stroke=\""black\"" transform=\""translate(26 15) rotate(45 50 50)\""/>"",""<circle cx=\""50\"" cy=\""50\"" r=\""10\"" fill=\""none\"" transform=\""translate(0 30)\"" stroke=\""magenta\"" />"",""<path d=\""M 50 57 L 50 43\"" stroke=\""black\"" transform=\""translate(0 30) rotate(45 50 50)\""/>"",""<circle cx=\""50\"" cy=\""50\"" r=\""10\"" fill=\""none\"" transform=\""translate(-26 15)\"" stroke=\""yellow\"" />"",""<path d=\""M 50 57 L 50 43\"" stroke=\""black\"" transform=\""translate(-26 15) rotate(-45 50 50)\""/>"",""<circle cx=\""50\"" cy=\""50\"" r=\""10\"" fill=\""none\"" transform=\""translate(-26 -15)\"" stroke=\""cyan\"" />"",""<path d=\""M 50 57 L 50 43\"" stroke=\""black\"" transform=\""translate(-26 -15) rotate(-45 50 50)\""/>"",""<circle cx=\""50\"" cy=\""50\"" r=\""10\"" fill=\""none\"" transform=\""translate(0 -30)\"" stroke=\""blue\"" />"",""<path d=\""M 50 57 L 50 43\"" stroke=\""black\"" transform=\""translate(0 -30) rotate(-45 50 50)\""/>"",""<circle cx=\""50\"" cy=\""50\"" r=\""10\"" fill=\""none\"" transform=\""translate(26 -15)\"" stroke=\""lime\"" />"",""<path d=\""M 50 57 L 50 43\"" stroke=\""black\"" transform=\""translate(26 -15) rotate(0 50 50)\""/>"",""</svg>""]","z","VDACtest","g","5","v","false","low","","","",""
"","html-keyboard-response","104","1553924","0.0-3.0-2.19","4yv","[""r""]","","null","<p style=""font-size:300%;"">Miss.</p><p style=""font-size:300%"">Total: 102 points.</p>","null","","","","","","","102","","",""
"","html-keyboard-response","105","1555465","0.0-3.0-0.20","4yv","[""r""]","","null","<svg viewBox=""0 0 100 100"" > <path d=""M 50 52 L 50 48"" stroke=""black"" stroke-width="".5""/> <path d=""M 52 50 L 48 50"" stroke=""black"" stroke-width="".5""/>","null","","","","","","","","","",""
"","html-keyboard-response","106","1556060","0.0-3.0-1.20","4yv","[""r""]","","591.0999999046326","[""<svg viewBox=\""0 0 100 100\"" >"",""<path d=\""M 50 52 L 50 48\"" stroke=\""black\"" stroke-width=\"".5\""/>"","" <path d=\""M 52 50 L 48 50\"" stroke=\""black\"" stroke-width=\"".5\""/>"",""<circle cx=\""50\"" cy=\""50\"" r=\""10\"" fill=\""none\"" transform=\""translate(26 15)\"" stroke=\""yellow\"" />"",""<path d=\""M 50 57 L 50 43\"" stroke=\""black\"" transform=\""translate(26 15) rotate(-45 50 50)\""/>"",""<circle cx=\""50\"" cy=\""50\"" r=\""10\"" fill=\""none\"" transform=\""translate(0 30)\"" stroke=\""blue\"" />"",""<path d=\""M 50 57 L 50 43\"" stroke=\""black\"" transform=\""translate(0 30) rotate(45 50 50)\""/>"",""<circle cx=\""50\"" cy=\""50\"" r=\""10\"" fill=\""none\"" transform=\""translate(-26 15)\"" stroke=\""cyan\"" />"",""<path d=\""M 50 57 L 50 43\"" stroke=\""black\"" transform=\""translate(-26 15) rotate(45 50 50)\""/>"",""<circle cx=\""50\"" cy=\""50\"" r=\""10\"" fill=\""none\"" transform=\""translate(-26 -15)\"" stroke=\""black\"" />"",""<path d=\""M 50 57 L 50 43\"" stroke=\""black\"" transform=\""translate(-26 -15) rotate(45 50 50)\""/>"",""<circle cx=\""50\"" cy=\""50\"" r=\""10\"" fill=\""none\"" transform=\""translate(0 -30)\"" stroke=\""lime\"" />"",""<path d=\""M 50 57 L 50 43\"" stroke=\""black\"" transform=\""translate(0 -30) rotate(0 50 50)\""/>"",""<circle cx=\""50\"" cy=\""50\"" r=\""10\"" fill=\""none\"" transform=\""translate(26 -15)\"" stroke=\""magenta\"" />"",""<path d=\""M 50 57 L 50 43\"" stroke=\""black\"" transform=\""translate(26 -15) rotate(-45 50 50)\""/>"",""</svg>""]","m","VDACtest","g","4","v","true","low","","","",""
"","html-keyboard-response","107","1558562","0.0-3.0-2.20","4yv","[""r""]","","null","<p style=""font-size:300%;""> + 2 points.</p><p style=""font-size:300%"">Total: 104 points.</p>","null","","","","","","","104","","",""
"","html-keyboard-response","108","1560104","0.0-3.0-0.21","4yv","[""r""]","","null","<svg viewBox=""0 0 100 100"" > <path d=""M 50 52 L 50 48"" stroke=""black"" stroke-width="".5""/> <path d=""M 52 50 L 48 50"" stroke=""black"" stroke-width="".5""/>","null","","","","","","","","","",""
"","html-keyboard-response","109","1560788","0.0-3.0-1.21","4yv","[""r""]","","680.9000000953674","[""<svg viewBox=\""0 0 100 100\"" >"",""<path d=\""M 50 52 L 50 48\"" stroke=\""black\"" stroke-width=\"".5\""/>"","" <path d=\""M 52 50 L 48 50\"" stroke=\""black\"" stroke-width=\"".5\""/>"",""<circle cx=\""50\"" cy=\""50\"" r=\""10\"" fill=\""none\"" transform=\""translate(26 15)\"" stroke=\""yellow\"" />"",""<path d=\""M 50 57 L 50 43\"" stroke=\""black\"" transform=\""translate(26 15) rotate(-45 50 50)\""/>"",""<circle cx=\""50\"" cy=\""50\"" r=\""10\"" fill=\""none\"" transform=\""translate(0 30)\"" stroke=\""black\"" />"",""<path d=\""M 50 57 L 50 43\"" stroke=\""black\"" transform=\""translate(0 30) rotate(45 50 50)\""/>"",""<circle cx=\""50\"" cy=\""50\"" r=\""10\"" fill=\""none\"" transform=\""translate(-26 15)\"" stroke=\""blue\"" />"",""<path d=\""M 50 57 L 50 43\"" stroke=\""black\"" transform=\""translate(-26 15) rotate(-45 50 50)\""/>"",""<circle cx=\""50\"" cy=\""50\"" r=\""10\"" fill=\""none\"" transform=\""translate(-26 -15)\"" stroke=\""cyan\"" />"",""<path d=\""M 50 57 L 50 43\"" stroke=\""black\"" transform=\""translate(-26 -15) rotate(45 50 50)\""/>"",""<circle cx=\""50\"" cy=\""50\"" r=\""10\"" fill=\""none\"" transform=\""translate(0 -30)\"" stroke=\""magenta\"" />"",""<path d=\""M 50 57 L 50 43\"" stroke=\""black\"" transform=\""translate(0 -30) rotate(45 50 50)\""/>"",""<circle cx=\""50\"" cy=\""50\"" r=\""10\"" fill=\""none\"" transform=\""translate(26 -15)\"" stroke=\""red\"" />"",""<path d=\""M 50 57 L 50 43\"" stroke=\""black\"" transform=\""translate(26 -15) rotate(0 50 50)\""/>"",""</svg>""]","m","VDACtest","r","5","v","true","high","","","",""
"","html-keyboard-response","110","1563291","0.0-3.0-2.21","4yv","[""r""]","","null","<p style=""font-size:300%;""> + 10 points.</p><p style=""font-size:300%"">Total: 114 points.</p>","null","","","","","","","114","","",""
"","html-keyboard-response","111","1564834","0.0-3.0-0.22","4yv","[""r""]","","null","<svg viewBox=""0 0 100 100"" > <path d=""M 50 52 L 50 48"" stroke=""black"" stroke-width="".5""/> <path d=""M 52 50 L 48 50"" stroke=""black"" stroke-width="".5""/>","null","","","","","","","","","",""
"","html-keyboard-response","112","1565700","0.0-3.0-1.22","4yv","[""r""]","","863.0999999046326","[""<svg viewBox=\""0 0 100 100\"" >"",""<path d=\""M 50 52 L 50 48\"" stroke=\""black\"" stroke-width=\"".5\""/>"","" <path d=\""M 52 50 L 48 50\"" stroke=\""black\"" stroke-width=\"".5\""/>"",""<circle cx=\""50\"" cy=\""50\"" r=\""10\"" fill=\""none\"" transform=\""translate(26 15)\"" stroke=\""cyan\"" />"",""<path d=\""M 50 57 L 50 43\"" stroke=\""black\"" transform=\""translate(26 15) rotate(-45 50 50)\""/>"",""<circle cx=\""50\"" cy=\""50\"" r=\""10\"" fill=\""none\"" transform=\""translate(0 30)\"" stroke=\""lime\"" />"",""<path d=\""M 50 57 L 50 43\"" stroke=\""black\"" transform=\""translate(0 30) rotate(90 50 50)\""/>"",""<circle cx=\""50\"" cy=\""50\"" r=\""10\"" fill=\""none\"" transform=\""translate(-26 15)\"" stroke=\""yellow\"" />"",""<path d=\""M 50 57 L 50 43\"" stroke=\""black\"" transform=\""translate(-26 15) rotate(45 50 50)\""/>"",""<circle cx=\""50\"" cy=\""50\"" r=\""10\"" fill=\""none\"" transform=\""translate(-26 -15)\"" stroke=\""blue\"" />"",""<path d=\""M 50 57 L 50 43\"" stroke=\""black\"" transform=\""translate(-26 -15) rotate(45 50 50)\""/>"",""<circle cx=\""50\"" cy=\""50\"" r=\""10\"" fill=\""none\"" transform=\""translate(0 -30)\"" stroke=\""magenta\"" />"",""<path d=\""M 50 57 L 50 43\"" stroke=\""black\"" transform=\""translate(0 -30) rotate(-45 50 50)\""/>"",""<circle cx=\""50\"" cy=\""50\"" r=\""10\"" fill=\""none\"" transform=\""translate(26 -15)\"" stroke=\""black\"" />"",""<path d=\""M 50 57 L 50 43\"" stroke=\""black\"" transform=\""translate(26 -15) rotate(-45 50 50)\""/>"",""</svg>""]","z","VDACtest","g","1","h","true","low","","","",""
"","html-keyboard-response","113","1568203","0.0-3.0-2.22","4yv","[""r""]","","null","<p style=""font-size:300%;""> + 2 points.</p><p style=""font-size:300%"">Total: 116 points.</p>","null","","","","","","","116","","",""
"","html-keyboard-response","114","1569744","0.0-3.0-0.23","4yv","[""r""]","","null","<svg viewBox=""0 0 100 100"" > <path d=""M 50 52 L 50 48"" stroke=""black"" stroke-width="".5""/> <path d=""M 52 50 L 48 50"" stroke=""black"" stroke-width="".5""/>","null","","","","","","","","","",""
"","html-keyboard-response","115","1570260","0.0-3.0-1.23","4yv","[""r""]","","511.90000009536743","[""<svg viewBox=\""0 0 100 100\"" >"",""<path d=\""M 50 52 L 50 48\"" stroke=\""black\"" stroke-width=\"".5\""/>"","" <path d=\""M 52 50 L 48 50\"" stroke=\""black\"" stroke-width=\"".5\""/>"",""<circle cx=\""50\"" cy=\""50\"" r=\""10\"" fill=\""none\"" transform=\""translate(26 15)\"" stroke=\""lime\"" />"",""<path d=\""M 50 57 L 50 43\"" stroke=\""black\"" transform=\""translate(26 15) rotate(90 50 50)\""/>"",""<circle cx=\""50\"" cy=\""50\"" r=\""10\"" fill=\""none\"" transform=\""translate(0 30)\"" stroke=\""magenta\"" />"",""<path d=\""M 50 57 L 50 43\"" stroke=\""black\"" transform=\""translate(0 30) rotate(-45 50 50)\""/>"",""<circle cx=\""50\"" cy=\""50\"" r=\""10\"" fill=\""none\"" transform=\""translate(-26 15)\"" stroke=\""cyan\"" />"",""<path d=\""M 50 57 L 50 43\"" stroke=\""black\"" transform=\""translate(-26 15) rotate(45 50 50)\""/>"",""<circle cx=\""50\"" cy=\""50\"" r=\""10\"" fill=\""none\"" transform=\""translate(-26 -15)\"" stroke=\""blue\"" />"",""<path d=\""M 50 57 L 50 43\"" stroke=\""black\"" transform=\""translate(-26 -15) rotate(-45 50 50)\""/>"",""<circle cx=\""50\"" cy=\""50\"" r=\""10\"" fill=\""none\"" transform=\""translate(0 -30)\"" stroke=\""yellow\"" />"",""<path d=\""M 50 57 L 50 43\"" stroke=\""black\"" transform=\""translate(0 -30) rotate(-45 50 50)\""/>"",""<circle cx=\""50\"" cy=\""50\"" r=\""10\"" fill=\""none\"" transform=\""translate(26 -15)\"" stroke=\""black\"" />"",""<path d=\""M 50 57 L 50 43\"" stroke=\""black\"" transform=\""translate(26 -15) rotate(-45 50 50)\""/>"",""</svg>""]","m","VDACtest","g","0","h","false","low","","","",""
"","html-keyboard-response","116","1572763","0.0-3.0-2.23","4yv","[""r""]","","null","<p style=""font-size:300%;"">Miss.</p><p style=""font-size:300%"">Total: 116 points.</p>","null","","","","","","","116","","",""
"","html-keyboard-response","117","1574305","0.0-3.0-0.24","4yv","[""r""]","","null","<svg viewBox=""0 0 100 100"" > <path d=""M 50 52 L 50 48"" stroke=""black"" stroke-width="".5""/> <path d=""M 52 50 L 48 50"" stroke=""black"" stroke-width="".5""/>","null","","","","","","","","","",""
"","html-keyboard-response","118","1575068","0.0-3.0-1.24","4yv","[""r""]","","760","[""<svg viewBox=\""0 0 100 100\"" >"",""<path d=\""M 50 52 L 50 48\"" stroke=\""black\"" stroke-width=\"".5\""/>"","" <path d=\""M 52 50 L 48 50\"" stroke=\""black\"" stroke-width=\"".5\""/>"",""<circle cx=\""50\"" cy=\""50\"" r=\""10\"" fill=\""none\"" transform=\""translate(26 15)\"" stroke=\""cyan\"" />"",""<path d=\""M 50 57 L 50 43\"" stroke=\""black\"" transform=\""translate(26 15) rotate(45 50 50)\""/>"",""<circle cx=\""50\"" cy=\""50\"" r=\""10\"" fill=\""none\"" transform=\""translate(0 30)\"" stroke=\""red\"" />"",""<path d=\""M 50 57 L 50 43\"" stroke=\""black\"" transform=\""translate(0 30) rotate(90 50 50)\""/>"",""<circle cx=\""50\"" cy=\""50\"" r=\""10\"" fill=\""none\"" transform=\""translate(-26 15)\"" stroke=\""yellow\"" />"",""<path d=\""M 50 57 L 50 43\"" stroke=\""black\"" transform=\""translate(-26 15) rotate(-45 50 50)\""/>"",""<circle cx=\""50\"" cy=\""50\"" r=\""10\"" fill=\""none\"" transform=\""translate(-26 -15)\"" stroke=\""black\"" />"",""<path d=\""M 50 57 L 50 43\"" stroke=\""black\"" transform=\""translate(-26 -15) rotate(45 50 50)\""/>"",""<circle cx=\""50\"" cy=\""50\"" r=\""10\"" fill=\""none\"" transform=\""translate(0 -30)\"" stroke=\""magenta\"" />"",""<path d=\""M 50 57 L 50 43\"" stroke=\""black\"" transform=\""translate(0 -30) rotate(-45 50 50)\""/>"",""<circle cx=\""50\"" cy=\""50\"" r=\""10\"" fill=\""none\"" transform=\""translate(26 -15)\"" stroke=\""blue\"" />"",""<path d=\""M 50 57 L 50 43\"" stroke=\""black\"" transform=\""translate(26 -15) rotate(45 50 50)\""/>"",""</svg>""]","m","VDACtest","r","1","h","false","high","","","",""
"","html-keyboard-response","119","1577571","0.0-3.0-2.24","4yv","[""r""]","","null","<p style=""font-size:300%;"">Miss.</p><p style=""font-size:300%"">Total: 116 points.</p>","null","","","","","","","116","","",""
"","html-keyboard-response","120","1579112","0.0-3.0-0.25","4yv","[""r""]","","null","<svg viewBox=""0 0 100 100"" > <path d=""M 50 52 L 50 48"" stroke=""black"" stroke-width="".5""/> <path d=""M 52 50 L 48 50"" stroke=""black"" stroke-width="".5""/>","null","","","","","","","","","",""
"","html-keyboard-response","121","1579700","0.0-3.0-1.25","4yv","[""r""]","","584.6000003814697","[""<svg viewBox=\""0 0 100 100\"" >"",""<path d=\""M 50 52 L 50 48\"" stroke=\""black\"" stroke-width=\"".5\""/>"","" <path d=\""M 52 50 L 48 50\"" stroke=\""black\"" stroke-width=\"".5\""/>"",""<circle cx=\""50\"" cy=\""50\"" r=\""10\"" fill=\""none\"" transform=\""translate(26 15)\"" stroke=\""yellow\"" />"",""<path d=\""M 50 57 L 50 43\"" stroke=\""black\"" transform=\""translate(26 15) rotate(45 50 50)\""/>"",""<circle cx=\""50\"" cy=\""50\"" r=\""10\"" fill=\""none\"" transform=\""translate(0 30)\"" stroke=\""cyan\"" />"",""<path d=\""M 50 57 L 50 43\"" stroke=\""black\"" transform=\""translate(0 30) rotate(-45 50 50)\""/>"",""<circle cx=\""50\"" cy=\""50\"" r=\""10\"" fill=\""none\"" transform=\""translate(-26 15)\"" stroke=\""magenta\"" />"",""<path d=\""M 50 57 L 50 43\"" stroke=\""black\"" transform=\""translate(-26 15) rotate(45 50 50)\""/>"",""<circle cx=\""50\"" cy=\""50\"" r=\""10\"" fill=\""none\"" transform=\""translate(-26 -15)\"" stroke=\""blue\"" />"",""<path d=\""M 50 57 L 50 43\"" stroke=\""black\"" transform=\""translate(-26 -15) rotate(45 50 50)\""/>"",""<circle cx=\""50\"" cy=\""50\"" r=\""10\"" fill=\""none\"" transform=\""translate(0 -30)\"" stroke=\""black\"" />"",""<path d=\""M 50 57 L 50 43\"" stroke=\""black\"" transform=\""translate(0 -30) rotate(-45 50 50)\""/>"",""<circle cx=\""50\"" cy=\""50\"" r=\""10\"" fill=\""none\"" transform=\""translate(26 -15)\"" stroke=\""lime\"" />"",""<path d=\""M 50 57 L 50 43\"" stroke=\""black\"" transform=\""translate(26 -15) rotate(0 50 50)\""/>"",""</svg>""]","m","VDACtest","g","5","v","true","low","","","",""
"","html-keyboard-response","122","1582203","0.0-3.0-2.25","4yv","[""r""]","","null","<p style=""font-size:300%;""> + 10 points.</p><p style=""font-size:300%"">Total: 126 points.</p>","null","","","","","","","126","","",""
"","html-keyboard-response","123","1583745","0.0-3.0-0.26","4yv","[""r""]","","null","<svg viewBox=""0 0 100 100"" > <path d=""M 50 52 L 50 48"" stroke=""black"" stroke-width="".5""/> <path d=""M 52 50 L 48 50"" stroke=""black"" stroke-width="".5""/>","null","","","","","","","","","",""
"","html-keyboard-response","124","1584596","0.0-3.0-1.26","4yv","[""r""]","","846.5999999046326","[""<svg viewBox=\""0 0 100 100\"" >"",""<path d=\""M 50 52 L 50 48\"" stroke=\""black\"" stroke-width=\"".5\""/>"","" <path d=\""M 52 50 L 48 50\"" stroke=\""black\"" stroke-width=\"".5\""/>"",""<circle cx=\""50\"" cy=\""50\"" r=\""10\"" fill=\""none\"" transform=\""translate(26 15)\"" stroke=\""cyan\"" />"",""<path d=\""M 50 57 L 50 43\"" stroke=\""black\"" transform=\""translate(26 15) rotate(45 50 50)\""/>"",""<circle cx=\""50\"" cy=\""50\"" r=\""10\"" fill=\""none\"" transform=\""translate(0 30)\"" stroke=\""yellow\"" />"",""<path d=\""M 50 57 L 50 43\"" stroke=\""black\"" transform=\""translate(0 30) rotate(-45 50 50)\""/>"",""<circle cx=\""50\"" cy=\""50\"" r=\""10\"" fill=\""none\"" transform=\""translate(-26 15)\"" stroke=\""magenta\"" />"",""<path d=\""M 50 57 L 50 43\"" stroke=\""black\"" transform=\""translate(-26 15) rotate(-45 50 50)\""/>"",""<circle cx=\""50\"" cy=\""50\"" r=\""10\"" fill=\""none\"" transform=\""translate(-26 -15)\"" stroke=\""lime\"" />"",""<path d=\""M 50 57 L 50 43\"" stroke=\""black\"" transform=\""translate(-26 -15) rotate(90 50 50)\""/>"",""<circle cx=\""50\"" cy=\""50\"" r=\""10\"" fill=\""none\"" transform=\""translate(0 -30)\"" stroke=\""blue\"" />"",""<path d=\""M 50 57 L 50 43\"" stroke=\""black\"" transform=\""translate(0 -30) rotate(-45 50 50)\""/>"",""<circle cx=\""50\"" cy=\""50\"" r=\""10\"" fill=\""none\"" transform=\""translate(26 -15)\"" stroke=\""black\"" />"",""<path d=\""M 50 57 L 50 43\"" stroke=\""black\"" transform=\""translate(26 -15) rotate(45 50 50)\""/>"",""</svg>""]","z","VDACtest","g","3","h","true","low","","","",""
"","html-keyboard-response","125","1587099","0.0-3.0-2.26","4yv","[""r""]","","null","<p style=""font-size:300%;""> + 2 points.</p><p style=""font-size:300%"">Total: 128 points.</p>","null","","","","","","","128","","",""
"","html-keyboard-response","126","1588642","0.0-3.0-0.27","4yv","[""r""]","","null","<svg viewBox=""0 0 100 100"" > <path d=""M 50 52 L 50 48"" stroke=""black"" stroke-width="".5""/> <path d=""M 52 50 L 48 50"" stroke=""black"" stroke-width="".5""/>","null","","","","","","","","","",""
"","html-keyboard-response","127","1589260","0.0-3.0-1.27","4yv","[""r""]","","614.7000002861023","[""<svg viewBox=\""0 0 100 100\"" >"",""<path d=\""M 50 52 L 50 48\"" stroke=\""black\"" stroke-width=\"".5\""/>"","" <path d=\""M 52 50 L 48 50\"" stroke=\""black\"" stroke-width=\"".5\""/>"",""<circle cx=\""50\"" cy=\""50\"" r=\""10\"" fill=\""none\"" transform=\""translate(26 15)\"" stroke=\""yellow\"" />"",""<path d=\""M 50 57 L 50 43\"" stroke=\""black\"" transform=\""translate(26 15) rotate(-45 50 50)\""/>"",""<circle cx=\""50\"" cy=\""50\"" r=\""10\"" fill=\""none\"" transform=\""translate(0 30)\"" stroke=\""black\"" />"",""<path d=\""M 50 57 L 50 43\"" stroke=\""black\"" transform=\""translate(0 30) rotate(45 50 50)\""/>"",""<circle cx=\""50\"" cy=\""50\"" r=\""10\"" fill=\""none\"" transform=\""translate(-26 15)\"" stroke=\""magenta\"" />"",""<path d=\""M 50 57 L 50 43\"" stroke=\""black\"" transform=\""translate(-26 15) rotate(45 50 50)\""/>"",""<circle cx=\""50\"" cy=\""50\"" r=\""10\"" fill=\""none\"" transform=\""translate(-26 -15)\"" stroke=\""red\"" />"",""<path d=\""M 50 57 L 50 43\"" stroke=\""black\"" transform=\""translate(-26 -15) rotate(0 50 50)\""/>"",""<circle cx=\""50\"" cy=\""50\"" r=\""10\"" fill=\""none\"" transform=\""translate(0 -30)\"" stroke=\""cyan\"" />"",""<path d=\""M 50 57 L 50 43\"" stroke=\""black\"" transform=\""translate(0 -30) rotate(-45 50 50)\""/>"",""<circle cx=\""50\"" cy=\""50\"" r=\""10\"" fill=\""none\"" transform=\""translate(26 -15)\"" stroke=\""blue\"" />"",""<path d=\""M 50 57 L 50 43\"" stroke=\""black\"" transform=\""translate(26 -15) rotate(-45 50 50)\""/>"",""</svg>""]","m","VDACtest","r","3","v","true","high","","","",""
"","html-keyboard-response","128","1591762","0.0-3.0-2.27","4yv","[""r""]","","null","<p style=""font-size:300%;""> + 10 points.</p><p style=""font-size:300%"">Total: 138 points.</p>","null","","","","","","","138","","",""
"","html-keyboard-response","129","1593305","0.0-3.0-0.28","4yv","[""r""]","","null","<svg viewBox=""0 0 100 100"" > <path d=""M 50 52 L 50 48"" stroke=""black"" stroke-width="".5""/> <path d=""M 52 50 L 48 50"" stroke=""black"" stroke-width="".5""/>","null","","","","","","","","","",""
"","html-keyboard-response","130","1593980","0.0-3.0-1.28","4yv","[""r""]","","671.4000000953674","[""<svg viewBox=\""0 0 100 100\"" >"",""<path d=\""M 50 52 L 50 48\"" stroke=\""black\"" stroke-width=\"".5\""/>"","" <path d=\""M 52 50 L 48 50\"" stroke=\""black\"" stroke-width=\"".5\""/>"",""<circle cx=\""50\"" cy=\""50\"" r=\""10\"" fill=\""none\"" transform=\""translate(26 15)\"" stroke=\""blue\"" />"",""<path d=\""M 50 57 L 50 43\"" stroke=\""black\"" transform=\""translate(26 15) rotate(45 50 50)\""/>"",""<circle cx=\""50\"" cy=\""50\"" r=\""10\"" fill=\""none\"" transform=\""translate(0 30)\"" stroke=\""yellow\"" />"",""<path d=\""M 50 57 L 50 43\"" stroke=\""black\"" transform=\""translate(0 30) rotate(-45 50 50)\""/>"",""<circle cx=\""50\"" cy=\""50\"" r=\""10\"" fill=\""none\"" transform=\""translate(-26 15)\"" stroke=\""red\"" />"",""<path d=\""M 50 57 L 50 43\"" stroke=\""black\"" transform=\""translate(-26 15) rotate(90 50 50)\""/>"",""<circle cx=\""50\"" cy=\""50\"" r=\""10\"" fill=\""none\"" transform=\""translate(-26 -15)\"" stroke=\""cyan\"" />"",""<path d=\""M 50 57 L 50 43\"" stroke=\""black\"" transform=\""translate(-26 -15) rotate(-45 50 50)\""/>"",""<circle cx=\""50\"" cy=\""50\"" r=\""10\"" fill=\""none\"" transform=\""translate(0 -30)\"" stroke=\""magenta\"" />"",""<path d=\""M 50 57 L 50 43\"" stroke=\""black\"" transform=\""translate(0 -30) rotate(45 50 50)\""/>"",""<circle cx=\""50\"" cy=\""50\"" r=\""10\"" fill=\""none\"" transform=\""translate(26 -15)\"" stroke=\""black\"" />"",""<path d=\""M 50 57 L 50 43\"" stroke=\""black\"" transform=\""translate(26 -15) rotate(45 50 50)\""/>"",""</svg>""]","z","VDACtest","r","2","h","true","high","","","",""
"","html-keyboard-response","131","1596482","0.0-3.0-2.28","4yv","[""r""]","","null","<p style=""font-size:300%;""> + 10 points.</p><p style=""font-size:300%"">Total: 148 points.</p>","null","","","","","","","148","","",""
"","html-keyboard-response","132","1598024","0.0-3.0-0.29","4yv","[""r""]","","null","<svg viewBox=""0 0 100 100"" > <path d=""M 50 52 L 50 48"" stroke=""black"" stroke-width="".5""/> <path d=""M 52 50 L 48 50"" stroke=""black"" stroke-width="".5""/>","null","","","","","","","","","",""
"","html-keyboard-response","133","1598771","0.0-3.0-1.29","4yv","[""r""]","","743","[""<svg viewBox=\""0 0 100 100\"" >"",""<path d=\""M 50 52 L 50 48\"" stroke=\""black\"" stroke-width=\"".5\""/>"","" <path d=\""M 52 50 L 48 50\"" stroke=\""black\"" stroke-width=\"".5\""/>"",""<circle cx=\""50\"" cy=\""50\"" r=\""10\"" fill=\""none\"" transform=\""translate(26 15)\"" stroke=\""lime\"" />"",""<path d=\""M 50 57 L 50 43\"" stroke=\""black\"" transform=\""translate(26 15) rotate(90 50 50)\""/>"",""<circle cx=\""50\"" cy=\""50\"" r=\""10\"" fill=\""none\"" transform=\""translate(0 30)\"" stroke=\""blue\"" />"",""<path d=\""M 50 57 L 50 43\"" stroke=\""black\"" transform=\""translate(0 30) rotate(45 50 50)\""/>"",""<circle cx=\""50\"" cy=\""50\"" r=\""10\"" fill=\""none\"" transform=\""translate(-26 15)\"" stroke=\""magenta\"" />"",""<path d=\""M 50 57 L 50 43\"" stroke=\""black\"" transform=\""translate(-26 15) rotate(-45 50 50)\""/>"",""<circle cx=\""50\"" cy=\""50\"" r=\""10\"" fill=\""none\"" transform=\""translate(-26 -15)\"" stroke=\""cyan\"" />"",""<path d=\""M 50 57 L 50 43\"" stroke=\""black\"" transform=\""translate(-26 -15) rotate(-45 50 50)\""/>"",""<circle cx=\""50\"" cy=\""50\"" r=\""10\"" fill=\""none\"" transform=\""translate(0 -30)\"" stroke=\""black\"" />"",""<path d=\""M 50 57 L 50 43\"" stroke=\""black\"" transform=\""translate(0 -30) rotate(45 50 50)\""/>"",""<circle cx=\""50\"" cy=\""50\"" r=\""10\"" fill=\""none\"" transform=\""translate(26 -15)\"" stroke=\""yellow\"" />"",""<path d=\""M 50 57 L 50 43\"" stroke=\""black\"" transform=\""translate(26 -15) rotate(45 50 50)\""/>"",""</svg>""]","z","VDACtest","g","0","h","true","low","","","",""
"","html-keyboard-response","134","1601274","0.0-3.0-2.29","4yv","[""r""]","","null","<p style=""font-size:300%;""> + 2 points.</p><p style=""font-size:300%"">Total: 150 points.</p>","null","","","","","","","150","","",""
"","html-keyboard-response","135","1602817","0.0-3.0-0.30","4yv","[""r""]","","null","<svg viewBox=""0 0 100 100"" > <path d=""M 50 52 L 50 48"" stroke=""black"" stroke-width="".5""/> <path d=""M 52 50 L 48 50"" stroke=""black"" stroke-width="".5""/>","null","","","","","","","","","",""
"","html-keyboard-response","136","1603515","0.0-3.0-1.30","4yv","[""r""]","","694.9000000953674","[""<svg viewBox=\""0 0 100 100\"" >"",""<path d=\""M 50 52 L 50 48\"" stroke=\""black\"" stroke-width=\"".5\""/>"","" <path d=\""M 52 50 L 48 50\"" stroke=\""black\"" stroke-width=\"".5\""/>"",""<circle cx=\""50\"" cy=\""50\"" r=\""10\"" fill=\""none\"" transform=\""translate(26 15)\"" stroke=\""red\"" />"",""<path d=\""M 50 57 L 50 43\"" stroke=\""black\"" transform=\""translate(26 15) rotate(90 50 50)\""/>"",""<circle cx=\""50\"" cy=\""50\"" r=\""10\"" fill=\""none\"" transform=\""translate(0 30)\"" stroke=\""cyan\"" />"",""<path d=\""M 50 57 L 50 43\"" stroke=\""black\"" transform=\""translate(0 30) rotate(45 50 50)\""/>"",""<circle cx=\""50\"" cy=\""50\"" r=\""10\"" fill=\""none\"" transform=\""translate(-26 15)\"" stroke=\""magenta\"" />"",""<path d=\""M 50 57 L 50 43\"" stroke=\""black\"" transform=\""translate(-26 15) rotate(-45 50 50)\""/>"",""<circle cx=\""50\"" cy=\""50\"" r=\""10\"" fill=\""none\"" transform=\""translate(-26 -15)\"" stroke=\""yellow\"" />"",""<path d=\""M 50 57 L 50 43\"" stroke=\""black\"" transform=\""translate(-26 -15) rotate(45 50 50)\""/>"",""<circle cx=\""50\"" cy=\""50\"" r=\""10\"" fill=\""none\"" transform=\""translate(0 -30)\"" stroke=\""black\"" />"",""<path d=\""M 50 57 L 50 43\"" stroke=\""black\"" transform=\""translate(0 -30) rotate(45 50 50)\""/>"",""<circle cx=\""50\"" cy=\""50\"" r=\""10\"" fill=\""none\"" transform=\""translate(26 -15)\"" stroke=\""blue\"" />"",""<path d=\""M 50 57 L 50 43\"" stroke=\""black\"" transform=\""translate(26 -15) rotate(-45 50 50)\""/>"",""</svg>""]","z","VDACtest","r","0","h","true","high","","","",""
"","html-keyboard-response","137","1606018","0.0-3.0-2.30","4yv","[""r""]","","null","<p style=""font-size:300%;""> + 10 points.</p><p style=""font-size:300%"">Total: 160 points.</p>","null","","","","","","","160","","",""
"","html-keyboard-response","138","1607561","0.0-3.0-0.31","4yv","[""r""]","","null","<svg viewBox=""0 0 100 100"" > <path d=""M 50 52 L 50 48"" stroke=""black"" stroke-width="".5""/> <path d=""M 52 50 L 48 50"" stroke=""black"" stroke-width="".5""/>","null","","","","","","","","","",""
"","html-keyboard-response","139","1608196","0.0-3.0-1.31","4yv","[""r""]","","630.7999997138977","[""<svg viewBox=\""0 0 100 100\"" >"",""<path d=\""M 50 52 L 50 48\"" stroke=\""black\"" stroke-width=\"".5\""/>"","" <path d=\""M 52 50 L 48 50\"" stroke=\""black\"" stroke-width=\"".5\""/>"",""<circle cx=\""50\"" cy=\""50\"" r=\""10\"" fill=\""none\"" transform=\""translate(26 15)\"" stroke=\""black\"" />"",""<path d=\""M 50 57 L 50 43\"" stroke=\""black\"" transform=\""translate(26 15) rotate(45 50 50)\""/>"",""<circle cx=\""50\"" cy=\""50\"" r=\""10\"" fill=\""none\"" transform=\""translate(0 30)\"" stroke=\""blue\"" />"",""<path d=\""M 50 57 L 50 43\"" stroke=\""black\"" transform=\""translate(0 30) rotate(-45 50 50)\""/>"",""<circle cx=\""50\"" cy=\""50\"" r=\""10\"" fill=\""none\"" transform=\""translate(-26 15)\"" stroke=\""yellow\"" />"",""<path d=\""M 50 57 L 50 43\"" stroke=\""black\"" transform=\""translate(-26 15) rotate(-45 50 50)\""/>"",""<circle cx=\""50\"" cy=\""50\"" r=\""10\"" fill=\""none\"" transform=\""translate(-26 -15)\"" stroke=\""cyan\"" />"",""<path d=\""M 50 57 L 50 43\"" stroke=\""black\"" transform=\""translate(-26 -15) rotate(-45 50 50)\""/>"",""<circle cx=\""50\"" cy=\""50\"" r=\""10\"" fill=\""none\"" transform=\""translate(0 -30)\"" stroke=\""red\"" />"",""<path d=\""M 50 57 L 50 43\"" stroke=\""black\"" transform=\""translate(0 -30) rotate(0 50 50)\""/>"",""<circle cx=\""50\"" cy=\""50\"" r=\""10\"" fill=\""none\"" transform=\""translate(26 -15)\"" stroke=\""magenta\"" />"",""<path d=\""M 50 57 L 50 43\"" stroke=\""black\"" transform=\""translate(26 -15) rotate(45 50 50)\""/>"",""</svg>""]","m","VDACtest","r","4","v","true","high","","","",""
"","html-keyboard-response","140","1610697","0.0-3.0-2.31","4yv","[""r""]","","null","<p style=""font-size:300%;""> + 2 points.</p><p style=""font-size:300%"">Total: 162 points.</p>","null","","","","","","","162","","",""
"","html-keyboard-response","141","1612240","0.0-3.0-0.32","4yv","[""r""]","","null","<svg viewBox=""0 0 100 100"" > <path d=""M 50 52 L 50 48"" stroke=""black"" stroke-width="".5""/> <path d=""M 52 50 L 48 50"" stroke=""black"" stroke-width="".5""/>","null","","","","","","","","","",""
"","html-keyboard-response","142","1613163","0.0-3.0-1.32","4yv","[""r""]","","919.5","[""<svg viewBox=\""0 0 100 100\"" >"",""<path d=\""M 50 52 L 50 48\"" stroke=\""black\"" stroke-width=\"".5\""/>"","" <path d=\""M 52 50 L 48 50\"" stroke=\""black\"" stroke-width=\"".5\""/>"",""<circle cx=\""50\"" cy=\""50\"" r=\""10\"" fill=\""none\"" transform=\""translate(26 15)\"" stroke=\""yellow\"" />"",""<path d=\""M 50 57 L 50 43\"" stroke=\""black\"" transform=\""translate(26 15) rotate(-45 50 50)\""/>"",""<circle cx=\""50\"" cy=\""50\"" r=\""10\"" fill=\""none\"" transform=\""translate(0 30)\"" stroke=\""blue\"" />"",""<path d=\""M 50 57 L 50 43\"" stroke=\""black\"" transform=\""translate(0 30) rotate(-45 50 50)\""/>"",""<circle cx=\""50\"" cy=\""50\"" r=\""10\"" fill=\""none\"" transform=\""translate(-26 15)\"" stroke=\""lime\"" />"",""<path d=\""M 50 57 L 50 43\"" stroke=\""black\"" transform=\""translate(-26 15) rotate(0 50 50)\""/>"",""<circle cx=\""50\"" cy=\""50\"" r=\""10\"" fill=\""none\"" transform=\""translate(-26 -15)\"" stroke=\""magenta\"" />"",""<path d=\""M 50 57 L 50 43\"" stroke=\""black\"" transform=\""translate(-26 -15) rotate(45 50 50)\""/>"",""<circle cx=\""50\"" cy=\""50\"" r=\""10\"" fill=\""none\"" transform=\""translate(0 -30)\"" stroke=\""black\"" />"",""<path d=\""M 50 57 L 50 43\"" stroke=\""black\"" transform=\""translate(0 -30) rotate(-45 50 50)\""/>"",""<circle cx=\""50\"" cy=\""50\"" r=\""10\"" fill=\""none\"" transform=\""translate(26 -15)\"" stroke=\""cyan\"" />"",""<path d=\""M 50 57 L 50 43\"" stroke=\""black\"" transform=\""translate(26 -15) rotate(-45 50 50)\""/>"",""</svg>""]","m","VDACtest","g","2","v","true","low","","","",""
