SubNum,SubNum_demo,Exp_start_time,Exp_today_date,Exp_today_time,TrialNum,Condition,Face,Name,Response,NameAcc,RespTime,StudyTrialNum,StudyFace,StudyContext,StudyFamCond,TestTrialNum,TestFace,TestContext,TestSDCond,TestFamCond,TestResponse,TestResponseTime,Exp_end_time,Distractor_1_duration,Distractor_2_duration,
nwq1g4n8o4,q3g43y1652,Sun Oct 18 2020 22:24:56 GMT-0500 (Central Daylight Time),2020-10-18,22:24:56,1,Know,18,LISA,LISA,true,7035.900000017136,1,23,13,2,1,20,27,1,1,0,2448.3450000113808,22:59:44,122612.5400000019,63768.07999998005,
nwq1g4n8o4,undefined,undefined,undefined,undefined,2,Know,16,JENNIFER,JENNIFER,true,3994.5500000030734,2,5,6,1,2,3,34,1,2,1,1190.0600000228733,undefined,undefined,undefined,
nwq1g4n8o4,undefined,undefined,undefined,undefined,3,Familiar,4,NA,NA,NA,NA,3,32,19,2,3,11,9,0,0,0,1419.9049999881536,undefined,undefined,undefined,
nwq1g4n8o4,undefined,undefined,undefined,undefined,4,Familiar,11,NA,NA,NA,NA,4,17,28,0,4,35,4,1,1,1,3762.729999987874,undefined,undefined,undefined,
nwq1g4n8o4,undefined,undefined,undefined,undefined,5,Know,7,KAREN,KAREN,true,2666.8299999728333,5,10,36,2,5,12,17,1,0,0,2125.6200000056997,undefined,undefined,undefined,
nwq1g4n8o4,undefined,undefined,undefined,undefined,6,Familiar,17,NA,NA,NA,NA,6,27,11,2,6,29,2,1,0,0,2248.070000001695,undefined,undefined,undefined,
nwq1g4n8o4,undefined,undefined,undefined,undefined,7,Know,33,EMILY,EMILY,true,2537.6849999884143,7,36,22,1,7,1,5,0,0,0,9523.509999998845,undefined,undefined,undefined,
nwq1g4n8o4,undefined,undefined,undefined,undefined,8,Know,36,BETTY,BETTY,true,2657.779999979539,8,12,2,0,8,34,25,1,0,1,2162.2450000140816,undefined,undefined,undefined,
nwq1g4n8o4,undefined,undefined,undefined,undefined,9,Familiar,19,NA,NA,NA,NA,9,18,3,1,9,17,28,0,0,0,1278.35999999661,undefined,undefined,undefined,
nwq1g4n8o4,undefined,undefined,undefined,undefined,10,Know,15,NICOLE,NICOLE,true,3179.3450000113808,10,9,30,2,10,21,21,0,2,0,1788.424999977462,undefined,undefined,undefined,
nwq1g4n8o4,undefined,undefined,undefined,undefined,11,Familiar,6,NA,NA,NA,NA,11,20,4,1,11,31,1,1,1,1,1506.0100000118837,undefined,undefined,undefined,
nwq1g4n8o4,undefined,undefined,undefined,undefined,12,Familiar,1,NA,NA,NA,NA,12,26,1,1,12,13,35,1,2,0,5175.355000014417,undefined,undefined,undefined,
nwq1g4n8o4,undefined,undefined,undefined,undefined,13,Know,35,BRITTANY,BRITTANY,true,3284.9500000011176,13,2,15,2,13,10,15,1,2,1,1380.730000004638,undefined,undefined,undefined,
nwq1g4n8o4,undefined,undefined,undefined,undefined,14,Familiar,12,NA,NA,NA,NA,14,1,5,0,14,24,18,1,0,1,1121.265000023879,undefined,undefined,undefined,
nwq1g4n8o4,undefined,undefined,undefined,undefined,15,Know,26,SARAH,SARAH,true,8337.575000012293,15,8,31,2,15,6,16,0,0,1,1893.2700000004843,undefined,undefined,undefined,
nwq1g4n8o4,undefined,undefined,undefined,undefined,16,Familiar,22,NA,NA,NA,NA,16,22,8,0,16,9,30,0,2,0,1850.4949999917299,undefined,undefined,undefined,
nwq1g4n8o4,undefined,undefined,undefined,undefined,17,Know,20,BRIANNA,BRIANNA,true,3480.004999990342,17,29,17,0,17,22,33,1,0,0,1534.5249999952503,undefined,undefined,undefined,
nwq1g4n8o4,undefined,undefined,undefined,undefined,18,Know,30,ASHLEY,ASHLEY,true,2427.7449999935925,18,15,29,1,18,28,12,0,2,1,1428.6049999934621,undefined,undefined,undefined,
nwq1g4n8o4,undefined,undefined,undefined,undefined,19,Familiar,25,NA,NA,NA,NA,19,35,27,1,19,33,32,0,1,0,1213.8249999843538,undefined,undefined,undefined,
nwq1g4n8o4,undefined,undefined,undefined,undefined,20,Familiar,34,NA,NA,NA,NA,20,14,24,2,20,26,23,1,1,0,1489.180000003893,undefined,undefined,undefined,
nwq1g4n8o4,undefined,undefined,undefined,undefined,21,Know,31,MEGAN,MEGAN,true,1861.124999995809,21,25,33,0,21,32,19,0,2,0,1372.975000005681,undefined,undefined,undefined,
nwq1g4n8o4,undefined,undefined,undefined,undefined,22,Know,5,AMANDA,AMANDA,true,2251.300000003539,22,6,16,0,22,15,29,0,1,0,2250.949999986682,undefined,undefined,undefined,
nwq1g4n8o4,undefined,undefined,undefined,undefined,23,Familiar,29,NA,NA,NA,NA,23,33,32,1,23,5,7,1,1,0,2250.575000012759,undefined,undefined,undefined,
nwq1g4n8o4,undefined,undefined,undefined,undefined,24,Familiar,24,NA,NA,NA,NA,24,13,34,2,24,2,36,1,2,1,2343.805000011809,undefined,undefined,undefined,
nwq1g4n8o4,undefined,undefined,undefined,undefined,25,Know,26,SARAH,SARAH,true,6518.809999979567,25,3,35,2,25,30,6,1,1,0,3566.2650000015274,undefined,undefined,undefined,
nwq1g4n8o4,undefined,undefined,undefined,undefined,26,Know,30,ASHLEY,BRITANNY,false,8523.740000004182,26,7,20,1,26,19,10,0,0,1,2667.2950000208803,undefined,undefined,undefined,
nwq1g4n8o4,undefined,undefined,undefined,undefined,27,Familiar,34,NA,NA,NA,NA,27,19,10,0,27,18,3,0,1,0,2004.1500000222586,undefined,undefined,undefined,
nwq1g4n8o4,undefined,undefined,undefined,undefined,28,Familiar,19,NA,NA,NA,NA,28,21,21,2,28,7,20,0,1,1,1476.7250000149943,undefined,undefined,undefined,
nwq1g4n8o4,undefined,undefined,undefined,undefined,29,Know,15,NICOLE,KAREN,false,4171.380000014324,29,34,18,0,29,25,8,1,0,0,1571.1249999874271,undefined,undefined,undefined,
nwq1g4n8o4,undefined,undefined,undefined,undefined,30,Know,16,JENNIFER,SARAH,false,12403.775000013411,30,16,26,1,30,16,26,0,1,0,1092.0250000199303,undefined,undefined,undefined,
nwq1g4n8o4,undefined,undefined,undefined,undefined,31,Familiar,22,NA,NA,NA,NA,31,11,9,0,31,8,13,1,2,0,2212.5050000036135,undefined,undefined,undefined,
nwq1g4n8o4,undefined,undefined,undefined,undefined,32,Know,36,BETTY,BETTY,true,4675.475000025472,32,4,14,0,32,36,22,0,1,0,1912.2599999830127,undefined,undefined,undefined,
nwq1g4n8o4,undefined,undefined,undefined,undefined,33,Know,31,MEGAN,ASHLEY,false,5989.899999985937,33,30,7,1,33,14,24,0,2,1,2405.999999987893,undefined,undefined,undefined,
nwq1g4n8o4,undefined,undefined,undefined,undefined,34,Familiar,29,NA,NA,NA,NA,34,24,25,0,34,23,31,1,2,0,2068.759999994654,undefined,undefined,undefined,
nwq1g4n8o4,undefined,undefined,undefined,undefined,35,Know,33,EMILY,JENNIFER,false,12438.824999990175,35,28,12,2,35,4,14,0,0,1,1434.1950000091456,undefined,undefined,undefined,
nwq1g4n8o4,undefined,undefined,undefined,undefined,36,Familiar,4,NA,NA,NA,NA,36,31,23,1,36,27,11,0,2,1,1422.954999987036,undefined,undefined,undefined,
nwq1g4n8o4,undefined,undefined,undefined,undefined,37,Know,7,KAREN,NICOLE,false,9945.91500001843,37,32,19,2,undefined,undefined,undefined,undefined,undefined,undefined,undefined,undefined,undefined,undefined,
nwq1g4n8o4,undefined,undefined,undefined,undefined,38,Familiar,24,NA,NA,NA,NA,38,13,34,2,undefined,undefined,undefined,undefined,undefined,undefined,undefined,undefined,undefined,undefined,
nwq1g4n8o4,undefined,undefined,undefined,undefined,39,Familiar,12,NA,NA,NA,NA,39,1,5,0,undefined,undefined,undefined,undefined,undefined,undefined,undefined,undefined,undefined,undefined,
nwq1g4n8o4,undefined,undefined,undefined,undefined,40,Know,35,BRITTANY,ASHLEY,false,6794.7550000099,40,23,13,2,undefined,undefined,undefined,undefined,undefined,undefined,undefined,undefined,undefined,undefined,
nwq1g4n8o4,undefined,undefined,undefined,undefined,41,Familiar,1,NA,NA,NA,NA,41,10,36,2,undefined,undefined,undefined,undefined,undefined,undefined,undefined,undefined,undefined,undefined,
nwq1g4n8o4,undefined,undefined,undefined,undefined,42,Familiar,6,NA,NA,NA,NA,42,29,17,0,undefined,undefined,undefined,undefined,undefined,undefined,undefined,undefined,undefined,undefined,
nwq1g4n8o4,undefined,undefined,undefined,undefined,43,Know,20,BRIANNA,MEGAN,false,12144.15999999619,43,20,4,1,undefined,undefined,undefined,undefined,undefined,undefined,undefined,undefined,undefined,undefined,
nwq1g4n8o4,undefined,undefined,undefined,undefined,44,Familiar,11,NA,NA,NA,NA,44,21,21,2,undefined,undefined,undefined,undefined,undefined,undefined,undefined,undefined,undefined,undefined,
nwq1g4n8o4,undefined,undefined,undefined,undefined,45,Familiar,17,NA,NA,NA,NA,45,19,10,0,undefined,undefined,undefined,undefined,undefined,undefined,undefined,undefined,undefined,undefined,
nwq1g4n8o4,undefined,undefined,undefined,undefined,46,Know,18,LISA,BRIANNA,false,8524.540000013076,46,24,25,0,undefined,undefined,undefined,undefined,undefined,undefined,undefined,undefined,undefined,undefined,
nwq1g4n8o4,undefined,undefined,undefined,undefined,47,Familiar,25,NA,NA,NA,NA,47,36,22,1,undefined,undefined,undefined,undefined,undefined,undefined,undefined,undefined,undefined,undefined,
nwq1g4n8o4,undefined,undefined,undefined,undefined,48,Know,5,AMANDA,ASHLEY,false,9901.14000000176,48,4,14,0,undefined,undefined,undefined,undefined,undefined,undefined,undefined,undefined,undefined,undefined,
nwq1g4n8o4,undefined,undefined,undefined,undefined,49,Familiar,22,NA,NA,NA,NA,49,5,6,1,undefined,undefined,undefined,undefined,undefined,undefined,undefined,undefined,undefined,undefined,
nwq1g4n8o4,undefined,undefined,undefined,undefined,50,Familiar,1,NA,NA,NA,NA,50,27,11,2,undefined,undefined,undefined,undefined,undefined,undefined,undefined,undefined,undefined,undefined,
nwq1g4n8o4,undefined,undefined,undefined,undefined,51,Know,20,BRIANNA,BRIANNA,true,7745.49499998102,51,17,28,0,undefined,undefined,undefined,undefined,undefined,undefined,undefined,undefined,undefined,undefined,
nwq1g4n8o4,undefined,undefined,undefined,undefined,52,Know,5,AMANDA,EMILY,false,7273.57999997912,52,34,18,0,undefined,undefined,undefined,undefined,undefined,undefined,undefined,undefined,undefined,undefined,
nwq1g4n8o4,undefined,undefined,undefined,undefined,53,Familiar,25,NA,NA,NA,NA,53,8,31,2,undefined,undefined,undefined,undefined,undefined,undefined,undefined,undefined,undefined,undefined,
nwq1g4n8o4,undefined,undefined,undefined,undefined,54,Know,30,ASHLEY,SARAH,false,7720.389999973122,54,14,24,2,undefined,undefined,undefined,undefined,undefined,undefined,undefined,undefined,undefined,undefined,
nwq1g4n8o4,undefined,undefined,undefined,undefined,55,Familiar,34,NA,NA,NA,NA,55,15,29,1,undefined,undefined,undefined,undefined,undefined,undefined,undefined,undefined,undefined,undefined,
nwq1g4n8o4,undefined,undefined,undefined,undefined,56,Know,26,SARAH,MEGAN,false,5142.649999994319,56,35,27,1,undefined,undefined,undefined,undefined,undefined,undefined,undefined,undefined,undefined,undefined,
nwq1g4n8o4,undefined,undefined,undefined,undefined,57,Know,16,JENNIFER,BRIANNA,false,4410.584999975981,57,12,2,0,undefined,undefined,undefined,undefined,undefined,undefined,undefined,undefined,undefined,undefined,
nwq1g4n8o4,undefined,undefined,undefined,undefined,58,Familiar,6,NA,NA,NA,NA,58,26,1,1,undefined,undefined,undefined,undefined,undefined,undefined,undefined,undefined,undefined,undefined,
nwq1g4n8o4,undefined,undefined,undefined,undefined,59,Familiar,17,NA,NA,NA,NA,59,2,15,2,undefined,undefined,undefined,undefined,undefined,undefined,undefined,undefined,undefined,undefined,
nwq1g4n8o4,undefined,undefined,undefined,undefined,60,Know,33,EMILY,JENNIFER,false,16627.26500001736,60,22,8,0,undefined,undefined,undefined,undefined,undefined,undefined,undefined,undefined,undefined,undefined,
nwq1g4n8o4,undefined,undefined,undefined,undefined,61,Familiar,4,NA,NA,NA,NA,61,30,7,1,undefined,undefined,undefined,undefined,undefined,undefined,undefined,undefined,undefined,undefined,
nwq1g4n8o4,undefined,undefined,undefined,undefined,62,Know,31,MEGAN,SARAH,false,15157.059999997728,62,11,9,0,undefined,undefined,undefined,undefined,undefined,undefined,undefined,undefined,undefined,undefined,
nwq1g4n8o4,undefined,undefined,undefined,undefined,63,Familiar,11,NA,NA,NA,NA,63,16,26,1,undefined,undefined,undefined,undefined,undefined,undefined,undefined,undefined,undefined,undefined,
nwq1g4n8o4,undefined,undefined,undefined,undefined,64,Know,18,LISA,AMANDA,false,12458.845000015572,64,25,33,0,undefined,undefined,undefined,undefined,undefined,undefined,undefined,undefined,undefined,undefined,
nwq1g4n8o4,undefined,undefined,undefined,undefined,65,Know,7,KAREN,EMILY,false,15717.135000013513,65,6,16,0,undefined,undefined,undefined,undefined,undefined,undefined,undefined,undefined,undefined,undefined,
nwq1g4n8o4,undefined,undefined,undefined,undefined,66,Familiar,24,NA,NA,NA,NA,66,31,23,1,undefined,undefined,undefined,undefined,undefined,undefined,undefined,undefined,undefined,undefined,
nwq1g4n8o4,undefined,undefined,undefined,undefined,67,Know,35,BRITTANY,ASHLEY,false,15352.194999984931,67,18,3,1,undefined,undefined,undefined,undefined,undefined,undefined,undefined,undefined,undefined,undefined,
nwq1g4n8o4,undefined,undefined,undefined,undefined,68,Familiar,29,NA,NA,NA,NA,68,3,35,2,undefined,undefined,undefined,undefined,undefined,undefined,undefined,undefined,undefined,undefined,
nwq1g4n8o4,undefined,undefined,undefined,undefined,69,Know,15,NICOLE,NICOLE,true,6451.065000001108,69,9,30,2,undefined,undefined,undefined,undefined,undefined,undefined,undefined,undefined,undefined,undefined,
nwq1g4n8o4,undefined,undefined,undefined,undefined,70,Know,36,BETTY,BETTY,true,10021.670000016456,70,33,32,1,undefined,undefined,undefined,undefined,undefined,undefined,undefined,undefined,undefined,undefined,
nwq1g4n8o4,undefined,undefined,undefined,undefined,71,Familiar,12,NA,NA,NA,NA,71,28,12,2,undefined,undefined,undefined,undefined,undefined,undefined,undefined,undefined,undefined,undefined,
nwq1g4n8o4,undefined,undefined,undefined,undefined,72,Familiar,19,NA,NA,NA,NA,72,7,20,1,undefined,undefined,undefined,undefined,undefined,undefined,undefined,undefined,undefined,undefined,
nwq1g4n8o4,undefined,undefined,undefined,undefined,73,Know,7,KAREN,KAREN,true,5883.269999991171,undefined,undefined,undefined,undefined,undefined,undefined,undefined,undefined,undefined,undefined,undefined,undefined,undefined,undefined,
nwq1g4n8o4,undefined,undefined,undefined,undefined,74,Know,5,AMANDA,LISA,false,5418.239999999059,undefined,undefined,undefined,undefined,undefined,undefined,undefined,undefined,undefined,undefined,undefined,undefined,undefined,undefined,
nwq1g4n8o4,undefined,undefined,undefined,undefined,75,Familiar,4,NA,NA,NA,NA,undefined,undefined,undefined,undefined,undefined,undefined,undefined,undefined,undefined,undefined,undefined,undefined,undefined,undefined,
nwq1g4n8o4,undefined,undefined,undefined,undefined,76,Familiar,24,NA,NA,NA,NA,undefined,undefined,undefined,undefined,undefined,undefined,undefined,undefined,undefined,undefined,undefined,undefined,undefined,undefined,
nwq1g4n8o4,undefined,undefined,undefined,undefined,77,Know,16,JENNIFER,JENNIFER,true,11115.235000004759,undefined,undefined,undefined,undefined,undefined,undefined,undefined,undefined,undefined,undefined,undefined,undefined,undefined,undefined,
nwq1g4n8o4,undefined,undefined,undefined,undefined,78,Know,31,MEGAN,MEGAN,true,13217.149999982212,undefined,undefined,undefined,undefined,undefined,undefined,undefined,undefined,undefined,undefined,undefined,undefined,undefined,undefined,
nwq1g4n8o4,undefined,undefined,undefined,undefined,79,Familiar,17,NA,NA,NA,NA,undefined,undefined,undefined,undefined,undefined,undefined,undefined,undefined,undefined,undefined,undefined,undefined,undefined,undefined,
nwq1g4n8o4,undefined,undefined,undefined,undefined,80,Familiar,1,NA,NA,NA,NA,undefined,undefined,undefined,undefined,undefined,undefined,undefined,undefined,undefined,undefined,undefined,undefined,undefined,undefined,
nwq1g4n8o4,undefined,undefined,undefined,undefined,81,Know,35,BRITTANY,EMILY,false,5667.870000004768,undefined,undefined,undefined,undefined,undefined,undefined,undefined,undefined,undefined,undefined,undefined,undefined,undefined,undefined,
nwq1g4n8o4,undefined,undefined,undefined,undefined,82,Know,20,BRIANNA,SARAH,false,6183.339999988675,undefined,undefined,undefined,undefined,undefined,undefined,undefined,undefined,undefined,undefined,undefined,undefined,undefined,undefined,
nwq1g4n8o4,undefined,undefined,undefined,undefined,83,Familiar,29,NA,NA,NA,NA,undefined,undefined,undefined,undefined,undefined,undefined,undefined,undefined,undefined,undefined,undefined,undefined,undefined,undefined,
nwq1g4n8o4,undefined,undefined,undefined,undefined,84,Know,15,NICOLE,NICOLE,true,10099.474999995437,undefined,undefined,undefined,undefined,undefined,undefined,undefined,undefined,undefined,undefined,undefined,undefined,undefined,undefined,
nwq1g4n8o4,undefined,undefined,undefined,undefined,85,Know,30,ASHLEY,ASHLEY,true,6491.864999989048,undefined,undefined,undefined,undefined,undefined,undefined,undefined,undefined,undefined,undefined,undefined,undefined,undefined,undefined,
nwq1g4n8o4,undefined,undefined,undefined,undefined,86,Familiar,6,NA,NA,NA,NA,undefined,undefined,undefined,undefined,undefined,undefined,undefined,undefined,undefined,undefined,undefined,undefined,undefined,undefined,
nwq1g4n8o4,undefined,undefined,undefined,undefined,87,Familiar,22,NA,NA,NA,NA,undefined,undefined,undefined,undefined,undefined,undefined,undefined,undefined,undefined,undefined,undefined,undefined,undefined,undefined,
nwq1g4n8o4,undefined,undefined,undefined,undefined,88,Know,18,LISA,LISA,true,4697.8800000215415,undefined,undefined,undefined,undefined,undefined,undefined,undefined,undefined,undefined,undefined,undefined,undefined,undefined,undefined,
nwq1g4n8o4,undefined,undefined,undefined,undefined,89,Familiar,12,NA,NA,NA,NA,undefined,undefined,undefined,undefined,undefined,undefined,undefined,undefined,undefined,undefined,undefined,undefined,undefined,undefined,
nwq1g4n8o4,undefined,undefined,undefined,undefined,90,Know,36,BETTY,BETTY,true,4547.794999991311,undefined,undefined,undefined,undefined,undefined,undefined,undefined,undefined,undefined,undefined,undefined,undefined,undefined,undefined,
nwq1g4n8o4,undefined,undefined,undefined,undefined,91,Familiar,25,NA,NA,NA,NA,undefined,undefined,undefined,undefined,undefined,undefined,undefined,undefined,undefined,undefined,undefined,undefined,undefined,undefined,
nwq1g4n8o4,undefined,undefined,undefined,undefined,92,Familiar,19,NA,NA,NA,NA,undefined,undefined,undefined,undefined,undefined,undefined,undefined,undefined,undefined,undefined,undefined,undefined,undefined,undefined,
nwq1g4n8o4,undefined,undefined,undefined,undefined,93,Know,33,EMILY,SARAH,false,14659.099999989849,undefined,undefined,undefined,undefined,undefined,undefined,undefined,undefined,undefined,undefined,undefined,undefined,undefined,undefined,
nwq1g4n8o4,undefined,undefined,undefined,undefined,94,Familiar,34,NA,NA,NA,NA,undefined,undefined,undefined,undefined,undefined,undefined,undefined,undefined,undefined,undefined,undefined,undefined,undefined,undefined,
nwq1g4n8o4,undefined,undefined,undefined,undefined,95,Familiar,11,NA,NA,NA,NA,undefined,undefined,undefined,undefined,undefined,undefined,undefined,undefined,undefined,undefined,undefined,undefined,undefined,undefined,
nwq1g4n8o4,undefined,undefined,undefined,undefined,96,Know,26,SARAH,MEGAN,false,7875.005000008969,undefined,undefined,undefined,undefined,undefined,undefined,undefined,undefined,undefined,undefined,undefined,undefined,undefined,undefined,
