SubNum,SubNum_demo,Exp_start_time,Exp_today_date,Exp_today_time,TrialNum,FaceID,FaceImg,Name,Response,NameAcc,RespTime,StudyTrialNum,StudyFaceID,StudyFaceImg,StudyFamCond,StudyTime,TestTrialNum,TestFaceID,TestFaceImg,TestFamCond,TestStatusCond,TestResponse,TestResponseTime,Exp_end_time,Distractor_1_duration,Distractor_1_numT,Distractor_1_acc,Distractor_2_duration,Distractor_2_numT,Distractor_2_acc,StudyButtonRespTime,StudyButtonRespTime_mean,q1,q2,q3,
alhtq0zm9z,1aq8cg8fgr,Tue Jan 05 2021 14:43:15 GMT+0100 (Central European Standard Time),2021-1-5,14:43:15,1,37,6,JANE,JANE,true,4072,1,7,8,0,4000,1,23,7,1,0,3,8098,15:17:7,145150,23,83,116870,23,65,2401,2534.75,No,,The study took pretty long and my motivation to pay attention really dropped after the first round of remembering the faces.,
alhtq0zm9z,undefined,undefined,undefined,undefined,2,2,6,ALLEN,ALLEN,true,4049,2,2,8,1,4000,2,8,7,1,1,2,5269,undefined,150370,12,58,121691,undefined,undefined,4624,undefined,undefined,undefined,undefined,
alhtq0zm9z,undefined,undefined,undefined,undefined,3,35,6,LORY,LORY,true,3563,3,4,8,1,4000,3,4,7,1,0,5,4121,undefined,299506,undefined,undefined,undefined,undefined,undefined,1243,undefined,undefined,undefined,undefined,
alhtq0zm9z,undefined,undefined,undefined,undefined,4,8,6,NICK,NICK,true,2387,4,25,8,0,4000,4,26,7,0,1,1,3702,undefined,121198,undefined,undefined,undefined,undefined,undefined,1871,undefined,undefined,undefined,undefined,
alhtq0zm9z,undefined,undefined,undefined,undefined,5,6,6,CHRIS,CHRIS,true,2032,5,14,8,0,4000,5,9,7,1,0,1,2121,undefined,271568,undefined,undefined,undefined,undefined,undefined,undefined,undefined,undefined,undefined,undefined,
alhtq0zm9z,undefined,undefined,undefined,undefined,6,13,6,ROBERT,ROBERT,true,3246,6,32,8,1,4000,6,32,7,1,0,0,5013,undefined,undefined,undefined,undefined,undefined,undefined,undefined,undefined,undefined,undefined,undefined,undefined,
alhtq0zm9z,undefined,undefined,undefined,undefined,7,20,6,JACOB,JACOB,true,1933,7,6,8,1,4000,7,16,7,1,1,3,6614,undefined,undefined,undefined,undefined,undefined,undefined,undefined,undefined,undefined,undefined,undefined,undefined,
alhtq0zm9z,undefined,undefined,undefined,undefined,8,23,6,LAUREN,LAUREN,true,1773,8,22,8,0,4000,8,27,7,0,0,5,3423,undefined,undefined,undefined,undefined,undefined,undefined,undefined,undefined,undefined,undefined,undefined,undefined,
alhtq0zm9z,undefined,undefined,undefined,undefined,9,40,6,EMILY,EMILY,true,2156,9,12,8,0,4000,9,17,7,0,1,0,3854,undefined,undefined,undefined,undefined,undefined,undefined,undefined,undefined,undefined,undefined,undefined,undefined,
alhtq0zm9z,undefined,undefined,undefined,undefined,10,9,6,JOSH,JOSH,true,1862,10,23,8,1,4000,10,12,7,0,0,1,5652,undefined,undefined,undefined,undefined,undefined,undefined,undefined,undefined,undefined,undefined,undefined,undefined,
alhtq0zm9z,undefined,undefined,undefined,undefined,11,32,6,NATALIE,NATALIE,true,2288,11,35,8,1,4000,11,13,7,1,1,2,3682,undefined,undefined,undefined,undefined,undefined,undefined,undefined,undefined,undefined,undefined,undefined,undefined,
alhtq0zm9z,undefined,undefined,undefined,undefined,12,38,6,FRANCES,FRANCES,true,2461,12,24,8,0,4000,12,19,7,0,1,2,3523,undefined,undefined,undefined,undefined,undefined,undefined,undefined,undefined,undefined,undefined,undefined,undefined,
alhtq0zm9z,undefined,undefined,undefined,undefined,13,29,6,SARAH,SARAH,true,2307,13,33,8,0,4000,13,30,7,0,1,2,2667,undefined,undefined,undefined,undefined,undefined,undefined,undefined,undefined,undefined,undefined,undefined,undefined,
alhtq0zm9z,undefined,undefined,undefined,undefined,14,16,6,KEVIN,KEVIN,true,2799,14,3,8,1,4000,14,28,7,1,1,2,1944,undefined,undefined,undefined,undefined,undefined,undefined,undefined,undefined,undefined,undefined,undefined,undefined,
alhtq0zm9z,undefined,undefined,undefined,undefined,15,18,6,RYAN,RYAN,true,2535,15,9,8,1,4000,15,33,7,0,0,2,1244,undefined,undefined,undefined,undefined,undefined,undefined,undefined,undefined,undefined,undefined,undefined,undefined,
alhtq0zm9z,undefined,undefined,undefined,undefined,16,28,6,EVELYN,EMILY,false,3271,16,27,8,0,4000,16,10,7,0,1,2,1521,undefined,undefined,undefined,undefined,undefined,undefined,undefined,undefined,undefined,undefined,undefined,undefined,
alhtq0zm9z,undefined,undefined,undefined,undefined,17,4,6,WAYNE,WAYNE,true,1886,17,5,8,0,4000,17,25,7,0,0,2,1842,undefined,undefined,undefined,undefined,undefined,undefined,undefined,undefined,undefined,undefined,undefined,undefined,
alhtq0zm9z,undefined,undefined,undefined,undefined,18,21,6,ASHLEY,ASHLEY,true,2251,18,40,8,1,4000,18,29,7,1,1,0,2821,undefined,undefined,undefined,undefined,undefined,undefined,undefined,undefined,undefined,undefined,undefined,undefined,
alhtq0zm9z,undefined,undefined,undefined,undefined,19,3,6,CARTER,CARTER,true,2272,19,38,8,1,4000,19,14,7,0,0,1,2343,undefined,undefined,undefined,undefined,undefined,undefined,undefined,undefined,undefined,undefined,undefined,undefined,
alhtq0zm9z,undefined,undefined,undefined,undefined,20,36,6,AMBER,AMBER,true,1782,20,15,8,0,4000,20,3,7,1,0,4,5000,undefined,undefined,undefined,undefined,undefined,undefined,undefined,undefined,undefined,undefined,undefined,undefined,
alhtq0zm9z,undefined,undefined,undefined,undefined,21,37,4,JANE,AMBER,false,7146,undefined,undefined,undefined,undefined,undefined,21,24,7,0,0,4,2710,undefined,undefined,undefined,undefined,undefined,undefined,undefined,undefined,undefined,undefined,undefined,undefined,
alhtq0zm9z,undefined,undefined,undefined,undefined,22,2,4,ALLEN,JOSH,false,5218,undefined,undefined,undefined,undefined,undefined,22,38,7,1,0,2,8392,undefined,undefined,undefined,undefined,undefined,undefined,undefined,undefined,undefined,undefined,undefined,undefined,
alhtq0zm9z,undefined,undefined,undefined,undefined,23,35,4,LORY,EVYLYN,false,17418,undefined,undefined,undefined,undefined,undefined,23,6,7,1,0,1,2125,undefined,undefined,undefined,undefined,undefined,undefined,undefined,undefined,undefined,undefined,undefined,undefined,
alhtq0zm9z,undefined,undefined,undefined,undefined,24,8,4,NICK,JACOB,false,4174,undefined,undefined,undefined,undefined,undefined,24,35,7,1,0,1,2181,undefined,undefined,undefined,undefined,undefined,undefined,undefined,undefined,undefined,undefined,undefined,undefined,
alhtq0zm9z,undefined,undefined,undefined,undefined,25,6,4,CHRIS,JOSH,false,4609,undefined,undefined,undefined,undefined,undefined,25,39,7,0,1,1,3062,undefined,undefined,undefined,undefined,undefined,undefined,undefined,undefined,undefined,undefined,undefined,undefined,
alhtq0zm9z,undefined,undefined,undefined,undefined,26,13,4,ROBERT,JACOB,false,7167,undefined,undefined,undefined,undefined,undefined,26,11,7,0,1,1,1363,undefined,undefined,undefined,undefined,undefined,undefined,undefined,undefined,undefined,undefined,undefined,undefined,
alhtq0zm9z,undefined,undefined,undefined,undefined,27,20,4,JACOB,JACOB,true,4088,undefined,undefined,undefined,undefined,undefined,27,2,7,1,0,5,2991,undefined,undefined,undefined,undefined,undefined,undefined,undefined,undefined,undefined,undefined,undefined,undefined,
alhtq0zm9z,undefined,undefined,undefined,undefined,28,23,4,LAUREN,ASHLEY,false,8526,undefined,undefined,undefined,undefined,undefined,28,1,7,0,1,1,2254,undefined,undefined,undefined,undefined,undefined,undefined,undefined,undefined,undefined,undefined,undefined,undefined,
alhtq0zm9z,undefined,undefined,undefined,undefined,29,40,4,EMILY,EMILY,true,2694,undefined,undefined,undefined,undefined,undefined,29,18,7,1,1,1,1531,undefined,undefined,undefined,undefined,undefined,undefined,undefined,undefined,undefined,undefined,undefined,undefined,
alhtq0zm9z,undefined,undefined,undefined,undefined,30,9,4,JOSH,JOSH,true,3762,undefined,undefined,undefined,undefined,undefined,30,36,7,1,1,0,5520,undefined,undefined,undefined,undefined,undefined,undefined,undefined,undefined,undefined,undefined,undefined,undefined,
alhtq0zm9z,undefined,undefined,undefined,undefined,31,32,4,NATALIE,LAUREN,false,4383,undefined,undefined,undefined,undefined,undefined,31,22,7,0,0,4,3442,undefined,undefined,undefined,undefined,undefined,undefined,undefined,undefined,undefined,undefined,undefined,undefined,
alhtq0zm9z,undefined,undefined,undefined,undefined,32,38,4,FRANCES,ASHLEY,false,3268,undefined,undefined,undefined,undefined,undefined,32,21,7,1,1,2,3061,undefined,undefined,undefined,undefined,undefined,undefined,undefined,undefined,undefined,undefined,undefined,undefined,
alhtq0zm9z,undefined,undefined,undefined,undefined,33,29,4,SARAH,AMBER,false,5580,undefined,undefined,undefined,undefined,undefined,33,15,7,0,0,3,3932,undefined,undefined,undefined,undefined,undefined,undefined,undefined,undefined,undefined,undefined,undefined,undefined,
alhtq0zm9z,undefined,undefined,undefined,undefined,34,16,4,KEVIN,NICK,false,4980,undefined,undefined,undefined,undefined,undefined,34,20,7,1,1,2,2481,undefined,undefined,undefined,undefined,undefined,undefined,undefined,undefined,undefined,undefined,undefined,undefined,
alhtq0zm9z,undefined,undefined,undefined,undefined,35,18,4,RYAN,NICK,false,3742,undefined,undefined,undefined,undefined,undefined,35,31,7,0,1,2,2061,undefined,undefined,undefined,undefined,undefined,undefined,undefined,undefined,undefined,undefined,undefined,undefined,
alhtq0zm9z,undefined,undefined,undefined,undefined,36,28,4,EVELYN,ASHLEY,false,12332,undefined,undefined,undefined,undefined,undefined,36,37,7,1,1,2,2143,undefined,undefined,undefined,undefined,undefined,undefined,undefined,undefined,undefined,undefined,undefined,undefined,
alhtq0zm9z,undefined,undefined,undefined,undefined,37,4,4,WAYNE,NICK,false,7529,undefined,undefined,undefined,undefined,undefined,37,7,7,0,0,2,4481,undefined,undefined,undefined,undefined,undefined,undefined,undefined,undefined,undefined,undefined,undefined,undefined,
alhtq0zm9z,undefined,undefined,undefined,undefined,38,21,4,ASHLEY,AMBER,false,5555,undefined,undefined,undefined,undefined,undefined,38,34,7,0,1,2,1782,undefined,undefined,undefined,undefined,undefined,undefined,undefined,undefined,undefined,undefined,undefined,undefined,
alhtq0zm9z,undefined,undefined,undefined,undefined,39,3,4,CARTER,RICK,false,3212,undefined,undefined,undefined,undefined,undefined,39,40,7,1,0,5,2042,undefined,undefined,undefined,undefined,undefined,undefined,undefined,undefined,undefined,undefined,undefined,undefined,
alhtq0zm9z,undefined,undefined,undefined,undefined,40,36,4,AMBER,JANE,false,3448,undefined,undefined,undefined,undefined,undefined,40,5,7,0,0,5,2240,undefined,undefined,undefined,undefined,undefined,undefined,undefined,undefined,undefined,undefined,undefined,undefined,
alhtq0zm9z,undefined,undefined,undefined,undefined,41,23,1,LAUREN,NATALIE,false,8694,undefined,undefined,undefined,undefined,undefined,undefined,undefined,undefined,undefined,undefined,undefined,undefined,undefined,undefined,undefined,undefined,undefined,undefined,undefined,undefined,undefined,undefined,undefined,undefined,
alhtq0zm9z,undefined,undefined,undefined,undefined,42,36,1,AMBER,JANE,false,2063,undefined,undefined,undefined,undefined,undefined,undefined,undefined,undefined,undefined,undefined,undefined,undefined,undefined,undefined,undefined,undefined,undefined,undefined,undefined,undefined,undefined,undefined,undefined,undefined,
alhtq0zm9z,undefined,undefined,undefined,undefined,43,13,1,ROBERT,ROBERT,true,9517,undefined,undefined,undefined,undefined,undefined,undefined,undefined,undefined,undefined,undefined,undefined,undefined,undefined,undefined,undefined,undefined,undefined,undefined,undefined,undefined,undefined,undefined,undefined,undefined,
alhtq0zm9z,undefined,undefined,undefined,undefined,44,28,1,EVELYN,AMBER,false,15347,undefined,undefined,undefined,undefined,undefined,undefined,undefined,undefined,undefined,undefined,undefined,undefined,undefined,undefined,undefined,undefined,undefined,undefined,undefined,undefined,undefined,undefined,undefined,undefined,
alhtq0zm9z,undefined,undefined,undefined,undefined,45,21,1,ASHLEY,LAUREN,false,5924,undefined,undefined,undefined,undefined,undefined,undefined,undefined,undefined,undefined,undefined,undefined,undefined,undefined,undefined,undefined,undefined,undefined,undefined,undefined,undefined,undefined,undefined,undefined,undefined,
alhtq0zm9z,undefined,undefined,undefined,undefined,46,18,1,RYAN,NICK,false,3659,undefined,undefined,undefined,undefined,undefined,undefined,undefined,undefined,undefined,undefined,undefined,undefined,undefined,undefined,undefined,undefined,undefined,undefined,undefined,undefined,undefined,undefined,undefined,undefined,
alhtq0zm9z,undefined,undefined,undefined,undefined,47,2,1,ALLEN,ALLEN,true,11113,undefined,undefined,undefined,undefined,undefined,undefined,undefined,undefined,undefined,undefined,undefined,undefined,undefined,undefined,undefined,undefined,undefined,undefined,undefined,undefined,undefined,undefined,undefined,undefined,
alhtq0zm9z,undefined,undefined,undefined,undefined,48,35,1,LORY,AMBER,false,6182,undefined,undefined,undefined,undefined,undefined,undefined,undefined,undefined,undefined,undefined,undefined,undefined,undefined,undefined,undefined,undefined,undefined,undefined,undefined,undefined,undefined,undefined,undefined,undefined,
alhtq0zm9z,undefined,undefined,undefined,undefined,49,6,1,CHRIS,TIM,false,3254,undefined,undefined,undefined,undefined,undefined,undefined,undefined,undefined,undefined,undefined,undefined,undefined,undefined,undefined,undefined,undefined,undefined,undefined,undefined,undefined,undefined,undefined,undefined,undefined,
alhtq0zm9z,undefined,undefined,undefined,undefined,50,9,1,JOSH,CHRIS,false,15056,undefined,undefined,undefined,undefined,undefined,undefined,undefined,undefined,undefined,undefined,undefined,undefined,undefined,undefined,undefined,undefined,undefined,undefined,undefined,undefined,undefined,undefined,undefined,undefined,
alhtq0zm9z,undefined,undefined,undefined,undefined,51,20,1,JACOB,CHRIS,false,7136,undefined,undefined,undefined,undefined,undefined,undefined,undefined,undefined,undefined,undefined,undefined,undefined,undefined,undefined,undefined,undefined,undefined,undefined,undefined,undefined,undefined,undefined,undefined,undefined,
alhtq0zm9z,undefined,undefined,undefined,undefined,52,3,1,CARTER,WAYNE,false,3364,undefined,undefined,undefined,undefined,undefined,undefined,undefined,undefined,undefined,undefined,undefined,undefined,undefined,undefined,undefined,undefined,undefined,undefined,undefined,undefined,undefined,undefined,undefined,undefined,
alhtq0zm9z,undefined,undefined,undefined,undefined,53,40,1,EMILY,EMILY,true,2873,undefined,undefined,undefined,undefined,undefined,undefined,undefined,undefined,undefined,undefined,undefined,undefined,undefined,undefined,undefined,undefined,undefined,undefined,undefined,undefined,undefined,undefined,undefined,undefined,
alhtq0zm9z,undefined,undefined,undefined,undefined,54,29,1,SARAH,ASHLEY,false,9441,undefined,undefined,undefined,undefined,undefined,undefined,undefined,undefined,undefined,undefined,undefined,undefined,undefined,undefined,undefined,undefined,undefined,undefined,undefined,undefined,undefined,undefined,undefined,undefined,
alhtq0zm9z,undefined,undefined,undefined,undefined,55,38,1,FRANCES,ASHLEY,false,9982,undefined,undefined,undefined,undefined,undefined,undefined,undefined,undefined,undefined,undefined,undefined,undefined,undefined,undefined,undefined,undefined,undefined,undefined,undefined,undefined,undefined,undefined,undefined,undefined,
alhtq0zm9z,undefined,undefined,undefined,undefined,56,4,1,WAYNE,WAYNE,true,3261,undefined,undefined,undefined,undefined,undefined,undefined,undefined,undefined,undefined,undefined,undefined,undefined,undefined,undefined,undefined,undefined,undefined,undefined,undefined,undefined,undefined,undefined,undefined,undefined,
alhtq0zm9z,undefined,undefined,undefined,undefined,57,8,1,NICK,CHRIS,false,3566,undefined,undefined,undefined,undefined,undefined,undefined,undefined,undefined,undefined,undefined,undefined,undefined,undefined,undefined,undefined,undefined,undefined,undefined,undefined,undefined,undefined,undefined,undefined,undefined,
alhtq0zm9z,undefined,undefined,undefined,undefined,58,32,1,NATALIE,AMBER,false,19361,undefined,undefined,undefined,undefined,undefined,undefined,undefined,undefined,undefined,undefined,undefined,undefined,undefined,undefined,undefined,undefined,undefined,undefined,undefined,undefined,undefined,undefined,undefined,undefined,
alhtq0zm9z,undefined,undefined,undefined,undefined,59,37,1,JANE,JANE,true,2587,undefined,undefined,undefined,undefined,undefined,undefined,undefined,undefined,undefined,undefined,undefined,undefined,undefined,undefined,undefined,undefined,undefined,undefined,undefined,undefined,undefined,undefined,undefined,undefined,
alhtq0zm9z,undefined,undefined,undefined,undefined,60,16,1,KEVIN,NICK,false,3638,undefined,undefined,undefined,undefined,undefined,undefined,undefined,undefined,undefined,undefined,undefined,undefined,undefined,undefined,undefined,undefined,undefined,undefined,undefined,undefined,undefined,undefined,undefined,undefined,
alhtq0zm9z,undefined,undefined,undefined,undefined,61,23,2,LAUREN,LAUREN,true,6415,undefined,undefined,undefined,undefined,undefined,undefined,undefined,undefined,undefined,undefined,undefined,undefined,undefined,undefined,undefined,undefined,undefined,undefined,undefined,undefined,undefined,undefined,undefined,undefined,
alhtq0zm9z,undefined,undefined,undefined,undefined,62,29,2,SARAH,FRANCES,false,3680,undefined,undefined,undefined,undefined,undefined,undefined,undefined,undefined,undefined,undefined,undefined,undefined,undefined,undefined,undefined,undefined,undefined,undefined,undefined,undefined,undefined,undefined,undefined,undefined,
alhtq0zm9z,undefined,undefined,undefined,undefined,63,16,2,KEVIN,KEVIN,true,3361,undefined,undefined,undefined,undefined,undefined,undefined,undefined,undefined,undefined,undefined,undefined,undefined,undefined,undefined,undefined,undefined,undefined,undefined,undefined,undefined,undefined,undefined,undefined,undefined,
alhtq0zm9z,undefined,undefined,undefined,undefined,64,37,2,JANE,JANE,true,2122,undefined,undefined,undefined,undefined,undefined,undefined,undefined,undefined,undefined,undefined,undefined,undefined,undefined,undefined,undefined,undefined,undefined,undefined,undefined,undefined,undefined,undefined,undefined,undefined,
alhtq0zm9z,undefined,undefined,undefined,undefined,65,28,2,EVELYN,NATALIE,false,6961,undefined,undefined,undefined,undefined,undefined,undefined,undefined,undefined,undefined,undefined,undefined,undefined,undefined,undefined,undefined,undefined,undefined,undefined,undefined,undefined,undefined,undefined,undefined,undefined,
alhtq0zm9z,undefined,undefined,undefined,undefined,66,18,2,RYAN,RICK,false,12876,undefined,undefined,undefined,undefined,undefined,undefined,undefined,undefined,undefined,undefined,undefined,undefined,undefined,undefined,undefined,undefined,undefined,undefined,undefined,undefined,undefined,undefined,undefined,undefined,
alhtq0zm9z,undefined,undefined,undefined,undefined,67,32,2,NATALIE,AMBER,false,3740,undefined,undefined,undefined,undefined,undefined,undefined,undefined,undefined,undefined,undefined,undefined,undefined,undefined,undefined,undefined,undefined,undefined,undefined,undefined,undefined,undefined,undefined,undefined,undefined,
alhtq0zm9z,undefined,undefined,undefined,undefined,68,8,2,NICK,ROBERT,false,6565,undefined,undefined,undefined,undefined,undefined,undefined,undefined,undefined,undefined,undefined,undefined,undefined,undefined,undefined,undefined,undefined,undefined,undefined,undefined,undefined,undefined,undefined,undefined,undefined,
alhtq0zm9z,undefined,undefined,undefined,undefined,69,20,2,JACOB,JACOB,true,4341,undefined,undefined,undefined,undefined,undefined,undefined,undefined,undefined,undefined,undefined,undefined,undefined,undefined,undefined,undefined,undefined,undefined,undefined,undefined,undefined,undefined,undefined,undefined,undefined,
alhtq0zm9z,undefined,undefined,undefined,undefined,70,36,2,AMBER,JANE,false,4936,undefined,undefined,undefined,undefined,undefined,undefined,undefined,undefined,undefined,undefined,undefined,undefined,undefined,undefined,undefined,undefined,undefined,undefined,undefined,undefined,undefined,undefined,undefined,undefined,
alhtq0zm9z,undefined,undefined,undefined,undefined,71,2,2,ALLEN,ALLEN,true,3897,undefined,undefined,undefined,undefined,undefined,undefined,undefined,undefined,undefined,undefined,undefined,undefined,undefined,undefined,undefined,undefined,undefined,undefined,undefined,undefined,undefined,undefined,undefined,undefined,
alhtq0zm9z,undefined,undefined,undefined,undefined,72,40,2,EMILY,EMILY,true,2547,undefined,undefined,undefined,undefined,undefined,undefined,undefined,undefined,undefined,undefined,undefined,undefined,undefined,undefined,undefined,undefined,undefined,undefined,undefined,undefined,undefined,undefined,undefined,undefined,
alhtq0zm9z,undefined,undefined,undefined,undefined,73,4,2,WAYNE,KEVIN,false,5356,undefined,undefined,undefined,undefined,undefined,undefined,undefined,undefined,undefined,undefined,undefined,undefined,undefined,undefined,undefined,undefined,undefined,undefined,undefined,undefined,undefined,undefined,undefined,undefined,
alhtq0zm9z,undefined,undefined,undefined,undefined,74,13,2,ROBERT,NICK,false,3587,undefined,undefined,undefined,undefined,undefined,undefined,undefined,undefined,undefined,undefined,undefined,undefined,undefined,undefined,undefined,undefined,undefined,undefined,undefined,undefined,undefined,undefined,undefined,undefined,
alhtq0zm9z,undefined,undefined,undefined,undefined,75,21,2,ASHLEY,FRANCES,false,3626,undefined,undefined,undefined,undefined,undefined,undefined,undefined,undefined,undefined,undefined,undefined,undefined,undefined,undefined,undefined,undefined,undefined,undefined,undefined,undefined,undefined,undefined,undefined,undefined,
alhtq0zm9z,undefined,undefined,undefined,undefined,76,6,2,CHRIS,ROBERT,false,13845,undefined,undefined,undefined,undefined,undefined,undefined,undefined,undefined,undefined,undefined,undefined,undefined,undefined,undefined,undefined,undefined,undefined,undefined,undefined,undefined,undefined,undefined,undefined,undefined,
alhtq0zm9z,undefined,undefined,undefined,undefined,77,3,2,CARTER,WAYNE,false,4507,undefined,undefined,undefined,undefined,undefined,undefined,undefined,undefined,undefined,undefined,undefined,undefined,undefined,undefined,undefined,undefined,undefined,undefined,undefined,undefined,undefined,undefined,undefined,undefined,
alhtq0zm9z,undefined,undefined,undefined,undefined,78,9,2,JOSH,CHRIS,false,7224,undefined,undefined,undefined,undefined,undefined,undefined,undefined,undefined,undefined,undefined,undefined,undefined,undefined,undefined,undefined,undefined,undefined,undefined,undefined,undefined,undefined,undefined,undefined,undefined,
alhtq0zm9z,undefined,undefined,undefined,undefined,79,38,2,FRANCES,SARAH,false,7638,undefined,undefined,undefined,undefined,undefined,undefined,undefined,undefined,undefined,undefined,undefined,undefined,undefined,undefined,undefined,undefined,undefined,undefined,undefined,undefined,undefined,undefined,undefined,undefined,
alhtq0zm9z,undefined,undefined,undefined,undefined,80,35,2,LORY,EVELYN,false,12263,undefined,undefined,undefined,undefined,undefined,undefined,undefined,undefined,undefined,undefined,undefined,undefined,undefined,undefined,undefined,undefined,undefined,undefined,undefined,undefined,undefined,undefined,undefined,undefined,
alhtq0zm9z,undefined,undefined,undefined,undefined,81,29,3,SARAH,SARAH,true,4469,undefined,undefined,undefined,undefined,undefined,undefined,undefined,undefined,undefined,undefined,undefined,undefined,undefined,undefined,undefined,undefined,undefined,undefined,undefined,undefined,undefined,undefined,undefined,undefined,
alhtq0zm9z,undefined,undefined,undefined,undefined,82,16,3,KEVIN,KEVIN,true,2703,undefined,undefined,undefined,undefined,undefined,undefined,undefined,undefined,undefined,undefined,undefined,undefined,undefined,undefined,undefined,undefined,undefined,undefined,undefined,undefined,undefined,undefined,undefined,undefined,
alhtq0zm9z,undefined,undefined,undefined,undefined,83,9,3,JOSH,CHRIS,false,6253,undefined,undefined,undefined,undefined,undefined,undefined,undefined,undefined,undefined,undefined,undefined,undefined,undefined,undefined,undefined,undefined,undefined,undefined,undefined,undefined,undefined,undefined,undefined,undefined,
alhtq0zm9z,undefined,undefined,undefined,undefined,84,28,3,EVELYN,NATALIE,false,6823,undefined,undefined,undefined,undefined,undefined,undefined,undefined,undefined,undefined,undefined,undefined,undefined,undefined,undefined,undefined,undefined,undefined,undefined,undefined,undefined,undefined,undefined,undefined,undefined,
alhtq0zm9z,undefined,undefined,undefined,undefined,85,3,3,CARTER,CARTER,true,4477,undefined,undefined,undefined,undefined,undefined,undefined,undefined,undefined,undefined,undefined,undefined,undefined,undefined,undefined,undefined,undefined,undefined,undefined,undefined,undefined,undefined,undefined,undefined,undefined,
alhtq0zm9z,undefined,undefined,undefined,undefined,86,36,3,AMBER,JANE,false,2392,undefined,undefined,undefined,undefined,undefined,undefined,undefined,undefined,undefined,undefined,undefined,undefined,undefined,undefined,undefined,undefined,undefined,undefined,undefined,undefined,undefined,undefined,undefined,undefined,
alhtq0zm9z,undefined,undefined,undefined,undefined,87,23,3,LAUREN,LORY,false,9958,undefined,undefined,undefined,undefined,undefined,undefined,undefined,undefined,undefined,undefined,undefined,undefined,undefined,undefined,undefined,undefined,undefined,undefined,undefined,undefined,undefined,undefined,undefined,undefined,
alhtq0zm9z,undefined,undefined,undefined,undefined,88,37,3,JANE,JANE,true,2153,undefined,undefined,undefined,undefined,undefined,undefined,undefined,undefined,undefined,undefined,undefined,undefined,undefined,undefined,undefined,undefined,undefined,undefined,undefined,undefined,undefined,undefined,undefined,undefined,
alhtq0zm9z,undefined,undefined,undefined,undefined,89,2,3,ALLEN,ALLEN,true,5338,undefined,undefined,undefined,undefined,undefined,undefined,undefined,undefined,undefined,undefined,undefined,undefined,undefined,undefined,undefined,undefined,undefined,undefined,undefined,undefined,undefined,undefined,undefined,undefined,
alhtq0zm9z,undefined,undefined,undefined,undefined,90,21,3,ASHLEY,SARAH,false,2473,undefined,undefined,undefined,undefined,undefined,undefined,undefined,undefined,undefined,undefined,undefined,undefined,undefined,undefined,undefined,undefined,undefined,undefined,undefined,undefined,undefined,undefined,undefined,undefined,
alhtq0zm9z,undefined,undefined,undefined,undefined,91,8,3,NICK,ROBERY,false,3589,undefined,undefined,undefined,undefined,undefined,undefined,undefined,undefined,undefined,undefined,undefined,undefined,undefined,undefined,undefined,undefined,undefined,undefined,undefined,undefined,undefined,undefined,undefined,undefined,
alhtq0zm9z,undefined,undefined,undefined,undefined,92,38,3,FRANCES,ASHLEY,false,3818,undefined,undefined,undefined,undefined,undefined,undefined,undefined,undefined,undefined,undefined,undefined,undefined,undefined,undefined,undefined,undefined,undefined,undefined,undefined,undefined,undefined,undefined,undefined,undefined,
alhtq0zm9z,undefined,undefined,undefined,undefined,93,13,3,ROBERT,ROBERT,true,3342,undefined,undefined,undefined,undefined,undefined,undefined,undefined,undefined,undefined,undefined,undefined,undefined,undefined,undefined,undefined,undefined,undefined,undefined,undefined,undefined,undefined,undefined,undefined,undefined,
alhtq0zm9z,undefined,undefined,undefined,undefined,94,40,3,EMILY,EMILY,true,2609,undefined,undefined,undefined,undefined,undefined,undefined,undefined,undefined,undefined,undefined,undefined,undefined,undefined,undefined,undefined,undefined,undefined,undefined,undefined,undefined,undefined,undefined,undefined,undefined,
alhtq0zm9z,undefined,undefined,undefined,undefined,95,35,3,LORY,LORY,true,2418,undefined,undefined,undefined,undefined,undefined,undefined,undefined,undefined,undefined,undefined,undefined,undefined,undefined,undefined,undefined,undefined,undefined,undefined,undefined,undefined,undefined,undefined,undefined,undefined,
alhtq0zm9z,undefined,undefined,undefined,undefined,96,18,3,RYAN,NICK,false,2287,undefined,undefined,undefined,undefined,undefined,undefined,undefined,undefined,undefined,undefined,undefined,undefined,undefined,undefined,undefined,undefined,undefined,undefined,undefined,undefined,undefined,undefined,undefined,undefined,
alhtq0zm9z,undefined,undefined,undefined,undefined,97,20,3,JACOB,CHRIS,false,2274,undefined,undefined,undefined,undefined,undefined,undefined,undefined,undefined,undefined,undefined,undefined,undefined,undefined,undefined,undefined,undefined,undefined,undefined,undefined,undefined,undefined,undefined,undefined,undefined,
alhtq0zm9z,undefined,undefined,undefined,undefined,98,6,3,CHRIS,JOSH,false,9129,undefined,undefined,undefined,undefined,undefined,undefined,undefined,undefined,undefined,undefined,undefined,undefined,undefined,undefined,undefined,undefined,undefined,undefined,undefined,undefined,undefined,undefined,undefined,undefined,
alhtq0zm9z,undefined,undefined,undefined,undefined,99,4,3,WAYNE,WAYN,false,11567,undefined,undefined,undefined,undefined,undefined,undefined,undefined,undefined,undefined,undefined,undefined,undefined,undefined,undefined,undefined,undefined,undefined,undefined,undefined,undefined,undefined,undefined,undefined,undefined,
alhtq0zm9z,undefined,undefined,undefined,undefined,100,32,3,NATALIE,AMBER,false,5264,undefined,undefined,undefined,undefined,undefined,undefined,undefined,undefined,undefined,undefined,undefined,undefined,undefined,undefined,undefined,undefined,undefined,undefined,undefined,undefined,undefined,undefined,undefined,undefined,
alhtq0zm9z,undefined,undefined,undefined,undefined,101,3,8,CARTER,CARTER,true,2959,undefined,undefined,undefined,undefined,undefined,undefined,undefined,undefined,undefined,undefined,undefined,undefined,undefined,undefined,undefined,undefined,undefined,undefined,undefined,undefined,undefined,undefined,undefined,undefined,
alhtq0zm9z,undefined,undefined,undefined,undefined,102,29,8,SARAH,FRANCES,false,26454,undefined,undefined,undefined,undefined,undefined,undefined,undefined,undefined,undefined,undefined,undefined,undefined,undefined,undefined,undefined,undefined,undefined,undefined,undefined,undefined,undefined,undefined,undefined,undefined,
alhtq0zm9z,undefined,undefined,undefined,undefined,103,36,8,AMBER,JANE,false,6622,undefined,undefined,undefined,undefined,undefined,undefined,undefined,undefined,undefined,undefined,undefined,undefined,undefined,undefined,undefined,undefined,undefined,undefined,undefined,undefined,undefined,undefined,undefined,undefined,
alhtq0zm9z,undefined,undefined,undefined,undefined,104,32,8,NATALIE,NATALIE,true,7706,undefined,undefined,undefined,undefined,undefined,undefined,undefined,undefined,undefined,undefined,undefined,undefined,undefined,undefined,undefined,undefined,undefined,undefined,undefined,undefined,undefined,undefined,undefined,undefined,
alhtq0zm9z,undefined,undefined,undefined,undefined,105,6,8,CHRIS,CHRIS,true,2881,undefined,undefined,undefined,undefined,undefined,undefined,undefined,undefined,undefined,undefined,undefined,undefined,undefined,undefined,undefined,undefined,undefined,undefined,undefined,undefined,undefined,undefined,undefined,undefined,
alhtq0zm9z,undefined,undefined,undefined,undefined,106,28,8,EVELYN,LORY,false,10739,undefined,undefined,undefined,undefined,undefined,undefined,undefined,undefined,undefined,undefined,undefined,undefined,undefined,undefined,undefined,undefined,undefined,undefined,undefined,undefined,undefined,undefined,undefined,undefined,
alhtq0zm9z,undefined,undefined,undefined,undefined,107,4,8,WAYNE,WAYNE,true,7043,undefined,undefined,undefined,undefined,undefined,undefined,undefined,undefined,undefined,undefined,undefined,undefined,undefined,undefined,undefined,undefined,undefined,undefined,undefined,undefined,undefined,undefined,undefined,undefined,
alhtq0zm9z,undefined,undefined,undefined,undefined,108,13,8,ROBERT,ROBERT,true,3263,undefined,undefined,undefined,undefined,undefined,undefined,undefined,undefined,undefined,undefined,undefined,undefined,undefined,undefined,undefined,undefined,undefined,undefined,undefined,undefined,undefined,undefined,undefined,undefined,
alhtq0zm9z,undefined,undefined,undefined,undefined,109,20,8,JACOB,JACOB,true,3755,undefined,undefined,undefined,undefined,undefined,undefined,undefined,undefined,undefined,undefined,undefined,undefined,undefined,undefined,undefined,undefined,undefined,undefined,undefined,undefined,undefined,undefined,undefined,undefined,
alhtq0zm9z,undefined,undefined,undefined,undefined,110,21,8,ASHLEY,FRANCES,false,6463,undefined,undefined,undefined,undefined,undefined,undefined,undefined,undefined,undefined,undefined,undefined,undefined,undefined,undefined,undefined,undefined,undefined,undefined,undefined,undefined,undefined,undefined,undefined,undefined,
alhtq0zm9z,undefined,undefined,undefined,undefined,111,8,8,NICK,ROBERT,false,9966,undefined,undefined,undefined,undefined,undefined,undefined,undefined,undefined,undefined,undefined,undefined,undefined,undefined,undefined,undefined,undefined,undefined,undefined,undefined,undefined,undefined,undefined,undefined,undefined,
alhtq0zm9z,undefined,undefined,undefined,undefined,112,35,8,LORY,LORY,true,7954,undefined,undefined,undefined,undefined,undefined,undefined,undefined,undefined,undefined,undefined,undefined,undefined,undefined,undefined,undefined,undefined,undefined,undefined,undefined,undefined,undefined,undefined,undefined,undefined,
alhtq0zm9z,undefined,undefined,undefined,undefined,113,9,8,JOSH,KEVIN,false,4013,undefined,undefined,undefined,undefined,undefined,undefined,undefined,undefined,undefined,undefined,undefined,undefined,undefined,undefined,undefined,undefined,undefined,undefined,undefined,undefined,undefined,undefined,undefined,undefined,
alhtq0zm9z,undefined,undefined,undefined,undefined,114,2,8,ALLEN,ALLEN,true,2494,undefined,undefined,undefined,undefined,undefined,undefined,undefined,undefined,undefined,undefined,undefined,undefined,undefined,undefined,undefined,undefined,undefined,undefined,undefined,undefined,undefined,undefined,undefined,undefined,
alhtq0zm9z,undefined,undefined,undefined,undefined,115,38,8,FRANCES,FRANCES,true,191233,undefined,undefined,undefined,undefined,undefined,undefined,undefined,undefined,undefined,undefined,undefined,undefined,undefined,undefined,undefined,undefined,undefined,undefined,undefined,undefined,undefined,undefined,undefined,undefined,
alhtq0zm9z,undefined,undefined,undefined,undefined,116,16,8,KEVIN,KEVIN,true,5428,undefined,undefined,undefined,undefined,undefined,undefined,undefined,undefined,undefined,undefined,undefined,undefined,undefined,undefined,undefined,undefined,undefined,undefined,undefined,undefined,undefined,undefined,undefined,undefined,
alhtq0zm9z,undefined,undefined,undefined,undefined,117,18,8,RYAN,NICK,false,5118,undefined,undefined,undefined,undefined,undefined,undefined,undefined,undefined,undefined,undefined,undefined,undefined,undefined,undefined,undefined,undefined,undefined,undefined,undefined,undefined,undefined,undefined,undefined,undefined,
alhtq0zm9z,undefined,undefined,undefined,undefined,118,23,8,LAUREN,LORY,false,4806,undefined,undefined,undefined,undefined,undefined,undefined,undefined,undefined,undefined,undefined,undefined,undefined,undefined,undefined,undefined,undefined,undefined,undefined,undefined,undefined,undefined,undefined,undefined,undefined,
alhtq0zm9z,undefined,undefined,undefined,undefined,119,40,8,EMILY,EMILY,true,2310,undefined,undefined,undefined,undefined,undefined,undefined,undefined,undefined,undefined,undefined,undefined,undefined,undefined,undefined,undefined,undefined,undefined,undefined,undefined,undefined,undefined,undefined,undefined,undefined,
alhtq0zm9z,undefined,undefined,undefined,undefined,120,37,8,JANE,AMBER,false,3512,undefined,undefined,undefined,undefined,undefined,undefined,undefined,undefined,undefined,undefined,undefined,undefined,undefined,undefined,undefined,undefined,undefined,undefined,undefined,undefined,undefined,undefined,undefined,undefined,
