SubNum,SubNum_demo,Exp_start_time,Exp_today_date,Exp_today_time,TrialNum,Condition,Face,Name,Response,NameAcc,RespTime,StudyTrialNum,StudyFace,StudyContext,StudyFamCond,TestTrialNum,TestFace,TestContext,TestSDCond,TestFamCond,TestResponse,TestResponseTime,Exp_end_time,Distractor_1_duration,Distractor_2_duration,
sqg32jdvjh,staocjrq13,Sun Nov 15 2020 16:48:51 GMT-0600 (Central Standard Time),2020-11-15,16:48:51,1,Familiar,8,NA,NA,NA,NA,1,19,8,0,1,2,20,0,1,0,2546.7300000600517,17:20:28,123750.38000009954,61321.93999993615,
sqg32jdvjh,undefined,undefined,undefined,undefined,2,Know,30,COURTNEY,COURTNEY,true,7921.619999920949,2,1,34,2,2,19,17,1,0,1,1414.9100000504404,undefined,undefined,undefined,
sqg32jdvjh,undefined,undefined,undefined,undefined,3,Familiar,14,NA,NA,NA,NA,3,33,31,0,3,7,24,1,2,1,4460.380000062287,undefined,undefined,undefined,
sqg32jdvjh,undefined,undefined,undefined,undefined,4,Familiar,33,NA,NA,NA,NA,4,6,17,0,4,14,14,0,0,0,2226.1950001120567,undefined,undefined,undefined,
sqg32jdvjh,undefined,undefined,undefined,undefined,5,Know,27,SAMANTHA,SAMANTHA,true,6829.8550001345575,5,29,33,1,5,30,12,0,1,0,2541.6800000239164,undefined,undefined,undefined,
sqg32jdvjh,undefined,undefined,undefined,undefined,6,Know,25,AMANDA,AMANDA,true,4926.454999949783,6,36,3,0,6,26,4,1,2,1,2621.074999915436,undefined,undefined,undefined,
sqg32jdvjh,undefined,undefined,undefined,undefined,7,Familiar,34,NA,NA,NA,NA,7,13,35,0,7,8,1,0,0,0,3115.6049999408424,undefined,undefined,undefined,
sqg32jdvjh,undefined,undefined,undefined,undefined,8,Familiar,10,NA,NA,NA,NA,8,27,22,1,8,1,34,0,2,0,2048.285000026226,undefined,undefined,undefined,
sqg32jdvjh,undefined,undefined,undefined,undefined,9,Know,2,PATRICIA,PATRICIA,true,5805.6949998717755,9,5,19,1,9,29,29,1,1,1,1339.7150000091642,undefined,undefined,undefined,
sqg32jdvjh,undefined,undefined,undefined,undefined,10,Familiar,35,NA,NA,NA,NA,10,21,23,0,10,6,8,1,0,1,4571.990000084043,undefined,undefined,undefined,
sqg32jdvjh,undefined,undefined,undefined,undefined,11,Familiar,21,NA,NA,NA,NA,11,8,1,0,11,34,28,0,0,0,2636.3850000780076,undefined,undefined,undefined,
sqg32jdvjh,undefined,undefined,undefined,undefined,12,Know,16,CHLOE,CHLOE,true,5178.760000038892,12,31,32,2,12,31,30,1,2,1,7381.894999882206,undefined,undefined,undefined,
sqg32jdvjh,undefined,undefined,undefined,undefined,13,Know,5,MARY,MARY,true,4428.259999956936,13,10,7,0,13,35,25,0,0,0,2671.4049999136478,undefined,undefined,undefined,
sqg32jdvjh,undefined,undefined,undefined,undefined,14,Familiar,36,NA,NA,NA,NA,14,9,6,1,14,13,23,1,0,0,2136.8399998173118,undefined,undefined,undefined,
sqg32jdvjh,undefined,undefined,undefined,undefined,15,Know,23,SARAH,SARAH,true,4805.165000027046,15,3,36,1,15,27,22,0,1,0,3782.3949998710304,undefined,undefined,undefined,
sqg32jdvjh,undefined,undefined,undefined,undefined,16,Know,28,LISA,LISA,true,3964.0550001058728,16,11,27,2,16,16,21,0,1,0,1907.6849999837577,undefined,undefined,undefined,
sqg32jdvjh,undefined,undefined,undefined,undefined,17,Familiar,6,NA,NA,NA,NA,17,24,13,2,17,18,33,1,1,1,3312.675000168383,undefined,undefined,undefined,
sqg32jdvjh,undefined,undefined,undefined,undefined,18,Familiar,19,NA,NA,NA,NA,18,23,10,1,18,3,26,1,1,1,2041.7000001762062,undefined,undefined,undefined,
sqg32jdvjh,undefined,undefined,undefined,undefined,19,Know,18,JENNIFER,JENNIFER,true,6405.689999926835,19,25,2,1,19,25,2,0,1,0,2903.4850001335144,undefined,undefined,undefined,
sqg32jdvjh,undefined,undefined,undefined,undefined,20,Know,9,KAREN,KAREN,true,4349.065000191331,20,22,30,2,20,17,5,0,2,0,2963.8800001703203,undefined,undefined,undefined,
sqg32jdvjh,undefined,undefined,undefined,undefined,21,Familiar,20,NA,NA,NA,NA,21,34,28,0,21,21,35,1,0,1,2151.8149999901652,undefined,undefined,undefined,
sqg32jdvjh,undefined,undefined,undefined,undefined,22,Familiar,13,NA,NA,NA,NA,22,15,11,2,22,28,36,1,1,1,4335.800000000745,undefined,undefined,undefined,
sqg32jdvjh,undefined,undefined,undefined,undefined,23,Know,29,BRIANNA,BRIANNA,true,5649.365000193939,23,4,16,2,23,22,32,1,2,1,1748.26499982737,undefined,undefined,undefined,
sqg32jdvjh,undefined,undefined,undefined,undefined,24,Know,3,MARGARET,MARGARET ,false,9520.925000077114,24,20,15,0,24,9,10,1,1,1,6106.894999975339,undefined,undefined,undefined,
sqg32jdvjh,undefined,undefined,undefined,undefined,25,Familiar,35,NA,NA,NA,NA,25,17,5,2,25,33,31,0,0,0,3297.885000007227,undefined,undefined,undefined,
sqg32jdvjh,undefined,undefined,undefined,undefined,26,Know,9,KAREN,JENNIFER,false,15550.73000001721,26,2,20,1,26,15,11,0,2,0,2759.84499999322,undefined,undefined,undefined,
sqg32jdvjh,undefined,undefined,undefined,undefined,27,Familiar,13,NA,NA,NA,NA,27,30,12,1,27,24,13,0,2,0,1669.2049999255687,undefined,undefined,undefined,
sqg32jdvjh,undefined,undefined,undefined,undefined,28,Know,18,JENNIFER,MARY,false,42381.319999927655,28,26,24,2,28,11,18,1,2,1,2919.200000120327,undefined,undefined,undefined,
sqg32jdvjh,undefined,undefined,undefined,undefined,29,Familiar,34,NA,NA,NA,NA,29,18,29,1,29,5,19,0,1,0,5006.025000009686,undefined,undefined,undefined,
sqg32jdvjh,undefined,undefined,undefined,undefined,30,Familiar,20,NA,NA,NA,NA,30,28,26,1,30,10,7,0,0,0,1775.5849999375641,undefined,undefined,undefined,
sqg32jdvjh,undefined,undefined,undefined,undefined,31,Know,29,BRIANNA,MARY,false,15284.434999804944,31,12,18,2,31,32,9,0,2,0,3517.9149999748915,undefined,undefined,undefined,
sqg32jdvjh,undefined,undefined,undefined,undefined,32,Familiar,36,NA,NA,NA,NA,32,16,21,1,32,23,6,1,1,1,2926.634999923408,undefined,undefined,undefined,
sqg32jdvjh,undefined,undefined,undefined,undefined,33,Familiar,6,NA,NA,NA,NA,33,32,9,2,33,12,27,1,2,1,1949.4799999520183,undefined,undefined,undefined,
sqg32jdvjh,undefined,undefined,undefined,undefined,34,Know,25,AMANDA,SARAH,false,51082.264999859035,34,7,4,2,34,36,15,1,0,1,2333.9649999979883,undefined,undefined,undefined,
sqg32jdvjh,undefined,undefined,undefined,undefined,35,Know,28,LISA,LISA,true,6831.9549998268485,35,35,25,0,35,20,3,1,0,1,1829.5700000599027,undefined,undefined,undefined,
sqg32jdvjh,undefined,undefined,undefined,undefined,36,Familiar,21,NA,NA,NA,NA,36,14,14,0,36,4,16,0,2,1,5195.640000049025,undefined,undefined,undefined,
sqg32jdvjh,undefined,undefined,undefined,undefined,37,Know,3,MARGARET,BRAINNA,false,22610.64499989152,37,4,16,2,undefined,undefined,undefined,undefined,undefined,undefined,undefined,undefined,undefined,undefined,
sqg32jdvjh,undefined,undefined,undefined,undefined,38,Know,2,PATRICIA,MARY,false,55389.324999880046,38,36,3,0,undefined,undefined,undefined,undefined,undefined,undefined,undefined,undefined,undefined,undefined,
sqg32jdvjh,undefined,undefined,undefined,undefined,39,Familiar,14,NA,NA,NA,NA,39,17,5,2,undefined,undefined,undefined,undefined,undefined,undefined,undefined,undefined,undefined,undefined,
sqg32jdvjh,undefined,undefined,undefined,undefined,40,Know,23,SARAH,SARAH,true,10273.955000098795,40,26,24,2,undefined,undefined,undefined,undefined,undefined,undefined,undefined,undefined,undefined,undefined,
sqg32jdvjh,undefined,undefined,undefined,undefined,41,Familiar,8,NA,NA,NA,NA,41,33,31,0,undefined,undefined,undefined,undefined,undefined,undefined,undefined,undefined,undefined,undefined,
sqg32jdvjh,undefined,undefined,undefined,undefined,42,Know,16,CHLOE,MARY,false,8272.515000076964,42,18,29,1,undefined,undefined,undefined,undefined,undefined,undefined,undefined,undefined,undefined,undefined,
sqg32jdvjh,undefined,undefined,undefined,undefined,43,Know,5,MARY,MARY,true,12236.039999872446,43,3,36,1,undefined,undefined,undefined,undefined,undefined,undefined,undefined,undefined,undefined,undefined,
sqg32jdvjh,undefined,undefined,undefined,undefined,44,Familiar,19,NA,NA,NA,NA,44,11,27,2,undefined,undefined,undefined,undefined,undefined,undefined,undefined,undefined,undefined,undefined,
sqg32jdvjh,undefined,undefined,undefined,undefined,45,Know,30,COURTNEY,SANTANA,false,25325.664999894798,45,21,23,0,undefined,undefined,undefined,undefined,undefined,undefined,undefined,undefined,undefined,undefined,
sqg32jdvjh,undefined,undefined,undefined,undefined,46,Familiar,33,NA,NA,NA,NA,46,8,1,0,undefined,undefined,undefined,undefined,undefined,undefined,undefined,undefined,undefined,undefined,
sqg32jdvjh,undefined,undefined,undefined,undefined,47,Familiar,10,NA,NA,NA,NA,47,27,22,1,undefined,undefined,undefined,undefined,undefined,undefined,undefined,undefined,undefined,undefined,
sqg32jdvjh,undefined,undefined,undefined,undefined,48,Know,27,SAMANTHA,AMANDA,false,19145.81499993801,48,20,15,0,undefined,undefined,undefined,undefined,undefined,undefined,undefined,undefined,undefined,undefined,
sqg32jdvjh,undefined,undefined,undefined,undefined,49,Know,28,LISA,AMANDA,false,8177.025000099093,49,25,2,1,undefined,undefined,undefined,undefined,undefined,undefined,undefined,undefined,undefined,undefined,
sqg32jdvjh,undefined,undefined,undefined,undefined,50,Familiar,13,NA,NA,NA,NA,50,34,28,0,undefined,undefined,undefined,undefined,undefined,undefined,undefined,undefined,undefined,undefined,
sqg32jdvjh,undefined,undefined,undefined,undefined,51,Familiar,20,NA,NA,NA,NA,51,10,7,0,undefined,undefined,undefined,undefined,undefined,undefined,undefined,undefined,undefined,undefined,
sqg32jdvjh,undefined,undefined,undefined,undefined,52,Know,29,BRIANNA,JENNIFER,false,12186.085000168532,52,24,13,2,undefined,undefined,undefined,undefined,undefined,undefined,undefined,undefined,undefined,undefined,
sqg32jdvjh,undefined,undefined,undefined,undefined,53,Know,16,CHLOE,CHLOE,true,24568.04500008002,53,7,4,2,undefined,undefined,undefined,undefined,undefined,undefined,undefined,undefined,undefined,undefined,
sqg32jdvjh,undefined,undefined,undefined,undefined,54,Familiar,35,NA,NA,NA,NA,54,30,12,1,undefined,undefined,undefined,undefined,undefined,undefined,undefined,undefined,undefined,undefined,
sqg32jdvjh,undefined,undefined,undefined,undefined,55,Familiar,33,NA,NA,NA,NA,55,13,35,0,undefined,undefined,undefined,undefined,undefined,undefined,undefined,undefined,undefined,undefined,
sqg32jdvjh,undefined,undefined,undefined,undefined,56,Know,2,PATRICIA,MARGARET,false,18099.82999996282,56,32,9,2,undefined,undefined,undefined,undefined,undefined,undefined,undefined,undefined,undefined,undefined,
sqg32jdvjh,undefined,undefined,undefined,undefined,57,Know,18,JENNIFER,JENNIFER,true,12134.079999988899,57,15,11,2,undefined,undefined,undefined,undefined,undefined,undefined,undefined,undefined,undefined,undefined,
sqg32jdvjh,undefined,undefined,undefined,undefined,58,Familiar,34,NA,NA,NA,NA,58,16,21,1,undefined,undefined,undefined,undefined,undefined,undefined,undefined,undefined,undefined,undefined,
sqg32jdvjh,undefined,undefined,undefined,undefined,59,Familiar,36,NA,NA,NA,NA,59,6,17,0,undefined,undefined,undefined,undefined,undefined,undefined,undefined,undefined,undefined,undefined,
sqg32jdvjh,undefined,undefined,undefined,undefined,60,Know,9,KAREN,AMANDA,false,10377.70999991335,60,35,25,0,undefined,undefined,undefined,undefined,undefined,undefined,undefined,undefined,undefined,undefined,
sqg32jdvjh,undefined,undefined,undefined,undefined,61,Know,30,COURTNEY,LISA,false,11407.839999999851,61,28,26,1,undefined,undefined,undefined,undefined,undefined,undefined,undefined,undefined,undefined,undefined,
sqg32jdvjh,undefined,undefined,undefined,undefined,62,Familiar,10,NA,NA,NA,NA,62,22,30,2,undefined,undefined,undefined,undefined,undefined,undefined,undefined,undefined,undefined,undefined,
sqg32jdvjh,undefined,undefined,undefined,undefined,63,Familiar,21,NA,NA,NA,NA,63,12,18,2,undefined,undefined,undefined,undefined,undefined,undefined,undefined,undefined,undefined,undefined,
sqg32jdvjh,undefined,undefined,undefined,undefined,64,Know,27,SAMANTHA,LISA,false,3704.829999944195,64,19,8,0,undefined,undefined,undefined,undefined,undefined,undefined,undefined,undefined,undefined,undefined,
sqg32jdvjh,undefined,undefined,undefined,undefined,65,Familiar,8,NA,NA,NA,NA,65,14,14,0,undefined,undefined,undefined,undefined,undefined,undefined,undefined,undefined,undefined,undefined,
sqg32jdvjh,undefined,undefined,undefined,undefined,66,Know,25,AMANDA,SARAH,false,16819.82499989681,66,9,6,1,undefined,undefined,undefined,undefined,undefined,undefined,undefined,undefined,undefined,undefined,
sqg32jdvjh,undefined,undefined,undefined,undefined,67,Familiar,19,NA,NA,NA,NA,67,23,10,1,undefined,undefined,undefined,undefined,undefined,undefined,undefined,undefined,undefined,undefined,
sqg32jdvjh,undefined,undefined,undefined,undefined,68,Familiar,14,NA,NA,NA,NA,68,1,34,2,undefined,undefined,undefined,undefined,undefined,undefined,undefined,undefined,undefined,undefined,
sqg32jdvjh,undefined,undefined,undefined,undefined,69,Know,5,MARY,SARAH,false,9421.300000045449,69,2,20,1,undefined,undefined,undefined,undefined,undefined,undefined,undefined,undefined,undefined,undefined,
sqg32jdvjh,undefined,undefined,undefined,undefined,70,Familiar,6,NA,NA,NA,NA,70,31,32,2,undefined,undefined,undefined,undefined,undefined,undefined,undefined,undefined,undefined,undefined,
sqg32jdvjh,undefined,undefined,undefined,undefined,71,Know,23,SARAH,SARAH,true,40974.99500005506,71,5,19,1,undefined,undefined,undefined,undefined,undefined,undefined,undefined,undefined,undefined,undefined,
sqg32jdvjh,undefined,undefined,undefined,undefined,72,Know,3,MARGARET,PATRICIA,false,12127.679999917746,72,29,33,1,undefined,undefined,undefined,undefined,undefined,undefined,undefined,undefined,undefined,undefined,
sqg32jdvjh,undefined,undefined,undefined,undefined,73,Familiar,36,NA,NA,NA,NA,undefined,undefined,undefined,undefined,undefined,undefined,undefined,undefined,undefined,undefined,undefined,undefined,undefined,undefined,
sqg32jdvjh,undefined,undefined,undefined,undefined,74,Know,23,SARAH,SARAH,true,4264.915000181645,undefined,undefined,undefined,undefined,undefined,undefined,undefined,undefined,undefined,undefined,undefined,undefined,undefined,undefined,
sqg32jdvjh,undefined,undefined,undefined,undefined,75,Familiar,19,NA,NA,NA,NA,undefined,undefined,undefined,undefined,undefined,undefined,undefined,undefined,undefined,undefined,undefined,undefined,undefined,undefined,
sqg32jdvjh,undefined,undefined,undefined,undefined,76,Familiar,21,NA,NA,NA,NA,undefined,undefined,undefined,undefined,undefined,undefined,undefined,undefined,undefined,undefined,undefined,undefined,undefined,undefined,
sqg32jdvjh,undefined,undefined,undefined,undefined,77,Know,30,COURTNEY,PATRICIA,false,46317.2050002031,undefined,undefined,undefined,undefined,undefined,undefined,undefined,undefined,undefined,undefined,undefined,undefined,undefined,undefined,
sqg32jdvjh,undefined,undefined,undefined,undefined,78,Know,5,MARY,PATRICIA,false,5650.985000189394,undefined,undefined,undefined,undefined,undefined,undefined,undefined,undefined,undefined,undefined,undefined,undefined,undefined,undefined,
sqg32jdvjh,undefined,undefined,undefined,undefined,79,Familiar,13,NA,NA,NA,NA,undefined,undefined,undefined,undefined,undefined,undefined,undefined,undefined,undefined,undefined,undefined,undefined,undefined,undefined,
sqg32jdvjh,undefined,undefined,undefined,undefined,80,Know,2,PATRICIA,PATRICIA,true,8105.704999994487,undefined,undefined,undefined,undefined,undefined,undefined,undefined,undefined,undefined,undefined,undefined,undefined,undefined,undefined,
sqg32jdvjh,undefined,undefined,undefined,undefined,81,Familiar,6,NA,NA,NA,NA,undefined,undefined,undefined,undefined,undefined,undefined,undefined,undefined,undefined,undefined,undefined,undefined,undefined,undefined,
sqg32jdvjh,undefined,undefined,undefined,undefined,82,Know,9,KAREN,AMANDA,false,4570.934999966994,undefined,undefined,undefined,undefined,undefined,undefined,undefined,undefined,undefined,undefined,undefined,undefined,undefined,undefined,
sqg32jdvjh,undefined,undefined,undefined,undefined,83,Know,3,MARGARET,AMANDA,false,3384.915000060573,undefined,undefined,undefined,undefined,undefined,undefined,undefined,undefined,undefined,undefined,undefined,undefined,undefined,undefined,
sqg32jdvjh,undefined,undefined,undefined,undefined,84,Familiar,8,NA,NA,NA,NA,undefined,undefined,undefined,undefined,undefined,undefined,undefined,undefined,undefined,undefined,undefined,undefined,undefined,undefined,
sqg32jdvjh,undefined,undefined,undefined,undefined,85,Know,25,AMANDA,AMANDA,true,5950.785000110045,undefined,undefined,undefined,undefined,undefined,undefined,undefined,undefined,undefined,undefined,undefined,undefined,undefined,undefined,
sqg32jdvjh,undefined,undefined,undefined,undefined,86,Familiar,35,NA,NA,NA,NA,undefined,undefined,undefined,undefined,undefined,undefined,undefined,undefined,undefined,undefined,undefined,undefined,undefined,undefined,
sqg32jdvjh,undefined,undefined,undefined,undefined,87,Know,29,BRIANNA,JENNIFER,false,24989.344999892637,undefined,undefined,undefined,undefined,undefined,undefined,undefined,undefined,undefined,undefined,undefined,undefined,undefined,undefined,
sqg32jdvjh,undefined,undefined,undefined,undefined,88,Familiar,34,NA,NA,NA,NA,undefined,undefined,undefined,undefined,undefined,undefined,undefined,undefined,undefined,undefined,undefined,undefined,undefined,undefined,
sqg32jdvjh,undefined,undefined,undefined,undefined,89,Familiar,20,NA,NA,NA,NA,undefined,undefined,undefined,undefined,undefined,undefined,undefined,undefined,undefined,undefined,undefined,undefined,undefined,undefined,
sqg32jdvjh,undefined,undefined,undefined,undefined,90,Know,16,CHLOE,KOREN,false,26859.044999815524,undefined,undefined,undefined,undefined,undefined,undefined,undefined,undefined,undefined,undefined,undefined,undefined,undefined,undefined,
sqg32jdvjh,undefined,undefined,undefined,undefined,91,Know,18,JENNIFER,JENNIFER,true,18028.96000002511,undefined,undefined,undefined,undefined,undefined,undefined,undefined,undefined,undefined,undefined,undefined,undefined,undefined,undefined,
sqg32jdvjh,undefined,undefined,undefined,undefined,92,Familiar,33,NA,NA,NA,NA,undefined,undefined,undefined,undefined,undefined,undefined,undefined,undefined,undefined,undefined,undefined,undefined,undefined,undefined,
sqg32jdvjh,undefined,undefined,undefined,undefined,93,Familiar,14,NA,NA,NA,NA,undefined,undefined,undefined,undefined,undefined,undefined,undefined,undefined,undefined,undefined,undefined,undefined,undefined,undefined,
sqg32jdvjh,undefined,undefined,undefined,undefined,94,Know,28,LISA,KOREN,false,34302.99500003457,undefined,undefined,undefined,undefined,undefined,undefined,undefined,undefined,undefined,undefined,undefined,undefined,undefined,undefined,
sqg32jdvjh,undefined,undefined,undefined,undefined,95,Know,27,SAMANTHA,BRIANNA,false,23996.6349999886,undefined,undefined,undefined,undefined,undefined,undefined,undefined,undefined,undefined,undefined,undefined,undefined,undefined,undefined,
sqg32jdvjh,undefined,undefined,undefined,undefined,96,Familiar,10,NA,NA,NA,NA,undefined,undefined,undefined,undefined,undefined,undefined,undefined,undefined,undefined,undefined,undefined,undefined,undefined,undefined,
