SubNum,SubNum_demo,Exp_start_time,Exp_today_date,Exp_today_time,TrialNum,Condition,Face,Name,Response,NameAcc,RespTime,StudyTrialNum,StudyFace,StudyContext,StudyFamCond,TestTrialNum,TestFace,TestContext,TestSDCond,TestFamCond,TestResponse,TestResponseTime,Exp_end_time,Distractor_1_duration,Distractor_2_duration,
cd3yhyzx0f,cmnq7ha79p,Wed Dec 02 2020 18:51:48 GMT-0600 (Central Standard Time),2020-12-2,18:51:48,1,Know,14,ALEXIS,ALEXIS,true,5399.4100000709295,1,32,14,2,1,14,33,0,1,0,2385.675000026822,19:16:31,121471.6849999968,62825.84499998484,
cd3yhyzx0f,undefined,undefined,undefined,undefined,2,Know,25,COURTNEY,COURTNEY,true,5001.369999954477,2,31,15,0,2,18,5,0,1,0,3005.725000053644,undefined,146397.76999992318,undefined,
cd3yhyzx0f,undefined,undefined,undefined,undefined,3,Familiar,31,NA,NA,NA,NA,3,21,13,1,3,33,17,1,1,1,1988.8049999717623,undefined,undefined,undefined,
cd3yhyzx0f,undefined,undefined,undefined,undefined,4,Know,7,HAZEL,HAZEL,true,4043.5900000156835,4,16,22,0,4,3,14,1,2,1,1133.21499992162,undefined,undefined,undefined,
cd3yhyzx0f,undefined,undefined,undefined,undefined,5,Know,9,MARGARET,MARGARET,true,4393.675000057556,5,35,27,2,5,4,4,1,1,1,1470.7499999785796,undefined,undefined,undefined,
cd3yhyzx0f,undefined,undefined,undefined,undefined,6,Familiar,20,NA,NA,NA,NA,6,18,5,1,6,32,36,1,2,1,932.6400000136346,undefined,undefined,undefined,
cd3yhyzx0f,undefined,undefined,undefined,undefined,7,Familiar,13,NA,NA,NA,NA,7,3,36,2,7,15,12,0,2,0,1669.2599999951199,undefined,undefined,undefined,
cd3yhyzx0f,undefined,undefined,undefined,undefined,8,Know,36,HANNAH,HANNAH,true,4274.144999915734,8,15,12,2,8,12,16,0,2,0,1432.3500000173226,undefined,undefined,undefined,
cd3yhyzx0f,undefined,undefined,undefined,undefined,9,Know,18,ELIZABETH,ELIZABETH,true,6325.285000028089,9,10,19,0,9,30,23,1,2,1,1429.550000000745,undefined,undefined,undefined,
cd3yhyzx0f,undefined,undefined,undefined,undefined,10,Familiar,16,NA,NA,NA,NA,10,17,30,0,10,23,20,0,2,0,3678.109999978915,undefined,undefined,undefined,
cd3yhyzx0f,undefined,undefined,undefined,undefined,11,Familiar,26,NA,NA,NA,NA,11,1,10,2,11,22,19,1,0,1,1277.974999975413,undefined,undefined,undefined,
cd3yhyzx0f,undefined,undefined,undefined,undefined,12,Know,2,STEPHANIE,STEPHANIE,true,7938.544999924488,12,24,7,1,12,9,34,0,1,0,1404.8099999781698,undefined,undefined,undefined,
cd3yhyzx0f,undefined,undefined,undefined,undefined,13,Familiar,17,NA,NA,NA,NA,13,4,17,1,13,17,30,0,0,0,1256.7299999063835,undefined,undefined,undefined,
cd3yhyzx0f,undefined,undefined,undefined,undefined,14,Familiar,34,NA,NA,NA,NA,14,11,8,0,14,10,3,1,0,1,1773.975000018254,undefined,undefined,undefined,
cd3yhyzx0f,undefined,undefined,undefined,undefined,15,Know,24,CHLOE,CHLOE,true,4244.774999911897,15,2,29,1,15,34,8,1,0,1,2007.0050000213087,undefined,undefined,undefined,
cd3yhyzx0f,undefined,undefined,undefined,undefined,16,Familiar,28,NA,NA,NA,NA,16,33,4,1,16,6,13,1,1,1,1044.2000000039116,undefined,undefined,undefined,
cd3yhyzx0f,undefined,undefined,undefined,undefined,17,Familiar,22,NA,NA,NA,NA,17,22,3,0,17,5,24,1,2,1,3757.8600000124425,undefined,undefined,undefined,
cd3yhyzx0f,undefined,undefined,undefined,undefined,18,Know,4,MARY,MARY,true,4224.894999992102,18,29,32,2,18,35,27,0,2,0,1468.034999910742,undefined,undefined,undefined,
cd3yhyzx0f,undefined,undefined,undefined,undefined,19,Know,33,BRIANNA,BRIANA,false,4111.5650000283495,19,23,20,2,19,13,2,0,0,0,1101.7599999904633,undefined,undefined,undefined,
cd3yhyzx0f,undefined,undefined,undefined,undefined,20,Familiar,11,NA,NA,NA,NA,20,13,2,0,20,21,25,1,1,1,1175.0600000377744,undefined,undefined,undefined,
cd3yhyzx0f,undefined,undefined,undefined,undefined,21,Familiar,19,NA,NA,NA,NA,21,12,16,2,21,29,10,1,2,1,909.9250000435859,undefined,undefined,undefined,
cd3yhyzx0f,undefined,undefined,undefined,undefined,22,Know,6,PATRICIA,PATRICIA,true,4442.005000077188,22,7,11,1,22,36,6,0,1,0,2846.2600000202656,undefined,undefined,undefined,
cd3yhyzx0f,undefined,undefined,undefined,undefined,23,Know,21,ALYSSA,ALYSSA,true,3126.9549999851733,23,14,33,1,23,11,9,1,0,1,1508.324999944307,undefined,undefined,undefined,
cd3yhyzx0f,undefined,undefined,undefined,undefined,24,Familiar,10,NA,NA,NA,NA,24,30,24,2,24,1,32,1,2,1,1325.040000025183,undefined,undefined,undefined,
cd3yhyzx0f,undefined,undefined,undefined,undefined,25,Familiar,34,NA,NA,NA,NA,25,26,1,0,25,24,29,1,1,1,983.0650000367314,undefined,undefined,undefined,
cd3yhyzx0f,undefined,undefined,undefined,undefined,26,Know,7,HAZEL,BRIANNA,false,8666.29500000272,26,20,35,0,26,20,35,0,0,0,1238.575000083074,undefined,undefined,undefined,
cd3yhyzx0f,undefined,undefined,undefined,undefined,27,Familiar,11,NA,NA,NA,NA,27,27,18,2,27,19,26,1,0,1,1173.2149999588728,undefined,undefined,undefined,
cd3yhyzx0f,undefined,undefined,undefined,undefined,28,Familiar,17,NA,NA,NA,NA,28,9,34,1,28,16,22,0,0,1,4750.664999941364,undefined,undefined,undefined,
cd3yhyzx0f,undefined,undefined,undefined,undefined,29,Know,36,HANNAH,MARY,false,8957.984999986365,29,8,31,2,29,26,1,0,0,0,3684.0099999681115,undefined,undefined,undefined,
cd3yhyzx0f,undefined,undefined,undefined,undefined,30,Familiar,22,NA,NA,NA,NA,30,28,26,0,30,27,18,0,2,0,1704.5599999837577,undefined,undefined,undefined,
cd3yhyzx0f,undefined,undefined,undefined,undefined,31,Familiar,31,NA,NA,NA,NA,31,36,6,1,31,8,31,0,2,1,2142.475000000559,undefined,undefined,undefined,
cd3yhyzx0f,undefined,undefined,undefined,undefined,32,Know,18,ELIZABETH,BRIANNA,false,22310.769999981858,32,19,28,0,32,7,11,0,1,0,5389.895000029355,undefined,undefined,undefined,
cd3yhyzx0f,undefined,undefined,undefined,undefined,33,Know,4,MARY,MARY,true,9334.894999978133,33,25,21,1,33,25,21,0,1,0,1061.435000039637,undefined,undefined,undefined,
cd3yhyzx0f,undefined,undefined,undefined,undefined,34,Familiar,16,NA,NA,NA,NA,34,34,9,0,34,31,15,0,0,0,1358.890000032261,undefined,undefined,undefined,
cd3yhyzx0f,undefined,undefined,undefined,undefined,35,Know,2,STEPHANIE,BETH,false,22935.18499995116,35,5,23,2,35,2,7,1,1,1,1318.4100000653416,undefined,undefined,undefined,
cd3yhyzx0f,undefined,undefined,undefined,undefined,36,Familiar,28,NA,NA,NA,NA,36,6,25,1,36,28,28,1,0,1,1060.1399999577552,undefined,undefined,undefined,
cd3yhyzx0f,undefined,undefined,undefined,undefined,37,Familiar,20,NA,NA,NA,NA,37,11,8,0,undefined,undefined,undefined,undefined,undefined,undefined,undefined,undefined,undefined,undefined,
cd3yhyzx0f,undefined,undefined,undefined,undefined,38,Know,33,BRIANNA,BRIANNA,true,8002.07499996759,38,35,27,2,undefined,undefined,undefined,undefined,undefined,undefined,undefined,undefined,undefined,undefined,
cd3yhyzx0f,undefined,undefined,undefined,undefined,39,Familiar,13,NA,NA,NA,NA,39,21,13,1,undefined,undefined,undefined,undefined,undefined,undefined,undefined,undefined,undefined,undefined,
cd3yhyzx0f,undefined,undefined,undefined,undefined,40,Familiar,19,NA,NA,NA,NA,40,28,26,0,undefined,undefined,undefined,undefined,undefined,undefined,undefined,undefined,undefined,undefined,
cd3yhyzx0f,undefined,undefined,undefined,undefined,41,Know,6,PATRICIA,COURTNEY,false,25021.60500001628,41,33,4,1,undefined,undefined,undefined,undefined,undefined,undefined,undefined,undefined,undefined,undefined,
cd3yhyzx0f,undefined,undefined,undefined,undefined,42,Know,14,ALEXIS,ALEXIS,true,12657.49999997206,42,6,25,1,undefined,undefined,undefined,undefined,undefined,undefined,undefined,undefined,undefined,undefined,
cd3yhyzx0f,undefined,undefined,undefined,undefined,43,Familiar,26,NA,NA,NA,NA,43,12,16,2,undefined,undefined,undefined,undefined,undefined,undefined,undefined,undefined,undefined,undefined,
cd3yhyzx0f,undefined,undefined,undefined,undefined,44,Know,21,ALYSSA,MARGARET,false,19699.380000005476,44,29,32,2,undefined,undefined,undefined,undefined,undefined,undefined,undefined,undefined,undefined,undefined,
cd3yhyzx0f,undefined,undefined,undefined,undefined,45,Know,24,CHLOE,MARGARET,false,7599.7300000162795,45,36,6,1,undefined,undefined,undefined,undefined,undefined,undefined,undefined,undefined,undefined,undefined,
cd3yhyzx0f,undefined,undefined,undefined,undefined,46,Familiar,10,NA,NA,NA,NA,46,23,20,2,undefined,undefined,undefined,undefined,undefined,undefined,undefined,undefined,undefined,undefined,
cd3yhyzx0f,undefined,undefined,undefined,undefined,47,Know,25,COURTNEY,COURTNEY,true,5060.330000007525,47,18,5,1,undefined,undefined,undefined,undefined,undefined,undefined,undefined,undefined,undefined,undefined,
cd3yhyzx0f,undefined,undefined,undefined,undefined,48,Know,9,MARGARET, BETTY,false,37326.5900000697,48,22,3,0,undefined,undefined,undefined,undefined,undefined,undefined,undefined,undefined,undefined,undefined,
cd3yhyzx0f,undefined,undefined,undefined,undefined,49,Familiar,34,NA,NA,NA,NA,49,27,18,2,undefined,undefined,undefined,undefined,undefined,undefined,undefined,undefined,undefined,undefined,
cd3yhyzx0f,undefined,undefined,undefined,undefined,50,Know,21,ALYSSA,ALYSSA,true,3948.5100000165403,50,32,14,2,undefined,undefined,undefined,undefined,undefined,undefined,undefined,undefined,undefined,undefined,
cd3yhyzx0f,undefined,undefined,undefined,undefined,51,Familiar,19,NA,NA,NA,NA,51,9,34,1,undefined,undefined,undefined,undefined,undefined,undefined,undefined,undefined,undefined,undefined,
cd3yhyzx0f,undefined,undefined,undefined,undefined,52,Familiar,20,NA,NA,NA,NA,52,4,17,1,undefined,undefined,undefined,undefined,undefined,undefined,undefined,undefined,undefined,undefined,
cd3yhyzx0f,undefined,undefined,undefined,undefined,53,Know,33,BRIANNA,BRIANNA,true,5769.465000019409,53,34,9,0,undefined,undefined,undefined,undefined,undefined,undefined,undefined,undefined,undefined,undefined,
cd3yhyzx0f,undefined,undefined,undefined,undefined,54,Familiar,10,NA,NA,NA,NA,54,8,31,2,undefined,undefined,undefined,undefined,undefined,undefined,undefined,undefined,undefined,undefined,
cd3yhyzx0f,undefined,undefined,undefined,undefined,55,Familiar,13,NA,NA,NA,NA,55,13,2,0,undefined,undefined,undefined,undefined,undefined,undefined,undefined,undefined,undefined,undefined,
cd3yhyzx0f,undefined,undefined,undefined,undefined,56,Know,24,CHLOE,CHLOE,true,3300.899999914691,56,15,12,2,undefined,undefined,undefined,undefined,undefined,undefined,undefined,undefined,undefined,undefined,
cd3yhyzx0f,undefined,undefined,undefined,undefined,57,Know,18,ELIZABETH,ELIZABETH,true,7091.01999993436,57,30,24,2,undefined,undefined,undefined,undefined,undefined,undefined,undefined,undefined,undefined,undefined,
cd3yhyzx0f,undefined,undefined,undefined,undefined,58,Familiar,28,NA,NA,NA,NA,58,31,15,0,undefined,undefined,undefined,undefined,undefined,undefined,undefined,undefined,undefined,undefined,
cd3yhyzx0f,undefined,undefined,undefined,undefined,59,Know,36,HANNAH,MARY,false,7094.069999991916,59,17,30,0,undefined,undefined,undefined,undefined,undefined,undefined,undefined,undefined,undefined,undefined,
cd3yhyzx0f,undefined,undefined,undefined,undefined,60,Know,4,MARY,MARY,true,4438.800000003539,60,1,10,2,undefined,undefined,undefined,undefined,undefined,undefined,undefined,undefined,undefined,undefined,
cd3yhyzx0f,undefined,undefined,undefined,undefined,61,Familiar,31,NA,NA,NA,NA,61,3,36,2,undefined,undefined,undefined,undefined,undefined,undefined,undefined,undefined,undefined,undefined,
cd3yhyzx0f,undefined,undefined,undefined,undefined,62,Know,14,ALEXIS,ALEXIS,true,3839.920000056736,62,7,11,1,undefined,undefined,undefined,undefined,undefined,undefined,undefined,undefined,undefined,undefined,
cd3yhyzx0f,undefined,undefined,undefined,undefined,63,Know,6,PATRICIA,PATRICIA,true,14590.895000030287,63,5,23,2,undefined,undefined,undefined,undefined,undefined,undefined,undefined,undefined,undefined,undefined,
cd3yhyzx0f,undefined,undefined,undefined,undefined,64,Familiar,16,NA,NA,NA,NA,64,25,21,1,undefined,undefined,undefined,undefined,undefined,undefined,undefined,undefined,undefined,undefined,
cd3yhyzx0f,undefined,undefined,undefined,undefined,65,Know,2,STEPHANIE,STEPHANIE,true,8096.9150000019,65,10,19,0,undefined,undefined,undefined,undefined,undefined,undefined,undefined,undefined,undefined,undefined,
cd3yhyzx0f,undefined,undefined,undefined,undefined,66,Familiar,11,NA,NA,NA,NA,66,24,7,1,undefined,undefined,undefined,undefined,undefined,undefined,undefined,undefined,undefined,undefined,
cd3yhyzx0f,undefined,undefined,undefined,undefined,67,Know,9,MARGARET,MARGARET,true,5604.824999929406,67,26,1,0,undefined,undefined,undefined,undefined,undefined,undefined,undefined,undefined,undefined,undefined,
cd3yhyzx0f,undefined,undefined,undefined,undefined,68,Know,25,COURTNEY,COURTNEY,true,4902.895000064746,68,14,33,1,undefined,undefined,undefined,undefined,undefined,undefined,undefined,undefined,undefined,undefined,
cd3yhyzx0f,undefined,undefined,undefined,undefined,69,Familiar,26,NA,NA,NA,NA,69,20,35,0,undefined,undefined,undefined,undefined,undefined,undefined,undefined,undefined,undefined,undefined,
cd3yhyzx0f,undefined,undefined,undefined,undefined,70,Familiar,17,NA,NA,NA,NA,70,2,29,1,undefined,undefined,undefined,undefined,undefined,undefined,undefined,undefined,undefined,undefined,
cd3yhyzx0f,undefined,undefined,undefined,undefined,71,Know,7,HAZEL,ELIZABETH,false,15711.969999945723,71,19,28,0,undefined,undefined,undefined,undefined,undefined,undefined,undefined,undefined,undefined,undefined,
cd3yhyzx0f,undefined,undefined,undefined,undefined,72,Familiar,22,NA,NA,NA,NA,72,16,22,0,undefined,undefined,undefined,undefined,undefined,undefined,undefined,undefined,undefined,undefined,
cd3yhyzx0f,undefined,undefined,undefined,undefined,73,Familiar,10,NA,NA,NA,NA,undefined,undefined,undefined,undefined,undefined,undefined,undefined,undefined,undefined,undefined,undefined,undefined,undefined,undefined,
cd3yhyzx0f,undefined,undefined,undefined,undefined,74,Know,36,HANNAH,HANNAH,true,6134.824999957345,undefined,undefined,undefined,undefined,undefined,undefined,undefined,undefined,undefined,undefined,undefined,undefined,undefined,undefined,
cd3yhyzx0f,undefined,undefined,undefined,undefined,75,Know,6,PATRICIA,PATRICIA,true,4758.330000098795,undefined,undefined,undefined,undefined,undefined,undefined,undefined,undefined,undefined,undefined,undefined,undefined,undefined,undefined,
cd3yhyzx0f,undefined,undefined,undefined,undefined,76,Familiar,11,NA,NA,NA,NA,undefined,undefined,undefined,undefined,undefined,undefined,undefined,undefined,undefined,undefined,undefined,undefined,undefined,undefined,
cd3yhyzx0f,undefined,undefined,undefined,undefined,77,Familiar,28,NA,NA,NA,NA,undefined,undefined,undefined,undefined,undefined,undefined,undefined,undefined,undefined,undefined,undefined,undefined,undefined,undefined,
cd3yhyzx0f,undefined,undefined,undefined,undefined,78,Know,4,MARY,MARY,true,4064.8849999997765,undefined,undefined,undefined,undefined,undefined,undefined,undefined,undefined,undefined,undefined,undefined,undefined,undefined,undefined,
cd3yhyzx0f,undefined,undefined,undefined,undefined,79,Know,21,ALYSSA,ALYSSA,true,3893.995000049472,undefined,undefined,undefined,undefined,undefined,undefined,undefined,undefined,undefined,undefined,undefined,undefined,undefined,undefined,
cd3yhyzx0f,undefined,undefined,undefined,undefined,80,Familiar,31,NA,NA,NA,NA,undefined,undefined,undefined,undefined,undefined,undefined,undefined,undefined,undefined,undefined,undefined,undefined,undefined,undefined,
cd3yhyzx0f,undefined,undefined,undefined,undefined,81,Familiar,26,NA,NA,NA,NA,undefined,undefined,undefined,undefined,undefined,undefined,undefined,undefined,undefined,undefined,undefined,undefined,undefined,undefined,
cd3yhyzx0f,undefined,undefined,undefined,undefined,82,Know,33,BRIANNA,BRIANNA,true,7180.885000037961,undefined,undefined,undefined,undefined,undefined,undefined,undefined,undefined,undefined,undefined,undefined,undefined,undefined,undefined,
cd3yhyzx0f,undefined,undefined,undefined,undefined,83,Familiar,22,NA,NA,NA,NA,undefined,undefined,undefined,undefined,undefined,undefined,undefined,undefined,undefined,undefined,undefined,undefined,undefined,undefined,
cd3yhyzx0f,undefined,undefined,undefined,undefined,84,Know,24,CHLOE,CHLOE,true,3601.52000002563,undefined,undefined,undefined,undefined,undefined,undefined,undefined,undefined,undefined,undefined,undefined,undefined,undefined,undefined,
cd3yhyzx0f,undefined,undefined,undefined,undefined,85,Know,25,COURTNEY,COURTNEY,true,4797.279999940656,undefined,undefined,undefined,undefined,undefined,undefined,undefined,undefined,undefined,undefined,undefined,undefined,undefined,undefined,
cd3yhyzx0f,undefined,undefined,undefined,undefined,86,Familiar,16,NA,NA,NA,NA,undefined,undefined,undefined,undefined,undefined,undefined,undefined,undefined,undefined,undefined,undefined,undefined,undefined,undefined,
cd3yhyzx0f,undefined,undefined,undefined,undefined,87,Know,18,ELIZABETH,HAZEL,false,14322.649999987334,undefined,undefined,undefined,undefined,undefined,undefined,undefined,undefined,undefined,undefined,undefined,undefined,undefined,undefined,
cd3yhyzx0f,undefined,undefined,undefined,undefined,88,Know,9,MARGARET,MARGARET,true,4167.669999995269,undefined,undefined,undefined,undefined,undefined,undefined,undefined,undefined,undefined,undefined,undefined,undefined,undefined,undefined,
cd3yhyzx0f,undefined,undefined,undefined,undefined,89,Familiar,34,NA,NA,NA,NA,undefined,undefined,undefined,undefined,undefined,undefined,undefined,undefined,undefined,undefined,undefined,undefined,undefined,undefined,
cd3yhyzx0f,undefined,undefined,undefined,undefined,90,Know,14,ALEXIS,ALEXIS,true,3357.170000090264,undefined,undefined,undefined,undefined,undefined,undefined,undefined,undefined,undefined,undefined,undefined,undefined,undefined,undefined,
cd3yhyzx0f,undefined,undefined,undefined,undefined,91,Familiar,13,NA,NA,NA,NA,undefined,undefined,undefined,undefined,undefined,undefined,undefined,undefined,undefined,undefined,undefined,undefined,undefined,undefined,
cd3yhyzx0f,undefined,undefined,undefined,undefined,92,Know,2,STEPHANIE,STEPHANIE,true,4959.2849999899045,undefined,undefined,undefined,undefined,undefined,undefined,undefined,undefined,undefined,undefined,undefined,undefined,undefined,undefined,
cd3yhyzx0f,undefined,undefined,undefined,undefined,93,Familiar,17,NA,NA,NA,NA,undefined,undefined,undefined,undefined,undefined,undefined,undefined,undefined,undefined,undefined,undefined,undefined,undefined,undefined,
cd3yhyzx0f,undefined,undefined,undefined,undefined,94,Know,7,HAZEL,HAZEL,true,5109.045000048354,undefined,undefined,undefined,undefined,undefined,undefined,undefined,undefined,undefined,undefined,undefined,undefined,undefined,undefined,
cd3yhyzx0f,undefined,undefined,undefined,undefined,95,Familiar,20,NA,NA,NA,NA,undefined,undefined,undefined,undefined,undefined,undefined,undefined,undefined,undefined,undefined,undefined,undefined,undefined,undefined,
cd3yhyzx0f,undefined,undefined,undefined,undefined,96,Familiar,19,NA,NA,NA,NA,undefined,undefined,undefined,undefined,undefined,undefined,undefined,undefined,undefined,undefined,undefined,undefined,undefined,undefined,
