SubNum,SubNum_demo,Exp_start_time,Exp_today_date,Exp_today_time,TrialNum,Condition,Face,Name,Response,NameAcc,RespTime,StudyTrialNum,StudyFace,StudyContext,StudyFamCond,TestTrialNum,TestFace,TestContext,TestSDCond,TestFamCond,TestResponse,TestResponseTime,Exp_end_time,Distractor_1_duration,Distractor_2_duration,
b7ogjfknlq,4wn7lwhlng,Sun Oct 18 2020 10:15:28 GMT-0500 (Central Daylight Time),2020-10-18,10:15:28,1,Familiar,15,NA,NA,NA,NA,1,33,25,2,1,15,13,0,0,0,2612.04499998712,10:40:56,123519.25499999197,60763.12000001781,
b7ogjfknlq,undefined,undefined,undefined,undefined,2,Know,5,HANNAH,HANNAH,true,5239.499999996042,2,22,26,2,2,16,32,1,1,1,3459.0299999981653,undefined,139745.70999998832,undefined,
b7ogjfknlq,undefined,undefined,undefined,undefined,3,Know,32,LAUREN,LAUREN,true,5799.1150000016205,3,19,29,0,3,21,4,1,2,1,1295.5699999874923,undefined,undefined,undefined,
b7ogjfknlq,undefined,undefined,undefined,undefined,4,Familiar,26,NA,NA,NA,NA,4,20,22,1,4,35,9,0,2,1,3072.7550000010524,undefined,undefined,undefined,
b7ogjfknlq,undefined,undefined,undefined,undefined,5,Know,17,BRITTANY,BRITTANY,true,9664.72000000067,5,10,35,1,5,32,36,0,1,0,1864.2649999819696,undefined,undefined,undefined,
b7ogjfknlq,undefined,undefined,undefined,undefined,6,Familiar,1,NA,NA,NA,NA,6,26,15,0,6,17,14,0,1,1,2195.5550000129733,undefined,undefined,undefined,
b7ogjfknlq,undefined,undefined,undefined,undefined,7,Familiar,11,NA,NA,NA,NA,7,16,30,1,7,18,20,1,2,0,3439.5349999831524,undefined,undefined,undefined,
b7ogjfknlq,undefined,undefined,undefined,undefined,8,Know,20,ZOEY,ZOEY,true,6674.960000003921,8,36,17,0,8,13,30,1,1,1,1016.1199999856763,undefined,undefined,undefined,
b7ogjfknlq,undefined,undefined,undefined,undefined,9,Know,8,CHLOE,CHLOE,true,5153.265000000829,9,34,5,0,9,25,8,1,2,0,996.6950000089128,undefined,undefined,undefined,
b7ogjfknlq,undefined,undefined,undefined,undefined,10,Familiar,34,NA,NA,NA,NA,10,8,12,1,10,20,22,0,1,1,1301.400000025751,undefined,undefined,undefined,
b7ogjfknlq,undefined,undefined,undefined,undefined,11,Familiar,23,NA,NA,NA,NA,11,2,31,1,11,14,19,0,2,0,1975.0250000215601,undefined,undefined,undefined,
b7ogjfknlq,undefined,undefined,undefined,undefined,12,Know,30,STEPHANIE,STEPHANIE,true,6058.83999998332,12,28,18,2,12,26,15,0,0,0,1090.734999976121,undefined,undefined,undefined,
b7ogjfknlq,undefined,undefined,undefined,undefined,13,Know,2,KAYLA,KAYLA,true,4778.535000019474,13,21,20,2,13,10,10,1,1,1,1491.4999999746215,undefined,undefined,undefined,
b7ogjfknlq,undefined,undefined,undefined,undefined,14,Familiar,4,NA,NA,NA,NA,14,5,33,1,14,27,16,1,2,0,2779.664999980014,undefined,undefined,undefined,
b7ogjfknlq,undefined,undefined,undefined,undefined,15,Know,29,SAMANTHA,SAMANTHA,true,4780.6300000229385,15,11,34,0,15,31,29,1,0,1,1543.4349999995902,undefined,undefined,undefined,
b7ogjfknlq,undefined,undefined,undefined,undefined,16,Familiar,3,NA,NA,NA,NA,16,29,28,1,16,19,7,1,0,0,2226.1449999932665,undefined,undefined,undefined,
b7ogjfknlq,undefined,undefined,undefined,undefined,17,Familiar,31,NA,NA,NA,NA,17,31,7,0,17,7,35,1,1,1,1002.7600000030361,undefined,undefined,undefined,
b7ogjfknlq,undefined,undefined,undefined,undefined,18,Know,13,MADISON,MADISON,true,4173.615000006976,18,35,9,2,18,30,3,0,1,0,2101.474999974016,undefined,undefined,undefined,
b7ogjfknlq,undefined,undefined,undefined,undefined,19,Know,16,ALEXIS,ALEXIS,true,4816.005000000587,19,15,13,0,19,11,34,0,0,0,4117.939999996452,undefined,undefined,undefined,
b7ogjfknlq,undefined,undefined,undefined,undefined,20,Familiar,19,NA,NA,NA,NA,20,23,24,0,20,29,31,1,1,1,4056.255000003148,undefined,undefined,undefined,
b7ogjfknlq,undefined,undefined,undefined,undefined,21,Know,10,AMANDA,AMANDA,true,4714.965000021039,21,24,23,2,21,24,25,1,2,1,1411.549999989802,undefined,undefined,undefined,
b7ogjfknlq,undefined,undefined,undefined,undefined,22,Know,7,NANCY,NANCY,true,9187.714999978198,22,32,36,1,22,6,2,0,2,0,1193.6850000056438,undefined,undefined,undefined,
b7ogjfknlq,undefined,undefined,undefined,undefined,23,Familiar,12,NA,NA,NA,NA,23,1,21,0,23,8,12,0,1,0,1281.0800000152085,undefined,undefined,undefined,
b7ogjfknlq,undefined,undefined,undefined,undefined,24,Familiar,36,NA,NA,NA,NA,24,30,3,1,24,28,18,0,2,0,1549.9650000128895,undefined,undefined,undefined,
b7ogjfknlq,undefined,undefined,undefined,undefined,25,Know,8,CHLOE,ALEXIS,false,12436.635000020033,25,12,27,0,25,23,24,0,0,1,1690.9000000159722,undefined,undefined,undefined,
b7ogjfknlq,undefined,undefined,undefined,undefined,26,Know,30,STEPHANIE,LAUREN,false,5749.674999999115,26,25,16,2,26,4,27,1,0,1,2341.1250000062864,undefined,undefined,undefined,
b7ogjfknlq,undefined,undefined,undefined,undefined,27,Familiar,23,NA,NA,NA,NA,27,7,10,1,27,12,11,1,0,1,1514.0599999867845,undefined,undefined,undefined,
b7ogjfknlq,undefined,undefined,undefined,undefined,28,Know,2,KAYLA,ZOEY,false,5052.885000011884,28,6,2,2,28,22,26,0,2,0,1308.8749999878928,undefined,undefined,undefined,
b7ogjfknlq,undefined,undefined,undefined,undefined,29,Know,7,NANCY,AMANDA,false,14330.084999994142,29,9,1,2,29,5,33,0,1,0,3627.489999984391,undefined,undefined,undefined,
b7ogjfknlq,undefined,undefined,undefined,undefined,30,Familiar,15,NA,NA,NA,NA,30,17,14,1,30,33,23,1,2,1,2706.420000002254,undefined,undefined,undefined,
b7ogjfknlq,undefined,undefined,undefined,undefined,31,Know,10,AMANDA,AMANDA,true,12687.264999985928,31,3,6,0,31,36,6,1,0,1,828.6550000193529,undefined,undefined,undefined,
b7ogjfknlq,undefined,undefined,undefined,undefined,32,Familiar,31,NA,NA,NA,NA,32,27,8,2,32,9,1,0,2,0,2936.8949999916367,undefined,undefined,undefined,
b7ogjfknlq,undefined,undefined,undefined,undefined,33,Familiar,19,NA,NA,NA,NA,33,18,4,2,33,2,28,1,1,1,1850.8699999947567,undefined,undefined,undefined,
b7ogjfknlq,undefined,undefined,undefined,undefined,34,Know,13,MADISON,ZOEY,false,8221.675000007963,34,13,32,1,34,3,17,1,0,1,1425.6849999947008,undefined,undefined,undefined,
b7ogjfknlq,undefined,undefined,undefined,undefined,35,Know,32,LAUREN,LAUREN,true,5321.194999996806,35,14,19,2,35,1,21,0,0,0,1551.9600000116043,undefined,undefined,undefined,
b7ogjfknlq,undefined,undefined,undefined,undefined,36,Familiar,12,NA,NA,NA,NA,36,4,11,0,36,34,5,0,0,1,1836.3250000111293,undefined,undefined,undefined,
b7ogjfknlq,undefined,undefined,undefined,undefined,37,Familiar,3,NA,NA,NA,NA,37,16,30,1,undefined,undefined,undefined,undefined,undefined,undefined,undefined,undefined,undefined,undefined,
b7ogjfknlq,undefined,undefined,undefined,undefined,38,Know,29,SAMANTHA,NANCY,false,27202.740000007907,38,3,6,0,undefined,undefined,undefined,undefined,undefined,undefined,undefined,undefined,undefined,undefined,
b7ogjfknlq,undefined,undefined,undefined,undefined,39,Familiar,26,NA,NA,NA,NA,39,25,16,2,undefined,undefined,undefined,undefined,undefined,undefined,undefined,undefined,undefined,undefined,
b7ogjfknlq,undefined,undefined,undefined,undefined,40,Familiar,36,NA,NA,NA,NA,40,1,21,0,undefined,undefined,undefined,undefined,undefined,undefined,undefined,undefined,undefined,undefined,
b7ogjfknlq,undefined,undefined,undefined,undefined,41,Know,16,ALEXIS,ALEXIS,true,8040.804999996908,41,32,36,1,undefined,undefined,undefined,undefined,undefined,undefined,undefined,undefined,undefined,undefined,
b7ogjfknlq,undefined,undefined,undefined,undefined,42,Know,5,HANNAH,MADISON,false,7024.429999990389,42,18,4,2,undefined,undefined,undefined,undefined,undefined,undefined,undefined,undefined,undefined,undefined,
b7ogjfknlq,undefined,undefined,undefined,undefined,43,Familiar,1,NA,NA,NA,NA,43,30,3,1,undefined,undefined,undefined,undefined,undefined,undefined,undefined,undefined,undefined,undefined,
b7ogjfknlq,undefined,undefined,undefined,undefined,44,Know,17,BRITTANY,KAYLA,false,8029.850000020815,44,7,10,1,undefined,undefined,undefined,undefined,undefined,undefined,undefined,undefined,undefined,undefined,
b7ogjfknlq,undefined,undefined,undefined,undefined,45,Familiar,4,NA,NA,NA,NA,45,27,8,2,undefined,undefined,undefined,undefined,undefined,undefined,undefined,undefined,undefined,undefined,
b7ogjfknlq,undefined,undefined,undefined,undefined,46,Know,20,ZOEY,EMILY,false,10640.765000018291,46,20,22,1,undefined,undefined,undefined,undefined,undefined,undefined,undefined,undefined,undefined,undefined,
b7ogjfknlq,undefined,undefined,undefined,undefined,47,Familiar,34,NA,NA,NA,NA,47,22,26,2,undefined,undefined,undefined,undefined,undefined,undefined,undefined,undefined,undefined,undefined,
b7ogjfknlq,undefined,undefined,undefined,undefined,48,Familiar,11,NA,NA,NA,NA,48,12,27,0,undefined,undefined,undefined,undefined,undefined,undefined,undefined,undefined,undefined,undefined,
b7ogjfknlq,undefined,undefined,undefined,undefined,49,Know,16,ALEXIS,ALEXIS,true,5201.119999983348,49,26,15,0,undefined,undefined,undefined,undefined,undefined,undefined,undefined,undefined,undefined,undefined,
b7ogjfknlq,undefined,undefined,undefined,undefined,50,Know,13,MADISON,KAYLA,false,14162.440000014612,50,33,25,2,undefined,undefined,undefined,undefined,undefined,undefined,undefined,undefined,undefined,undefined,
b7ogjfknlq,undefined,undefined,undefined,undefined,51,Familiar,23,NA,NA,NA,NA,51,35,9,2,undefined,undefined,undefined,undefined,undefined,undefined,undefined,undefined,undefined,undefined,
b7ogjfknlq,undefined,undefined,undefined,undefined,52,Familiar,4,NA,NA,NA,NA,52,15,13,0,undefined,undefined,undefined,undefined,undefined,undefined,undefined,undefined,undefined,undefined,
b7ogjfknlq,undefined,undefined,undefined,undefined,53,Know,29,SAMANTHA,AMANDA,false,12354.250000003958,53,8,12,1,undefined,undefined,undefined,undefined,undefined,undefined,undefined,undefined,undefined,undefined,
b7ogjfknlq,undefined,undefined,undefined,undefined,54,Familiar,15,NA,NA,NA,NA,54,29,28,1,undefined,undefined,undefined,undefined,undefined,undefined,undefined,undefined,undefined,undefined,
b7ogjfknlq,undefined,undefined,undefined,undefined,55,Know,7,NANCY,SARAH,false,6805.49999998766,55,24,23,2,undefined,undefined,undefined,undefined,undefined,undefined,undefined,undefined,undefined,undefined,
b7ogjfknlq,undefined,undefined,undefined,undefined,56,Know,32,LAUREN,LAUREN,true,5307.295000005979,56,6,2,2,undefined,undefined,undefined,undefined,undefined,undefined,undefined,undefined,undefined,undefined,
b7ogjfknlq,undefined,undefined,undefined,undefined,57,Familiar,26,NA,NA,NA,NA,57,31,7,0,undefined,undefined,undefined,undefined,undefined,undefined,undefined,undefined,undefined,undefined,
b7ogjfknlq,undefined,undefined,undefined,undefined,58,Know,5,HANNAH,NANCY,false,17888.864999986254,58,28,18,2,undefined,undefined,undefined,undefined,undefined,undefined,undefined,undefined,undefined,undefined,
b7ogjfknlq,undefined,undefined,undefined,undefined,59,Familiar,3,NA,NA,NA,NA,59,4,11,0,undefined,undefined,undefined,undefined,undefined,undefined,undefined,undefined,undefined,undefined,
b7ogjfknlq,undefined,undefined,undefined,undefined,60,Familiar,34,NA,NA,NA,NA,60,2,31,1,undefined,undefined,undefined,undefined,undefined,undefined,undefined,undefined,undefined,undefined,
b7ogjfknlq,undefined,undefined,undefined,undefined,61,Know,17,BRITTANY,AMANDA,false,19461.329999990994,61,19,29,0,undefined,undefined,undefined,undefined,undefined,undefined,undefined,undefined,undefined,undefined,
b7ogjfknlq,undefined,undefined,undefined,undefined,62,Familiar,36,NA,NA,NA,NA,62,34,5,0,undefined,undefined,undefined,undefined,undefined,undefined,undefined,undefined,undefined,undefined,
b7ogjfknlq,undefined,undefined,undefined,undefined,63,Familiar,31,NA,NA,NA,NA,63,9,1,2,undefined,undefined,undefined,undefined,undefined,undefined,undefined,undefined,undefined,undefined,
b7ogjfknlq,undefined,undefined,undefined,undefined,64,Know,20,ZOEY,ZOEY,true,5806.264999991981,64,23,24,0,undefined,undefined,undefined,undefined,undefined,undefined,undefined,undefined,undefined,undefined,
b7ogjfknlq,undefined,undefined,undefined,undefined,65,Familiar,11,NA,NA,NA,NA,65,10,35,1,undefined,undefined,undefined,undefined,undefined,undefined,undefined,undefined,undefined,undefined,
b7ogjfknlq,undefined,undefined,undefined,undefined,66,Know,2,KAYLA,NANCY,false,33428.89000001014,66,17,14,1,undefined,undefined,undefined,undefined,undefined,undefined,undefined,undefined,undefined,undefined,
b7ogjfknlq,undefined,undefined,undefined,undefined,67,Know,10,AMANDA,BRITTANY,false,13557.320000021718,67,14,19,2,undefined,undefined,undefined,undefined,undefined,undefined,undefined,undefined,undefined,undefined,
b7ogjfknlq,undefined,undefined,undefined,undefined,68,Familiar,19,NA,NA,NA,NA,68,11,34,0,undefined,undefined,undefined,undefined,undefined,undefined,undefined,undefined,undefined,undefined,
b7ogjfknlq,undefined,undefined,undefined,undefined,69,Know,30,STEPHANIE,SAMANTHA,false,8532.104999991134,69,36,17,0,undefined,undefined,undefined,undefined,undefined,undefined,undefined,undefined,undefined,undefined,
b7ogjfknlq,undefined,undefined,undefined,undefined,70,Know,8,CHLOE,NANCY,false,14370.150000002468,70,21,20,2,undefined,undefined,undefined,undefined,undefined,undefined,undefined,undefined,undefined,undefined,
b7ogjfknlq,undefined,undefined,undefined,undefined,71,Familiar,12,NA,NA,NA,NA,71,5,33,1,undefined,undefined,undefined,undefined,undefined,undefined,undefined,undefined,undefined,undefined,
b7ogjfknlq,undefined,undefined,undefined,undefined,72,Familiar,1,NA,NA,NA,NA,72,13,32,1,undefined,undefined,undefined,undefined,undefined,undefined,undefined,undefined,undefined,undefined,
b7ogjfknlq,undefined,undefined,undefined,undefined,73,Know,8,CHLOE,CHLOW,false,4815.375000005588,undefined,undefined,undefined,undefined,undefined,undefined,undefined,undefined,undefined,undefined,undefined,undefined,undefined,undefined,
b7ogjfknlq,undefined,undefined,undefined,undefined,74,Familiar,34,NA,NA,NA,NA,undefined,undefined,undefined,undefined,undefined,undefined,undefined,undefined,undefined,undefined,undefined,undefined,undefined,undefined,
b7ogjfknlq,undefined,undefined,undefined,undefined,75,Familiar,1,NA,NA,NA,NA,undefined,undefined,undefined,undefined,undefined,undefined,undefined,undefined,undefined,undefined,undefined,undefined,undefined,undefined,
b7ogjfknlq,undefined,undefined,undefined,undefined,76,Know,30,STEPHANIE,STEPHAIE,false,4864.285000017844,undefined,undefined,undefined,undefined,undefined,undefined,undefined,undefined,undefined,undefined,undefined,undefined,undefined,undefined,
b7ogjfknlq,undefined,undefined,undefined,undefined,77,Familiar,23,NA,NA,NA,NA,undefined,undefined,undefined,undefined,undefined,undefined,undefined,undefined,undefined,undefined,undefined,undefined,undefined,undefined,
b7ogjfknlq,undefined,undefined,undefined,undefined,78,Familiar,15,NA,NA,NA,NA,undefined,undefined,undefined,undefined,undefined,undefined,undefined,undefined,undefined,undefined,undefined,undefined,undefined,undefined,
b7ogjfknlq,undefined,undefined,undefined,undefined,79,Know,17,BRITTANY,BRITTANY,true,12527.084999979706,undefined,undefined,undefined,undefined,undefined,undefined,undefined,undefined,undefined,undefined,undefined,undefined,undefined,undefined,
b7ogjfknlq,undefined,undefined,undefined,undefined,80,Familiar,12,NA,NA,NA,NA,undefined,undefined,undefined,undefined,undefined,undefined,undefined,undefined,undefined,undefined,undefined,undefined,undefined,undefined,
b7ogjfknlq,undefined,undefined,undefined,undefined,81,Familiar,19,NA,NA,NA,NA,undefined,undefined,undefined,undefined,undefined,undefined,undefined,undefined,undefined,undefined,undefined,undefined,undefined,undefined,
b7ogjfknlq,undefined,undefined,undefined,undefined,82,Know,16,ALEXIS,ALEXIS,true,4638.100000011036,undefined,undefined,undefined,undefined,undefined,undefined,undefined,undefined,undefined,undefined,undefined,undefined,undefined,undefined,
b7ogjfknlq,undefined,undefined,undefined,undefined,83,Know,5,HANNAH,MADISON,false,9747.33000001288,undefined,undefined,undefined,undefined,undefined,undefined,undefined,undefined,undefined,undefined,undefined,undefined,undefined,undefined,
b7ogjfknlq,undefined,undefined,undefined,undefined,84,Familiar,26,NA,NA,NA,NA,undefined,undefined,undefined,undefined,undefined,undefined,undefined,undefined,undefined,undefined,undefined,undefined,undefined,undefined,
b7ogjfknlq,undefined,undefined,undefined,undefined,85,Know,2,KAYLA,KAYLA,true,7677.945000003092,undefined,undefined,undefined,undefined,undefined,undefined,undefined,undefined,undefined,undefined,undefined,undefined,undefined,undefined,
b7ogjfknlq,undefined,undefined,undefined,undefined,86,Know,29,SAMANTHA,SAMANTHA,true,13045.714999985648,undefined,undefined,undefined,undefined,undefined,undefined,undefined,undefined,undefined,undefined,undefined,undefined,undefined,undefined,
b7ogjfknlq,undefined,undefined,undefined,undefined,87,Familiar,3,NA,NA,NA,NA,undefined,undefined,undefined,undefined,undefined,undefined,undefined,undefined,undefined,undefined,undefined,undefined,undefined,undefined,
b7ogjfknlq,undefined,undefined,undefined,undefined,88,Familiar,31,NA,NA,NA,NA,undefined,undefined,undefined,undefined,undefined,undefined,undefined,undefined,undefined,undefined,undefined,undefined,undefined,undefined,
b7ogjfknlq,undefined,undefined,undefined,undefined,89,Know,20,ZOEY,NANCY,false,13708.149999991292,undefined,undefined,undefined,undefined,undefined,undefined,undefined,undefined,undefined,undefined,undefined,undefined,undefined,undefined,
b7ogjfknlq,undefined,undefined,undefined,undefined,90,Familiar,4,NA,NA,NA,NA,undefined,undefined,undefined,undefined,undefined,undefined,undefined,undefined,undefined,undefined,undefined,undefined,undefined,undefined,
b7ogjfknlq,undefined,undefined,undefined,undefined,91,Know,7,NANCY,AMANDA,false,8272.690000012517,undefined,undefined,undefined,undefined,undefined,undefined,undefined,undefined,undefined,undefined,undefined,undefined,undefined,undefined,
b7ogjfknlq,undefined,undefined,undefined,undefined,92,Know,10,AMANDA,AMANDA,true,6244.189999997616,undefined,undefined,undefined,undefined,undefined,undefined,undefined,undefined,undefined,undefined,undefined,undefined,undefined,undefined,
b7ogjfknlq,undefined,undefined,undefined,undefined,93,Familiar,11,NA,NA,NA,NA,undefined,undefined,undefined,undefined,undefined,undefined,undefined,undefined,undefined,undefined,undefined,undefined,undefined,undefined,
b7ogjfknlq,undefined,undefined,undefined,undefined,94,Know,13,MADISON,KAYLA,false,7801.7800000088755,undefined,undefined,undefined,undefined,undefined,undefined,undefined,undefined,undefined,undefined,undefined,undefined,undefined,undefined,
b7ogjfknlq,undefined,undefined,undefined,undefined,95,Know,32,LAUREN,LAUREN,true,12544.549999991432,undefined,undefined,undefined,undefined,undefined,undefined,undefined,undefined,undefined,undefined,undefined,undefined,undefined,undefined,
b7ogjfknlq,undefined,undefined,undefined,undefined,96,Familiar,36,NA,NA,NA,NA,undefined,undefined,undefined,undefined,undefined,undefined,undefined,undefined,undefined,undefined,undefined,undefined,undefined,undefined,
