SubNum,SubNum_demo,Exp_start_time,Exp_today_date,Exp_today_time,TrialNum,Condition,Face,Name,Response,NameAcc,RespTime,StudyTrialNum,StudyFace,StudyContext,StudyFamCond,TestTrialNum,TestFace,TestContext,TestSDCond,TestFamCond,TestResponse,TestResponseTime,Exp_end_time,Distractor_1_duration,Distractor_2_duration,
o06de0uwes,epgh8hxsz5,Mon Nov 30 2020 17:39:31 GMT-0600 (CST),2020-11-30,17:39:31,1,Familiar,17,NA,NA,NA,NA,1,24,8,2,1,15,13,0,1,0,3920,18:2:24,121294.99999999988,61987,
o06de0uwes,undefined,undefined,undefined,undefined,2,Familiar,35,NA,NA,NA,NA,2,20,30,2,2,7,35,1,1,1,2867,undefined,undefined,undefined,
o06de0uwes,undefined,undefined,undefined,undefined,3,Know,33,VICTORIA,VICTORIA,true,5230.000000000015,3,9,35,1,3,11,12,0,2,1,1658,undefined,undefined,undefined,
o06de0uwes,undefined,undefined,undefined,undefined,4,Familiar,19,NA,NA,NA,NA,4,26,24,2,4,9,25,1,1,0,1505,undefined,undefined,undefined,
o06de0uwes,undefined,undefined,undefined,undefined,5,Know,5,HANNAH,HANNAH,true,3282.000000000029,5,16,9,0,5,1,9,1,0,1,1629,undefined,undefined,undefined,
o06de0uwes,undefined,undefined,undefined,undefined,6,Know,15,ZOEY,ZOEY,true,3308,6,2,17,2,6,6,10,0,1,0,2188,undefined,undefined,undefined,
o06de0uwes,undefined,undefined,undefined,undefined,7,Familiar,3,NA,NA,NA,NA,7,35,33,0,7,17,23,0,0,0,1646,undefined,undefined,undefined,
o06de0uwes,undefined,undefined,undefined,undefined,8,Know,31,HAZEL,HAZEL,true,3674,8,11,12,2,8,8,16,1,1,1,1571,undefined,undefined,undefined,
o06de0uwes,undefined,undefined,undefined,undefined,9,Familiar,23,NA,NA,NA,NA,9,5,28,1,9,31,27,0,1,1,2570,undefined,undefined,undefined,
o06de0uwes,undefined,undefined,undefined,undefined,10,Familiar,12,NA,NA,NA,NA,10,27,14,2,10,25,15,0,1,1,2121,undefined,undefined,undefined,
o06de0uwes,undefined,undefined,undefined,undefined,11,Know,6,AMANDA,AMANDA,true,5803,11,12,34,0,11,21,30,1,2,1,3143,undefined,undefined,undefined,
o06de0uwes,undefined,undefined,undefined,undefined,12,Familiar,1,NA,NA,NA,NA,12,7,25,1,12,23,19,0,0,0,1856,undefined,undefined,undefined,
o06de0uwes,undefined,undefined,undefined,undefined,13,Know,25,SARAH,SARAH,true,3851,13,36,11,1,13,20,22,1,2,1,1300,undefined,undefined,undefined,
o06de0uwes,undefined,undefined,undefined,undefined,14,Know,36,AUDREY,AUDREY,true,4418,14,19,20,0,14,12,34,0,0,1,1867,undefined,undefined,undefined,
o06de0uwes,undefined,undefined,undefined,undefined,15,Familiar,29,NA,NA,NA,NA,15,29,31,0,15,13,32,0,2,1,1451,undefined,undefined,undefined,
o06de0uwes,undefined,undefined,undefined,undefined,16,Familiar,16,NA,NA,NA,NA,16,28,7,2,16,3,5,0,0,1,2085,undefined,undefined,undefined,
o06de0uwes,undefined,undefined,undefined,undefined,17,Know,8,NICOLE,NICOLE,true,3132,17,10,2,0,17,26,24,0,2,0,1676,undefined,undefined,undefined,
o06de0uwes,undefined,undefined,undefined,undefined,18,Know,32,RACHEL,RACHEL,true,4047,18,8,18,1,18,14,18,1,1,1,1889,undefined,undefined,undefined,
o06de0uwes,undefined,undefined,undefined,undefined,19,Familiar,30,NA,NA,NA,NA,19,33,1,1,19,27,14,0,2,0,1696,undefined,undefined,undefined,
o06de0uwes,undefined,undefined,undefined,undefined,20,Know,9,MADISON,MADISON,true,2953,20,34,26,2,20,16,6,1,0,0,1587,undefined,undefined,undefined,
o06de0uwes,undefined,undefined,undefined,undefined,21,Know,14,PATRICIA,PATRICIA,true,5324.000000000029,21,17,23,0,21,19,20,0,0,0,1564,undefined,undefined,undefined,
o06de0uwes,undefined,undefined,undefined,undefined,22,Familiar,10,NA,NA,NA,NA,22,15,13,1,22,32,11,1,1,1,2051,undefined,undefined,undefined,
o06de0uwes,undefined,undefined,undefined,undefined,23,Know,7,SAMANTHA,SAMANTHA,true,4683,23,23,19,0,23,5,28,0,1,1,1491,undefined,undefined,undefined,
o06de0uwes,undefined,undefined,undefined,undefined,24,Familiar,22,NA,NA,NA,NA,24,4,29,2,24,4,29,0,2,1,1612,undefined,undefined,undefined,
o06de0uwes,undefined,undefined,undefined,undefined,25,Know,31,HAZEL,SAMANTHA,false,10806,25,13,32,2,25,33,1,0,1,0,1444.0000000002328,undefined,undefined,undefined,
o06de0uwes,undefined,undefined,undefined,undefined,26,Know,5,HANNAH,MADISON,false,6074,26,32,3,1,26,35,33,0,0,0,1364,undefined,undefined,undefined,
o06de0uwes,undefined,undefined,undefined,undefined,27,Familiar,10,NA,NA,NA,NA,27,6,10,1,27,34,7,1,2,0,1278,undefined,undefined,undefined,
o06de0uwes,undefined,undefined,undefined,undefined,28,Know,25,SARAH,RACHEL,false,4977,28,1,6,0,28,10,21,1,0,1,1061.0000000002328,undefined,undefined,undefined,
o06de0uwes,undefined,undefined,undefined,undefined,29,Familiar,12,NA,NA,NA,NA,29,22,36,0,29,28,26,1,2,1,1348,undefined,undefined,undefined,
o06de0uwes,undefined,undefined,undefined,undefined,30,Familiar,16,NA,NA,NA,NA,30,14,16,1,30,2,17,0,2,1,1381,undefined,undefined,undefined,
o06de0uwes,undefined,undefined,undefined,undefined,31,Know,6,AMANDA,AMANDA,true,7075,31,3,5,0,31,36,3,1,1,0,2180,undefined,undefined,undefined,
o06de0uwes,undefined,undefined,undefined,undefined,32,Familiar,30,NA,NA,NA,NA,32,25,15,1,32,30,2,1,0,1,1307.0000000002328,undefined,undefined,undefined,
o06de0uwes,undefined,undefined,undefined,undefined,33,Know,15,ZOEY,RACHEL,false,11818,33,31,27,1,33,18,8,1,2,1,1341,undefined,undefined,undefined,
o06de0uwes,undefined,undefined,undefined,undefined,34,Know,33,VICTORIA,RACHEL,false,4781,34,30,21,0,34,29,36,1,0,0,1472.0000000002328,undefined,undefined,undefined,
o06de0uwes,undefined,undefined,undefined,undefined,35,Familiar,22,NA,NA,NA,NA,35,21,22,2,35,24,4,1,2,1,2188,undefined,undefined,undefined,
o06de0uwes,undefined,undefined,undefined,undefined,36,Know,7,SAMANTHA,RACHEL,false,4791,36,18,4,2,36,22,31,1,0,0,1393,undefined,undefined,undefined,
o06de0uwes,undefined,undefined,undefined,undefined,37,Familiar,3,NA,NA,NA,NA,37,10,2,0,undefined,undefined,undefined,undefined,undefined,undefined,undefined,undefined,undefined,undefined,
o06de0uwes,undefined,undefined,undefined,undefined,38,Know,36,AUDREY,ZOEY,false,6911,38,17,23,0,undefined,undefined,undefined,undefined,undefined,undefined,undefined,undefined,undefined,undefined,
o06de0uwes,undefined,undefined,undefined,undefined,39,Familiar,23,NA,NA,NA,NA,39,13,32,2,undefined,undefined,undefined,undefined,undefined,undefined,undefined,undefined,undefined,undefined,
o06de0uwes,undefined,undefined,undefined,undefined,40,Familiar,19,NA,NA,NA,NA,40,18,4,2,undefined,undefined,undefined,undefined,undefined,undefined,undefined,undefined,undefined,undefined,
o06de0uwes,undefined,undefined,undefined,undefined,41,Know,9,MADISON,HAZEL,false,14171,41,6,10,1,undefined,undefined,undefined,undefined,undefined,undefined,undefined,undefined,undefined,undefined,
o06de0uwes,undefined,undefined,undefined,undefined,42,Know,14,PATRICIA,PATRICIA,true,4580,42,29,31,0,undefined,undefined,undefined,undefined,undefined,undefined,undefined,undefined,undefined,undefined,
o06de0uwes,undefined,undefined,undefined,undefined,43,Familiar,35,NA,NA,NA,NA,43,35,33,0,undefined,undefined,undefined,undefined,undefined,undefined,undefined,undefined,undefined,undefined,
o06de0uwes,undefined,undefined,undefined,undefined,44,Familiar,29,NA,NA,NA,NA,44,32,3,1,undefined,undefined,undefined,undefined,undefined,undefined,undefined,undefined,undefined,undefined,
o06de0uwes,undefined,undefined,undefined,undefined,45,Know,8,NICOLE,SAMANTHA,false,5190,45,31,27,1,undefined,undefined,undefined,undefined,undefined,undefined,undefined,undefined,undefined,undefined,
o06de0uwes,undefined,undefined,undefined,undefined,46,Familiar,17,NA,NA,NA,NA,46,30,21,0,undefined,undefined,undefined,undefined,undefined,undefined,undefined,undefined,undefined,undefined,
o06de0uwes,undefined,undefined,undefined,undefined,47,Know,32,RACHEL,ZOEY,false,10673,47,20,30,2,undefined,undefined,undefined,undefined,undefined,undefined,undefined,undefined,undefined,undefined,
o06de0uwes,undefined,undefined,undefined,undefined,48,Familiar,1,NA,NA,NA,NA,48,27,14,2,undefined,undefined,undefined,undefined,undefined,undefined,undefined,undefined,undefined,undefined,
o06de0uwes,undefined,undefined,undefined,undefined,49,Familiar,19,NA,NA,NA,NA,49,1,6,0,undefined,undefined,undefined,undefined,undefined,undefined,undefined,undefined,undefined,undefined,
o06de0uwes,undefined,undefined,undefined,undefined,50,Know,15,ZOEY,ZOEY,true,6041,50,22,36,0,undefined,undefined,undefined,undefined,undefined,undefined,undefined,undefined,undefined,undefined,
o06de0uwes,undefined,undefined,undefined,undefined,51,Familiar,10,NA,NA,NA,NA,51,15,13,1,undefined,undefined,undefined,undefined,undefined,undefined,undefined,undefined,undefined,undefined,
o06de0uwes,undefined,undefined,undefined,undefined,52,Familiar,3,NA,NA,NA,NA,52,16,9,0,undefined,undefined,undefined,undefined,undefined,undefined,undefined,undefined,undefined,undefined,
o06de0uwes,undefined,undefined,undefined,undefined,53,Know,33,VICTORIA,SAMANTHA,false,7103,53,9,35,1,undefined,undefined,undefined,undefined,undefined,undefined,undefined,undefined,undefined,undefined,
o06de0uwes,undefined,undefined,undefined,undefined,54,Familiar,12,NA,NA,NA,NA,54,33,1,1,undefined,undefined,undefined,undefined,undefined,undefined,undefined,undefined,undefined,undefined,
o06de0uwes,undefined,undefined,undefined,undefined,55,Know,31,HAZEL,AUDREY,false,4053,55,3,5,0,undefined,undefined,undefined,undefined,undefined,undefined,undefined,undefined,undefined,undefined,
o06de0uwes,undefined,undefined,undefined,undefined,56,Know,36,AUDREY,AUDREY,true,4760.000000000058,56,36,11,1,undefined,undefined,undefined,undefined,undefined,undefined,undefined,undefined,undefined,undefined,
o06de0uwes,undefined,undefined,undefined,undefined,57,Familiar,17,NA,NA,NA,NA,57,26,24,2,undefined,undefined,undefined,undefined,undefined,undefined,undefined,undefined,undefined,undefined,
o06de0uwes,undefined,undefined,undefined,undefined,58,Familiar,1,NA,NA,NA,NA,58,28,7,2,undefined,undefined,undefined,undefined,undefined,undefined,undefined,undefined,undefined,undefined,
o06de0uwes,undefined,undefined,undefined,undefined,59,Know,8,NICOLE,NICOLE,true,4878,59,25,15,1,undefined,undefined,undefined,undefined,undefined,undefined,undefined,undefined,undefined,undefined,
o06de0uwes,undefined,undefined,undefined,undefined,60,Know,6,AMANDA,ZOEY,false,5540,60,21,22,2,undefined,undefined,undefined,undefined,undefined,undefined,undefined,undefined,undefined,undefined,
o06de0uwes,undefined,undefined,undefined,undefined,61,Familiar,35,NA,NA,NA,NA,61,19,20,0,undefined,undefined,undefined,undefined,undefined,undefined,undefined,undefined,undefined,undefined,
o06de0uwes,undefined,undefined,undefined,undefined,62,Know,32,RACHEL,RACHEL,true,7243.999999999884,62,23,19,0,undefined,undefined,undefined,undefined,undefined,undefined,undefined,undefined,undefined,undefined,
o06de0uwes,undefined,undefined,undefined,undefined,63,Know,14,PATRICIA,PATRICIA,true,4355,63,11,12,2,undefined,undefined,undefined,undefined,undefined,undefined,undefined,undefined,undefined,undefined,
o06de0uwes,undefined,undefined,undefined,undefined,64,Familiar,30,NA,NA,NA,NA,64,34,26,2,undefined,undefined,undefined,undefined,undefined,undefined,undefined,undefined,undefined,undefined,
o06de0uwes,undefined,undefined,undefined,undefined,65,Familiar,16,NA,NA,NA,NA,65,12,34,0,undefined,undefined,undefined,undefined,undefined,undefined,undefined,undefined,undefined,undefined,
o06de0uwes,undefined,undefined,undefined,undefined,66,Know,25,SARAH,SAMANTHA,false,15410,66,4,29,2,undefined,undefined,undefined,undefined,undefined,undefined,undefined,undefined,undefined,undefined,
o06de0uwes,undefined,undefined,undefined,undefined,67,Familiar,29,NA,NA,NA,NA,67,7,25,1,undefined,undefined,undefined,undefined,undefined,undefined,undefined,undefined,undefined,undefined,
o06de0uwes,undefined,undefined,undefined,undefined,68,Familiar,22,NA,NA,NA,NA,68,8,18,1,undefined,undefined,undefined,undefined,undefined,undefined,undefined,undefined,undefined,undefined,
o06de0uwes,undefined,undefined,undefined,undefined,69,Know,5,HANNAH,SAMANTHA,false,5524,69,24,8,2,undefined,undefined,undefined,undefined,undefined,undefined,undefined,undefined,undefined,undefined,
o06de0uwes,undefined,undefined,undefined,undefined,70,Know,7,SAMANTHA,SAMANTHA,true,4857.000000000116,70,2,17,2,undefined,undefined,undefined,undefined,undefined,undefined,undefined,undefined,undefined,undefined,
o06de0uwes,undefined,undefined,undefined,undefined,71,Familiar,23,NA,NA,NA,NA,71,14,16,1,undefined,undefined,undefined,undefined,undefined,undefined,undefined,undefined,undefined,undefined,
o06de0uwes,undefined,undefined,undefined,undefined,72,Know,9,MADISON,RACHEL,false,10248,72,5,28,1,undefined,undefined,undefined,undefined,undefined,undefined,undefined,undefined,undefined,undefined,
o06de0uwes,undefined,undefined,undefined,undefined,73,Know,8,NICOLE,NICOLE,true,3141,undefined,undefined,undefined,undefined,undefined,undefined,undefined,undefined,undefined,undefined,undefined,undefined,undefined,undefined,
o06de0uwes,undefined,undefined,undefined,undefined,74,Familiar,17,NA,NA,NA,NA,undefined,undefined,undefined,undefined,undefined,undefined,undefined,undefined,undefined,undefined,undefined,undefined,undefined,undefined,
o06de0uwes,undefined,undefined,undefined,undefined,75,Familiar,3,NA,NA,NA,NA,undefined,undefined,undefined,undefined,undefined,undefined,undefined,undefined,undefined,undefined,undefined,undefined,undefined,undefined,
o06de0uwes,undefined,undefined,undefined,undefined,76,Know,9,MADISON,MADISON,true,8102,undefined,undefined,undefined,undefined,undefined,undefined,undefined,undefined,undefined,undefined,undefined,undefined,undefined,undefined,
o06de0uwes,undefined,undefined,undefined,undefined,77,Know,25,SARAH,ZOEY,false,4892,undefined,undefined,undefined,undefined,undefined,undefined,undefined,undefined,undefined,undefined,undefined,undefined,undefined,undefined,
o06de0uwes,undefined,undefined,undefined,undefined,78,Familiar,1,NA,NA,NA,NA,undefined,undefined,undefined,undefined,undefined,undefined,undefined,undefined,undefined,undefined,undefined,undefined,undefined,undefined,
o06de0uwes,undefined,undefined,undefined,undefined,79,Know,7,SAMANTHA,ZOEY,false,6407.000000000116,undefined,undefined,undefined,undefined,undefined,undefined,undefined,undefined,undefined,undefined,undefined,undefined,undefined,undefined,
o06de0uwes,undefined,undefined,undefined,undefined,80,Familiar,22,NA,NA,NA,NA,undefined,undefined,undefined,undefined,undefined,undefined,undefined,undefined,undefined,undefined,undefined,undefined,undefined,undefined,
o06de0uwes,undefined,undefined,undefined,undefined,81,Familiar,19,NA,NA,NA,NA,undefined,undefined,undefined,undefined,undefined,undefined,undefined,undefined,undefined,undefined,undefined,undefined,undefined,undefined,
o06de0uwes,undefined,undefined,undefined,undefined,82,Know,31,HAZEL,AUDREY,false,5063,undefined,undefined,undefined,undefined,undefined,undefined,undefined,undefined,undefined,undefined,undefined,undefined,undefined,undefined,
o06de0uwes,undefined,undefined,undefined,undefined,83,Know,15,ZOEY,ZOEY,true,3712,undefined,undefined,undefined,undefined,undefined,undefined,undefined,undefined,undefined,undefined,undefined,undefined,undefined,undefined,
o06de0uwes,undefined,undefined,undefined,undefined,84,Familiar,29,NA,NA,NA,NA,undefined,undefined,undefined,undefined,undefined,undefined,undefined,undefined,undefined,undefined,undefined,undefined,undefined,undefined,
o06de0uwes,undefined,undefined,undefined,undefined,85,Familiar,10,NA,NA,NA,NA,undefined,undefined,undefined,undefined,undefined,undefined,undefined,undefined,undefined,undefined,undefined,undefined,undefined,undefined,
o06de0uwes,undefined,undefined,undefined,undefined,86,Know,33,VICTORIA,SARAH,false,10104,undefined,undefined,undefined,undefined,undefined,undefined,undefined,undefined,undefined,undefined,undefined,undefined,undefined,undefined,
o06de0uwes,undefined,undefined,undefined,undefined,87,Familiar,12,NA,NA,NA,NA,undefined,undefined,undefined,undefined,undefined,undefined,undefined,undefined,undefined,undefined,undefined,undefined,undefined,undefined,
o06de0uwes,undefined,undefined,undefined,undefined,88,Familiar,35,NA,NA,NA,NA,undefined,undefined,undefined,undefined,undefined,undefined,undefined,undefined,undefined,undefined,undefined,undefined,undefined,undefined,
o06de0uwes,undefined,undefined,undefined,undefined,89,Know,5,HANNAH,SARAH,false,9012,undefined,undefined,undefined,undefined,undefined,undefined,undefined,undefined,undefined,undefined,undefined,undefined,undefined,undefined,
o06de0uwes,undefined,undefined,undefined,undefined,90,Know,32,RACHEL,RACHEL,true,6631,undefined,undefined,undefined,undefined,undefined,undefined,undefined,undefined,undefined,undefined,undefined,undefined,undefined,undefined,
o06de0uwes,undefined,undefined,undefined,undefined,91,Familiar,23,NA,NA,NA,NA,undefined,undefined,undefined,undefined,undefined,undefined,undefined,undefined,undefined,undefined,undefined,undefined,undefined,undefined,
o06de0uwes,undefined,undefined,undefined,undefined,92,Know,36,AUDREY,AUDREY,true,3019,undefined,undefined,undefined,undefined,undefined,undefined,undefined,undefined,undefined,undefined,undefined,undefined,undefined,undefined,
o06de0uwes,undefined,undefined,undefined,undefined,93,Know,14,PATRICIA,PATRICIA,true,3473,undefined,undefined,undefined,undefined,undefined,undefined,undefined,undefined,undefined,undefined,undefined,undefined,undefined,undefined,
o06de0uwes,undefined,undefined,undefined,undefined,94,Familiar,16,NA,NA,NA,NA,undefined,undefined,undefined,undefined,undefined,undefined,undefined,undefined,undefined,undefined,undefined,undefined,undefined,undefined,
o06de0uwes,undefined,undefined,undefined,undefined,95,Familiar,30,NA,NA,NA,NA,undefined,undefined,undefined,undefined,undefined,undefined,undefined,undefined,undefined,undefined,undefined,undefined,undefined,undefined,
o06de0uwes,undefined,undefined,undefined,undefined,96,Know,6,AMANDA,AMANDA,true,7396.000000000116,undefined,undefined,undefined,undefined,undefined,undefined,undefined,undefined,undefined,undefined,undefined,undefined,undefined,undefined,
