SubNum,SubNum_demo,Exp_start_time,Exp_today_date,Exp_today_time,TrialNum,Condition,Face,Name,Response,NameAcc,RespTime,StudyTrialNum,StudyFace,StudyContext,StudyFamCond,TestTrialNum,TestFace,TestContext,TestSDCond,TestFamCond,TestResponse,TestResponseTime,Exp_end_time,Distractor_1_duration,Distractor_2_duration,
lshzrmbgem,ydf0cu9mvo,Sun Nov 29 2020 20:54:29 GMT-0600 (CST),2020-11-29,20:54:29,1,Familiar,20,NA,NA,NA,NA,1,5,6,0,1,1,21,0,1,1,2409.999999999767,21:22:27,122570.00000000012,62925,
lshzrmbgem,undefined,undefined,undefined,undefined,2,Familiar,17,NA,NA,NA,NA,2,31,16,2,2,20,17,0,0,1,1996.9999999997672,undefined,132572,undefined,
lshzrmbgem,undefined,undefined,undefined,undefined,3,Know,3,MARGARET,MARGARET,true,6008,3,35,9,2,3,6,11,1,2,0,1185,undefined,undefined,undefined,
lshzrmbgem,undefined,undefined,undefined,undefined,4,Familiar,9,NA,NA,NA,NA,4,18,31,1,4,32,1,1,1,0,1289,undefined,undefined,undefined,
lshzrmbgem,undefined,undefined,undefined,undefined,5,Familiar,11,NA,NA,NA,NA,5,3,34,1,5,11,24,0,0,0,1136,undefined,undefined,undefined,
lshzrmbgem,undefined,undefined,undefined,undefined,6,Know,29,LAUREN,LAUREN,true,3991,6,36,18,0,6,36,29,1,0,1,692.9999999997672,undefined,undefined,undefined,
lshzrmbgem,undefined,undefined,undefined,undefined,7,Know,18,AMANDA,AMANDA,true,3306,7,26,19,1,7,28,4,1,1,0,850,undefined,undefined,undefined,
lshzrmbgem,undefined,undefined,undefined,undefined,8,Familiar,19,NA,NA,NA,NA,8,27,36,1,8,2,20,0,2,1,1057.9999999997672,undefined,undefined,undefined,
lshzrmbgem,undefined,undefined,undefined,undefined,9,Familiar,8,NA,NA,NA,NA,9,19,23,0,9,13,15,0,2,1,729,undefined,undefined,undefined,
lshzrmbgem,undefined,undefined,undefined,undefined,10,Know,26,SARAH,SARAH,true,4570,10,20,17,0,10,23,27,1,1,0,961.9999999997672,undefined,undefined,undefined,
lshzrmbgem,undefined,undefined,undefined,undefined,11,Know,14,ELIZABETH,ELIZABETH,true,4901,11,34,11,2,11,10,18,1,0,0,797,undefined,undefined,undefined,
lshzrmbgem,undefined,undefined,undefined,undefined,12,Familiar,36,NA,NA,NA,NA,12,11,24,0,12,21,6,1,0,0,759,undefined,undefined,undefined,
lshzrmbgem,undefined,undefined,undefined,undefined,13,Know,1,KAYLA,KAYLA,true,5803,13,10,29,0,13,18,31,0,1,0,1658,undefined,undefined,undefined,
lshzrmbgem,undefined,undefined,undefined,undefined,14,Know,7,AUDREY,AUDREY,true,4350,14,24,8,2,14,34,14,1,2,1,1409,undefined,undefined,undefined,
lshzrmbgem,undefined,undefined,undefined,undefined,15,Familiar,4,NA,NA,NA,NA,15,13,15,2,15,22,3,1,1,0,693,undefined,undefined,undefined,
lshzrmbgem,undefined,undefined,undefined,undefined,16,Know,27,EMILY,EMILY,true,4086,16,21,5,0,16,27,33,1,1,0,829,undefined,undefined,undefined,
lshzrmbgem,undefined,undefined,undefined,undefined,17,Familiar,21,NA,NA,NA,NA,17,29,32,1,17,25,22,0,2,0,1145.9999999997672,undefined,undefined,undefined,
lshzrmbgem,undefined,undefined,undefined,undefined,18,Familiar,10,NA,NA,NA,NA,18,7,33,1,18,14,2,0,1,1,764.0000000002328,undefined,undefined,undefined,
lshzrmbgem,undefined,undefined,undefined,undefined,19,Know,22,REBECCA,REBECCA,true,3243,19,8,10,0,19,30,16,1,2,0,1145,undefined,undefined,undefined,
lshzrmbgem,undefined,undefined,undefined,undefined,20,Know,32,NANCY,NANCY,true,4031.999999999971,20,28,1,1,20,19,23,0,0,0,899,undefined,undefined,undefined,
lshzrmbgem,undefined,undefined,undefined,undefined,21,Familiar,12,NA,NA,NA,NA,21,2,20,2,21,5,5,1,0,0,1027.0000000002328,undefined,undefined,undefined,
lshzrmbgem,undefined,undefined,undefined,undefined,22,Know,28,BRITTANY,BRITTANY,true,3531,22,17,12,0,22,33,30,0,2,1,685,undefined,undefined,undefined,
lshzrmbgem,undefined,undefined,undefined,undefined,23,Familiar,5,NA,NA,NA,NA,23,4,28,0,23,29,32,0,1,0,1176,undefined,undefined,undefined,
lshzrmbgem,undefined,undefined,undefined,undefined,24,Know,23,ZOEY,ZOEY,true,4380,24,23,3,1,24,35,9,0,2,1,987,undefined,undefined,undefined,
lshzrmbgem,undefined,undefined,undefined,undefined,25,Familiar,5,NA,NA,NA,NA,25,32,4,1,25,8,10,0,0,0,921.9999999997672,undefined,undefined,undefined,
lshzrmbgem,undefined,undefined,undefined,undefined,26,Know,22,REBECCA,REBECCA ,false,9765,26,15,35,2,26,15,35,0,2,0,1034,undefined,undefined,undefined,
lshzrmbgem,undefined,undefined,undefined,undefined,27,Familiar,4,NA,NA,NA,NA,27,33,30,2,27,31,25,1,2,0,768,undefined,undefined,undefined,
lshzrmbgem,undefined,undefined,undefined,undefined,28,Familiar,11,NA,NA,NA,NA,28,9,13,0,28,24,7,1,2,0,851,undefined,undefined,undefined,
lshzrmbgem,undefined,undefined,undefined,undefined,29,Know,27,EMILY,ZOEY,false,8465,29,14,2,1,29,12,28,1,0,1,477,undefined,undefined,undefined,
lshzrmbgem,undefined,undefined,undefined,undefined,30,Familiar,20,NA,NA,NA,NA,30,25,22,2,30,9,13,0,0,0,604.0000000002328,undefined,undefined,undefined,
lshzrmbgem,undefined,undefined,undefined,undefined,31,Familiar,17,NA,NA,NA,NA,31,30,25,2,31,3,34,0,1,0,5553,undefined,undefined,undefined,
lshzrmbgem,undefined,undefined,undefined,undefined,32,Know,23,ZOEY,AMANDA,false,6945,32,12,26,0,32,7,36,1,1,0,1111,undefined,undefined,undefined,
lshzrmbgem,undefined,undefined,undefined,undefined,33,Know,7,AUDREY,AMANDA,false,9264,33,6,14,2,33,26,19,0,1,0,1271,undefined,undefined,undefined,
lshzrmbgem,undefined,undefined,undefined,undefined,34,Familiar,12,NA,NA,NA,NA,34,22,27,1,34,17,12,0,0,0,955,undefined,undefined,undefined,
lshzrmbgem,undefined,undefined,undefined,undefined,35,Know,18,AMANDA,BRITTANY ,false,8504,35,16,7,2,35,16,8,1,2,1,445.99999999976717,undefined,undefined,undefined,
lshzrmbgem,undefined,undefined,undefined,undefined,36,Know,28,BRITTANY,BRITTANY,true,5889,36,1,21,1,36,4,26,1,0,0,668.9999999997672,undefined,undefined,undefined,
lshzrmbgem,undefined,undefined,undefined,undefined,37,Familiar,10,NA,NA,NA,NA,37,19,23,0,undefined,undefined,undefined,undefined,undefined,undefined,undefined,undefined,undefined,undefined,
lshzrmbgem,undefined,undefined,undefined,undefined,38,Know,32,NANCY,ELIZABETH,false,9952,38,31,16,2,undefined,undefined,undefined,undefined,undefined,undefined,undefined,undefined,undefined,undefined,
lshzrmbgem,undefined,undefined,undefined,undefined,39,Familiar,21,NA,NA,NA,NA,39,8,10,0,undefined,undefined,undefined,undefined,undefined,undefined,undefined,undefined,undefined,undefined,
lshzrmbgem,undefined,undefined,undefined,undefined,40,Know,1,KAYLA,LAUREN,false,11017,40,14,2,1,undefined,undefined,undefined,undefined,undefined,undefined,undefined,undefined,undefined,undefined,
lshzrmbgem,undefined,undefined,undefined,undefined,41,Know,14,ELIZABETH,ELIZABETH,true,7480,41,10,29,0,undefined,undefined,undefined,undefined,undefined,undefined,undefined,undefined,undefined,undefined,
lshzrmbgem,undefined,undefined,undefined,undefined,42,Familiar,19,NA,NA,NA,NA,42,12,26,0,undefined,undefined,undefined,undefined,undefined,undefined,undefined,undefined,undefined,undefined,
lshzrmbgem,undefined,undefined,undefined,undefined,43,Know,29,LAUREN,LAUREN,true,7317,43,33,30,2,undefined,undefined,undefined,undefined,undefined,undefined,undefined,undefined,undefined,undefined,
lshzrmbgem,undefined,undefined,undefined,undefined,44,Know,3,MARGARET,EMILY,false,9831,44,23,3,1,undefined,undefined,undefined,undefined,undefined,undefined,undefined,undefined,undefined,undefined,
lshzrmbgem,undefined,undefined,undefined,undefined,45,Familiar,9,NA,NA,NA,NA,45,25,22,2,undefined,undefined,undefined,undefined,undefined,undefined,undefined,undefined,undefined,undefined,
lshzrmbgem,undefined,undefined,undefined,undefined,46,Familiar,8,NA,NA,NA,NA,46,30,25,2,undefined,undefined,undefined,undefined,undefined,undefined,undefined,undefined,undefined,undefined,
lshzrmbgem,undefined,undefined,undefined,undefined,47,Know,26,SARAH,AMANDA,false,7086,47,20,17,0,undefined,undefined,undefined,undefined,undefined,undefined,undefined,undefined,undefined,undefined,
lshzrmbgem,undefined,undefined,undefined,undefined,48,Familiar,36,NA,NA,NA,NA,48,28,1,1,undefined,undefined,undefined,undefined,undefined,undefined,undefined,undefined,undefined,undefined,
lshzrmbgem,undefined,undefined,undefined,undefined,49,Familiar,21,NA,NA,NA,NA,49,6,14,2,undefined,undefined,undefined,undefined,undefined,undefined,undefined,undefined,undefined,undefined,
lshzrmbgem,undefined,undefined,undefined,undefined,50,Know,18,AMANDA,AUDREY,false,4983,50,3,34,1,undefined,undefined,undefined,undefined,undefined,undefined,undefined,undefined,undefined,undefined,
lshzrmbgem,undefined,undefined,undefined,undefined,51,Familiar,17,NA,NA,NA,NA,51,32,4,1,undefined,undefined,undefined,undefined,undefined,undefined,undefined,undefined,undefined,undefined,
lshzrmbgem,undefined,undefined,undefined,undefined,52,Know,27,EMILY,AUDREY,false,6715.000000000058,52,36,18,0,undefined,undefined,undefined,undefined,undefined,undefined,undefined,undefined,undefined,undefined,
lshzrmbgem,undefined,undefined,undefined,undefined,53,Know,26,SARAH,ZOEY,false,4819,53,26,19,1,undefined,undefined,undefined,undefined,undefined,undefined,undefined,undefined,undefined,undefined,
lshzrmbgem,undefined,undefined,undefined,undefined,54,Familiar,10,NA,NA,NA,NA,54,35,9,2,undefined,undefined,undefined,undefined,undefined,undefined,undefined,undefined,undefined,undefined,
lshzrmbgem,undefined,undefined,undefined,undefined,55,Familiar,4,NA,NA,NA,NA,55,22,27,1,undefined,undefined,undefined,undefined,undefined,undefined,undefined,undefined,undefined,undefined,
lshzrmbgem,undefined,undefined,undefined,undefined,56,Know,28,BRITTANY,EMILY,false,9039.999999999942,56,27,36,1,undefined,undefined,undefined,undefined,undefined,undefined,undefined,undefined,undefined,undefined,
lshzrmbgem,undefined,undefined,undefined,undefined,57,Know,3,MARGARET,MARGARET ,false,7560,57,11,24,0,undefined,undefined,undefined,undefined,undefined,undefined,undefined,undefined,undefined,undefined,
lshzrmbgem,undefined,undefined,undefined,undefined,58,Familiar,9,NA,NA,NA,NA,58,4,28,0,undefined,undefined,undefined,undefined,undefined,undefined,undefined,undefined,undefined,undefined,
lshzrmbgem,undefined,undefined,undefined,undefined,59,Know,29,LAUREN,LAUREN,true,5112,59,13,15,2,undefined,undefined,undefined,undefined,undefined,undefined,undefined,undefined,undefined,undefined,
lshzrmbgem,undefined,undefined,undefined,undefined,60,Familiar,36,NA,NA,NA,NA,60,5,6,0,undefined,undefined,undefined,undefined,undefined,undefined,undefined,undefined,undefined,undefined,
lshzrmbgem,undefined,undefined,undefined,undefined,61,Know,1,KAYLA,ELIZABETH,false,13749.999999999942,61,7,33,1,undefined,undefined,undefined,undefined,undefined,undefined,undefined,undefined,undefined,undefined,
lshzrmbgem,undefined,undefined,undefined,undefined,62,Familiar,8,NA,NA,NA,NA,62,17,12,0,undefined,undefined,undefined,undefined,undefined,undefined,undefined,undefined,undefined,undefined,
lshzrmbgem,undefined,undefined,undefined,undefined,63,Familiar,19,NA,NA,NA,NA,63,29,32,1,undefined,undefined,undefined,undefined,undefined,undefined,undefined,undefined,undefined,undefined,
lshzrmbgem,undefined,undefined,undefined,undefined,64,Know,32,NANCY,EMILY,false,12377,64,18,31,1,undefined,undefined,undefined,undefined,undefined,undefined,undefined,undefined,undefined,undefined,
lshzrmbgem,undefined,undefined,undefined,undefined,65,Know,7,AUDREY,AUDREY,true,4727,65,34,11,2,undefined,undefined,undefined,undefined,undefined,undefined,undefined,undefined,undefined,undefined,
lshzrmbgem,undefined,undefined,undefined,undefined,66,Familiar,12,NA,NA,NA,NA,66,2,20,2,undefined,undefined,undefined,undefined,undefined,undefined,undefined,undefined,undefined,undefined,
lshzrmbgem,undefined,undefined,undefined,undefined,67,Familiar,20,NA,NA,NA,NA,67,21,5,0,undefined,undefined,undefined,undefined,undefined,undefined,undefined,undefined,undefined,undefined,
lshzrmbgem,undefined,undefined,undefined,undefined,68,Know,22,REBECCA,REBECCA,true,5021,68,16,7,2,undefined,undefined,undefined,undefined,undefined,undefined,undefined,undefined,undefined,undefined,
lshzrmbgem,undefined,undefined,undefined,undefined,69,Familiar,5,NA,NA,NA,NA,69,9,13,0,undefined,undefined,undefined,undefined,undefined,undefined,undefined,undefined,undefined,undefined,
lshzrmbgem,undefined,undefined,undefined,undefined,70,Familiar,11,NA,NA,NA,NA,70,1,21,1,undefined,undefined,undefined,undefined,undefined,undefined,undefined,undefined,undefined,undefined,
lshzrmbgem,undefined,undefined,undefined,undefined,71,Know,23,ZOEY,LAUREN,false,10140,71,15,35,2,undefined,undefined,undefined,undefined,undefined,undefined,undefined,undefined,undefined,undefined,
lshzrmbgem,undefined,undefined,undefined,undefined,72,Know,14,ELIZABETH,NANCY,false,18531,72,24,8,2,undefined,undefined,undefined,undefined,undefined,undefined,undefined,undefined,undefined,undefined,
lshzrmbgem,undefined,undefined,undefined,undefined,73,Familiar,10,NA,NA,NA,NA,undefined,undefined,undefined,undefined,undefined,undefined,undefined,undefined,undefined,undefined,undefined,undefined,undefined,undefined,
lshzrmbgem,undefined,undefined,undefined,undefined,74,Familiar,17,NA,NA,NA,NA,undefined,undefined,undefined,undefined,undefined,undefined,undefined,undefined,undefined,undefined,undefined,undefined,undefined,undefined,
lshzrmbgem,undefined,undefined,undefined,undefined,75,Know,27,EMILY,AMANDA,false,5360,undefined,undefined,undefined,undefined,undefined,undefined,undefined,undefined,undefined,undefined,undefined,undefined,undefined,undefined,
lshzrmbgem,undefined,undefined,undefined,undefined,76,Know,1,KAYLA,ELIZABETH,false,11038,undefined,undefined,undefined,undefined,undefined,undefined,undefined,undefined,undefined,undefined,undefined,undefined,undefined,undefined,
lshzrmbgem,undefined,undefined,undefined,undefined,77,Familiar,9,NA,NA,NA,NA,undefined,undefined,undefined,undefined,undefined,undefined,undefined,undefined,undefined,undefined,undefined,undefined,undefined,undefined,
lshzrmbgem,undefined,undefined,undefined,undefined,78,Know,29,LAUREN,LAUREN,true,5990,undefined,undefined,undefined,undefined,undefined,undefined,undefined,undefined,undefined,undefined,undefined,undefined,undefined,undefined,
lshzrmbgem,undefined,undefined,undefined,undefined,79,Know,22,REBECCA,REBECCA,true,4219,undefined,undefined,undefined,undefined,undefined,undefined,undefined,undefined,undefined,undefined,undefined,undefined,undefined,undefined,
lshzrmbgem,undefined,undefined,undefined,undefined,80,Familiar,36,NA,NA,NA,NA,undefined,undefined,undefined,undefined,undefined,undefined,undefined,undefined,undefined,undefined,undefined,undefined,undefined,undefined,
lshzrmbgem,undefined,undefined,undefined,undefined,81,Know,32,NANCY,NANCY,true,6518.999999999884,undefined,undefined,undefined,undefined,undefined,undefined,undefined,undefined,undefined,undefined,undefined,undefined,undefined,undefined,
lshzrmbgem,undefined,undefined,undefined,undefined,82,Familiar,8,NA,NA,NA,NA,undefined,undefined,undefined,undefined,undefined,undefined,undefined,undefined,undefined,undefined,undefined,undefined,undefined,undefined,
lshzrmbgem,undefined,undefined,undefined,undefined,83,Know,18,AMANDA,AMANDA,true,5364,undefined,undefined,undefined,undefined,undefined,undefined,undefined,undefined,undefined,undefined,undefined,undefined,undefined,undefined,
lshzrmbgem,undefined,undefined,undefined,undefined,84,Know,23,ZOEY,EMILY,false,5873,undefined,undefined,undefined,undefined,undefined,undefined,undefined,undefined,undefined,undefined,undefined,undefined,undefined,undefined,
lshzrmbgem,undefined,undefined,undefined,undefined,85,Familiar,20,NA,NA,NA,NA,undefined,undefined,undefined,undefined,undefined,undefined,undefined,undefined,undefined,undefined,undefined,undefined,undefined,undefined,
lshzrmbgem,undefined,undefined,undefined,undefined,86,Know,26,SARAH,SARAH,true,7529,undefined,undefined,undefined,undefined,undefined,undefined,undefined,undefined,undefined,undefined,undefined,undefined,undefined,undefined,
lshzrmbgem,undefined,undefined,undefined,undefined,87,Familiar,4,NA,NA,NA,NA,undefined,undefined,undefined,undefined,undefined,undefined,undefined,undefined,undefined,undefined,undefined,undefined,undefined,undefined,
lshzrmbgem,undefined,undefined,undefined,undefined,88,Familiar,12,NA,NA,NA,NA,undefined,undefined,undefined,undefined,undefined,undefined,undefined,undefined,undefined,undefined,undefined,undefined,undefined,undefined,
lshzrmbgem,undefined,undefined,undefined,undefined,89,Know,7,AUDREY,AUDREY ,false,9098,undefined,undefined,undefined,undefined,undefined,undefined,undefined,undefined,undefined,undefined,undefined,undefined,undefined,undefined,
lshzrmbgem,undefined,undefined,undefined,undefined,90,Familiar,5,NA,NA,NA,NA,undefined,undefined,undefined,undefined,undefined,undefined,undefined,undefined,undefined,undefined,undefined,undefined,undefined,undefined,
lshzrmbgem,undefined,undefined,undefined,undefined,91,Know,14,ELIZABETH,ELIZABETH,true,7699.999999999884,undefined,undefined,undefined,undefined,undefined,undefined,undefined,undefined,undefined,undefined,undefined,undefined,undefined,undefined,
lshzrmbgem,undefined,undefined,undefined,undefined,92,Familiar,21,NA,NA,NA,NA,undefined,undefined,undefined,undefined,undefined,undefined,undefined,undefined,undefined,undefined,undefined,undefined,undefined,undefined,
lshzrmbgem,undefined,undefined,undefined,undefined,93,Familiar,11,NA,NA,NA,NA,undefined,undefined,undefined,undefined,undefined,undefined,undefined,undefined,undefined,undefined,undefined,undefined,undefined,undefined,
lshzrmbgem,undefined,undefined,undefined,undefined,94,Know,3,MARGARET,MARGARET ,false,7146,undefined,undefined,undefined,undefined,undefined,undefined,undefined,undefined,undefined,undefined,undefined,undefined,undefined,undefined,
lshzrmbgem,undefined,undefined,undefined,undefined,95,Know,28,BRITTANY,BRITTANY,true,7819,undefined,undefined,undefined,undefined,undefined,undefined,undefined,undefined,undefined,undefined,undefined,undefined,undefined,undefined,
lshzrmbgem,undefined,undefined,undefined,undefined,96,Familiar,19,NA,NA,NA,NA,undefined,undefined,undefined,undefined,undefined,undefined,undefined,undefined,undefined,undefined,undefined,undefined,undefined,undefined,
