SubNum,SubNum_demo,Exp_start_time,Exp_today_date,Exp_today_time,TrialNum,FaceID,FaceImg,Name,Response,NameAcc,RespTime,StudyTrialNum,StudyFaceID,StudyFaceImg,StudyFamCond,StudyTime,TestTrialNum,TestFaceID,TestFaceImg,TestFamCond,TestStatusCond,TestResponse,TestResponseTime,Exp_end_time,Distractor_1_duration,Distractor_1_numT,Distractor_1_acc,Distractor_2_duration,Distractor_2_numT,Distractor_2_acc,StudyButtonRespTime,StudyButtonRespTime_mean,q1,q2,q3,
xljn0chh2w,n0f8lzjx6u,Sun Jan 03 2021 19:57:50 GMT-0600 (Central Standard Time),2021-1-3,19:57:50,1,28,1,JUDY,JUDY,true,4485.404999984894,1,28,2,1,4000,1,29,4,1,1,0,2214.849999989383,20:41:7,143785.6449999963,16,100,119887.84999999916,53,77,3310.010000015609,3937.608749998617,No,,I mistakenly interchanged Diane/Diana a couple times since I knew someone named that, but I meant the correct version for those trials,
xljn0chh2w,undefined,undefined,undefined,undefined,2,6,1,ROBERT,ROBERT,true,2992.234999954235,2,10,2,1,4000,2,13,4,1,0,4,2626.1500000255182,undefined,150311.67500000447,22,77,123334.55500000855,undefined,undefined,3113.344999961555,undefined,undefined,undefined,undefined,
xljn0chh2w,undefined,undefined,undefined,undefined,3,36,1,SARAH,SARAH,true,2619.775000028312,3,3,2,0,4000,3,24,4,0,0,4,4552.025000040885,undefined,324645.7299999893,undefined,undefined,undefined,undefined,undefined,2663.319999992382,undefined,undefined,undefined,undefined,
xljn0chh2w,undefined,undefined,undefined,undefined,4,39,1,ASHLEY,ASHLEY,true,2340.7749999896623,4,37,2,0,4000,4,8,4,0,0,1,3394.3649999564514,undefined,174334.10999999614,undefined,undefined,undefined,undefined,undefined,6663.760000024922,undefined,undefined,undefined,undefined,
xljn0chh2w,undefined,undefined,undefined,undefined,5,15,1,MICHAEL,MICHEAL,false,2299.4699999690056,5,33,2,1,4000,5,20,4,1,0,5,3661.229999968782,undefined,324645.7749999827,undefined,undefined,undefined,undefined,undefined,undefined,undefined,undefined,undefined,undefined,
xljn0chh2w,undefined,undefined,undefined,undefined,6,18,1,TYLER,TYLER,true,4036.820000037551,6,30,2,0,4000,6,37,4,0,0,1,6889.430000039283,undefined,undefined,undefined,undefined,undefined,undefined,undefined,undefined,undefined,undefined,undefined,undefined,
xljn0chh2w,undefined,undefined,undefined,undefined,7,25,1,CHLOE,CHLOE,true,5859.989999968093,7,24,2,0,4000,7,38,4,0,1,0,2293.7699999893084,undefined,undefined,undefined,undefined,undefined,undefined,undefined,undefined,undefined,undefined,undefined,undefined,
xljn0chh2w,undefined,undefined,undefined,undefined,8,31,1,FRANCES,FRANCES,true,3162.0049999910407,8,20,2,1,4000,8,1,4,0,1,1,4648.489999992307,undefined,undefined,undefined,undefined,undefined,undefined,undefined,undefined,undefined,undefined,undefined,undefined,
xljn0chh2w,undefined,undefined,undefined,undefined,9,33,1,EVELYN,EVELYN,true,3748.7850000034086,9,11,2,0,4000,9,27,4,1,1,5,2397.800000035204,undefined,undefined,undefined,undefined,undefined,undefined,undefined,undefined,undefined,undefined,undefined,undefined,
xljn0chh2w,undefined,undefined,undefined,undefined,10,10,1,LOGAN,LOGAN,true,5016.334999992978,10,34,2,0,4000,10,12,4,1,1,4,4202.640000032261,undefined,undefined,undefined,undefined,undefined,undefined,undefined,undefined,undefined,undefined,undefined,undefined,
xljn0chh2w,undefined,undefined,undefined,undefined,11,13,1,ALLEN,ALLEN,true,3355.4149999981746,11,39,2,1,4000,11,32,4,0,1,2,5513.764999981504,undefined,undefined,undefined,undefined,undefined,undefined,undefined,undefined,undefined,undefined,undefined,undefined,
xljn0chh2w,undefined,undefined,undefined,undefined,12,5,1,RYAN,RYAN,true,8302.425000001676,12,40,2,1,4000,12,30,4,0,0,1,4431.350000028033,undefined,undefined,undefined,undefined,undefined,undefined,undefined,undefined,undefined,undefined,undefined,undefined,
xljn0chh2w,undefined,undefined,undefined,undefined,13,12,1,GABRIEL,GABRIEL,true,6290.210000006482,13,14,2,0,4000,13,2,4,0,1,0,2182.4349999660626,undefined,undefined,undefined,undefined,undefined,undefined,undefined,undefined,undefined,undefined,undefined,undefined,
xljn0chh2w,undefined,undefined,undefined,undefined,14,9,1,OLIVER,OLIVER,true,8424.959999974817,14,8,2,0,4000,14,36,4,1,1,1,2379.4399999896996,undefined,undefined,undefined,undefined,undefined,undefined,undefined,undefined,undefined,undefined,undefined,undefined,
xljn0chh2w,undefined,undefined,undefined,undefined,15,27,1,AMANDA,AMANDA,true,6027.059999993071,15,31,2,1,4000,15,3,4,0,0,2,3267.414999951143,undefined,undefined,undefined,undefined,undefined,undefined,undefined,undefined,undefined,undefined,undefined,undefined,
xljn0chh2w,undefined,undefined,undefined,undefined,16,20,1,JOSH,JOSH,true,10664.57999998238,16,13,2,1,4000,16,40,4,1,0,5,2443.3200000203215,undefined,undefined,undefined,undefined,undefined,undefined,undefined,undefined,undefined,undefined,undefined,undefined,
xljn0chh2w,undefined,undefined,undefined,undefined,17,23,1,NATALIE,NATALIE,true,3917.9649999714456,17,26,2,0,4000,17,10,4,1,0,4,4386.309999972582,undefined,undefined,undefined,undefined,undefined,undefined,undefined,undefined,undefined,undefined,undefined,undefined,
xljn0chh2w,undefined,undefined,undefined,undefined,18,29,1,ROSE,ROSE,true,2810.750000004191,18,16,2,0,4000,18,18,4,1,1,2,3106.0249999864027,undefined,undefined,undefined,undefined,undefined,undefined,undefined,undefined,undefined,undefined,undefined,undefined,
xljn0chh2w,undefined,undefined,undefined,undefined,19,40,1,DIANA,DIANA,true,7879.934999975376,19,19,2,1,4000,19,7,4,0,1,0,2450.1400000299327,undefined,undefined,undefined,undefined,undefined,undefined,undefined,undefined,undefined,undefined,undefined,undefined,
xljn0chh2w,undefined,undefined,undefined,undefined,20,19,1,LARRY,LARRY,true,6743.360000022221,20,6,2,1,4000,20,19,4,1,0,3,4269.100000034086,undefined,undefined,undefined,undefined,undefined,undefined,undefined,undefined,undefined,undefined,undefined,undefined,
xljn0chh2w,undefined,undefined,undefined,undefined,21,28,8,JUDY,ROSE,false,43877.70499999169,undefined,undefined,undefined,undefined,undefined,21,11,4,0,0,2,4771.5299999690615,undefined,undefined,undefined,undefined,undefined,undefined,undefined,undefined,undefined,undefined,undefined,undefined,
xljn0chh2w,undefined,undefined,undefined,undefined,22,6,8,ROBERT,LOGAN,false,15216.264999995474,undefined,undefined,undefined,undefined,undefined,22,15,4,1,1,2,5816.460000001825,undefined,undefined,undefined,undefined,undefined,undefined,undefined,undefined,undefined,undefined,undefined,undefined,
xljn0chh2w,undefined,undefined,undefined,undefined,23,36,8,SARAH,EVELYN,false,9933.305000013206,undefined,undefined,undefined,undefined,undefined,23,39,4,1,0,5,2393.869999970775,undefined,undefined,undefined,undefined,undefined,undefined,undefined,undefined,undefined,undefined,undefined,undefined,
xljn0chh2w,undefined,undefined,undefined,undefined,24,39,8,ASHLEY,NATALIE,false,40864.250000042375,undefined,undefined,undefined,undefined,undefined,24,4,4,0,1,1,4865.33999996027,undefined,undefined,undefined,undefined,undefined,undefined,undefined,undefined,undefined,undefined,undefined,undefined,
xljn0chh2w,undefined,undefined,undefined,undefined,25,15,8,MICHAEL,LOGAN,false,8078.005000017583,undefined,undefined,undefined,undefined,undefined,25,6,4,1,0,1,3152.844999975059,undefined,undefined,undefined,undefined,undefined,undefined,undefined,undefined,undefined,undefined,undefined,undefined,
xljn0chh2w,undefined,undefined,undefined,undefined,26,18,8,TYLER,JOSH,false,3213.7450000154786,undefined,undefined,undefined,undefined,undefined,26,9,4,1,1,0,4507.325000013225,undefined,undefined,undefined,undefined,undefined,undefined,undefined,undefined,undefined,undefined,undefined,undefined,
xljn0chh2w,undefined,undefined,undefined,undefined,27,25,8,CHLOE,NATALIE,false,27139.029999962077,undefined,undefined,undefined,undefined,undefined,27,17,4,0,1,0,3394.7599999955855,undefined,undefined,undefined,undefined,undefined,undefined,undefined,undefined,undefined,undefined,undefined,undefined,
xljn0chh2w,undefined,undefined,undefined,undefined,28,31,8,FRANCES,SARAH,false,23785.16499995021,undefined,undefined,undefined,undefined,undefined,28,21,4,0,1,1,3441.6649999911897,undefined,undefined,undefined,undefined,undefined,undefined,undefined,undefined,undefined,undefined,undefined,undefined,
xljn0chh2w,undefined,undefined,undefined,undefined,29,33,8,EVELYN,EVELYN,true,44724.909999989904,undefined,undefined,undefined,undefined,undefined,29,14,4,0,0,1,2379.2949999915436,undefined,undefined,undefined,undefined,undefined,undefined,undefined,undefined,undefined,undefined,undefined,undefined,
xljn0chh2w,undefined,undefined,undefined,undefined,30,10,8,LOGAN,ROBERT,false,9305.79499999294,undefined,undefined,undefined,undefined,undefined,30,25,4,1,1,3,7130.160000000615,undefined,undefined,undefined,undefined,undefined,undefined,undefined,undefined,undefined,undefined,undefined,undefined,
xljn0chh2w,undefined,undefined,undefined,undefined,31,13,8,ALLEN,LARRY,false,6138.399999996182,undefined,undefined,undefined,undefined,undefined,31,5,4,1,1,4,3506.840000045486,undefined,undefined,undefined,undefined,undefined,undefined,undefined,undefined,undefined,undefined,undefined,undefined,
xljn0chh2w,undefined,undefined,undefined,undefined,32,5,8,RYAN,MICHEAL,false,23078.230000042822,undefined,undefined,undefined,undefined,undefined,32,34,4,0,0,0,3492.1849999809638,undefined,undefined,undefined,undefined,undefined,undefined,undefined,undefined,undefined,undefined,undefined,undefined,
xljn0chh2w,undefined,undefined,undefined,undefined,33,12,8,GABRIEL,JOSH,false,19953.370000002906,undefined,undefined,undefined,undefined,undefined,33,22,4,0,1,0,1821.784999978263,undefined,undefined,undefined,undefined,undefined,undefined,undefined,undefined,undefined,undefined,undefined,undefined,
xljn0chh2w,undefined,undefined,undefined,undefined,34,9,8,OLIVER,ROBERT,false,33887.38500000909,undefined,undefined,undefined,undefined,undefined,34,26,4,0,0,4,6469.5100000244565,undefined,undefined,undefined,undefined,undefined,undefined,undefined,undefined,undefined,undefined,undefined,undefined,
xljn0chh2w,undefined,undefined,undefined,undefined,35,27,8,AMANDA,SARAH,false,29029.67499999795,undefined,undefined,undefined,undefined,undefined,35,28,4,1,0,5,4121.969999978319,undefined,undefined,undefined,undefined,undefined,undefined,undefined,undefined,undefined,undefined,undefined,undefined,
xljn0chh2w,undefined,undefined,undefined,undefined,36,20,8,JOSH,JOSH,true,17160.919999994803,undefined,undefined,undefined,undefined,undefined,36,33,4,1,0,2,5552.445000037551,undefined,undefined,undefined,undefined,undefined,undefined,undefined,undefined,undefined,undefined,undefined,undefined,
xljn0chh2w,undefined,undefined,undefined,undefined,37,23,8,NATALIE,NATALIE,true,4541.140000044834,undefined,undefined,undefined,undefined,undefined,37,31,4,1,0,2,3441.0700000007637,undefined,undefined,undefined,undefined,undefined,undefined,undefined,undefined,undefined,undefined,undefined,undefined,
xljn0chh2w,undefined,undefined,undefined,undefined,38,29,8,ROSE,ROSE,true,15007.04500003485,undefined,undefined,undefined,undefined,undefined,38,23,4,1,1,5,9341.779999958817,undefined,undefined,undefined,undefined,undefined,undefined,undefined,undefined,undefined,undefined,undefined,undefined,
xljn0chh2w,undefined,undefined,undefined,undefined,39,40,8,DIANA,DIANE,false,3857.7149999910034,undefined,undefined,undefined,undefined,undefined,39,35,4,0,1,2,4130.545000021812,undefined,undefined,undefined,undefined,undefined,undefined,undefined,undefined,undefined,undefined,undefined,undefined,
xljn0chh2w,undefined,undefined,undefined,undefined,40,19,8,LARRY,LARRY,true,6482.614999986254,undefined,undefined,undefined,undefined,undefined,40,16,4,0,0,2,7476.0300000198185,undefined,undefined,undefined,undefined,undefined,undefined,undefined,undefined,undefined,undefined,undefined,undefined,
xljn0chh2w,undefined,undefined,undefined,undefined,41,33,5,EVELYN,EVELYN,true,4585.054999974091,undefined,undefined,undefined,undefined,undefined,undefined,undefined,undefined,undefined,undefined,undefined,undefined,undefined,undefined,undefined,undefined,undefined,undefined,undefined,undefined,undefined,undefined,undefined,undefined,
xljn0chh2w,undefined,undefined,undefined,undefined,42,29,5,ROSE,SARAH,false,5219.9100000434555,undefined,undefined,undefined,undefined,undefined,undefined,undefined,undefined,undefined,undefined,undefined,undefined,undefined,undefined,undefined,undefined,undefined,undefined,undefined,undefined,undefined,undefined,undefined,undefined,
xljn0chh2w,undefined,undefined,undefined,undefined,43,15,5,MICHAEL,ROBERT,false,4328.579999972135,undefined,undefined,undefined,undefined,undefined,undefined,undefined,undefined,undefined,undefined,undefined,undefined,undefined,undefined,undefined,undefined,undefined,undefined,undefined,undefined,undefined,undefined,undefined,undefined,
xljn0chh2w,undefined,undefined,undefined,undefined,44,18,5,TYLER,JOSH,false,11455.209999985527,undefined,undefined,undefined,undefined,undefined,undefined,undefined,undefined,undefined,undefined,undefined,undefined,undefined,undefined,undefined,undefined,undefined,undefined,undefined,undefined,undefined,undefined,undefined,undefined,
xljn0chh2w,undefined,undefined,undefined,undefined,45,27,5,AMANDA,AMANDA,true,20512.96999998158,undefined,undefined,undefined,undefined,undefined,undefined,undefined,undefined,undefined,undefined,undefined,undefined,undefined,undefined,undefined,undefined,undefined,undefined,undefined,undefined,undefined,undefined,undefined,undefined,
xljn0chh2w,undefined,undefined,undefined,undefined,46,9,5,OLIVER,TYLER,false,11788.735000009183,undefined,undefined,undefined,undefined,undefined,undefined,undefined,undefined,undefined,undefined,undefined,undefined,undefined,undefined,undefined,undefined,undefined,undefined,undefined,undefined,undefined,undefined,undefined,undefined,
xljn0chh2w,undefined,undefined,undefined,undefined,47,10,5,LOGAN,MICHEAL,false,6047.179999994114,undefined,undefined,undefined,undefined,undefined,undefined,undefined,undefined,undefined,undefined,undefined,undefined,undefined,undefined,undefined,undefined,undefined,undefined,undefined,undefined,undefined,undefined,undefined,undefined,
xljn0chh2w,undefined,undefined,undefined,undefined,48,20,5,JOSH,JOSH,true,3949.499999987893,undefined,undefined,undefined,undefined,undefined,undefined,undefined,undefined,undefined,undefined,undefined,undefined,undefined,undefined,undefined,undefined,undefined,undefined,undefined,undefined,undefined,undefined,undefined,undefined,
xljn0chh2w,undefined,undefined,undefined,undefined,49,23,5,NATALIE,NATALIE,true,3868.724999949336,undefined,undefined,undefined,undefined,undefined,undefined,undefined,undefined,undefined,undefined,undefined,undefined,undefined,undefined,undefined,undefined,undefined,undefined,undefined,undefined,undefined,undefined,undefined,undefined,
xljn0chh2w,undefined,undefined,undefined,undefined,50,28,5,JUDY,SARAH,false,23592.17499999795,undefined,undefined,undefined,undefined,undefined,undefined,undefined,undefined,undefined,undefined,undefined,undefined,undefined,undefined,undefined,undefined,undefined,undefined,undefined,undefined,undefined,undefined,undefined,undefined,
xljn0chh2w,undefined,undefined,undefined,undefined,51,40,5,DIANA,DIANA,true,5348.98000000976,undefined,undefined,undefined,undefined,undefined,undefined,undefined,undefined,undefined,undefined,undefined,undefined,undefined,undefined,undefined,undefined,undefined,undefined,undefined,undefined,undefined,undefined,undefined,undefined,
xljn0chh2w,undefined,undefined,undefined,undefined,52,31,5,FRANCES,SARAH,false,10647.855000046548,undefined,undefined,undefined,undefined,undefined,undefined,undefined,undefined,undefined,undefined,undefined,undefined,undefined,undefined,undefined,undefined,undefined,undefined,undefined,undefined,undefined,undefined,undefined,undefined,
xljn0chh2w,undefined,undefined,undefined,undefined,53,6,5,ROBERT,LARRY,false,11499.835000024177,undefined,undefined,undefined,undefined,undefined,undefined,undefined,undefined,undefined,undefined,undefined,undefined,undefined,undefined,undefined,undefined,undefined,undefined,undefined,undefined,undefined,undefined,undefined,undefined,
xljn0chh2w,undefined,undefined,undefined,undefined,54,13,5,ALLEN,JOSH,false,5349.079999956302,undefined,undefined,undefined,undefined,undefined,undefined,undefined,undefined,undefined,undefined,undefined,undefined,undefined,undefined,undefined,undefined,undefined,undefined,undefined,undefined,undefined,undefined,undefined,undefined,
xljn0chh2w,undefined,undefined,undefined,undefined,55,25,5,CHLOE,NATALIE,false,4515.620000020135,undefined,undefined,undefined,undefined,undefined,undefined,undefined,undefined,undefined,undefined,undefined,undefined,undefined,undefined,undefined,undefined,undefined,undefined,undefined,undefined,undefined,undefined,undefined,undefined,
xljn0chh2w,undefined,undefined,undefined,undefined,56,19,5,LARRY,ROBERT,false,34021.58999996027,undefined,undefined,undefined,undefined,undefined,undefined,undefined,undefined,undefined,undefined,undefined,undefined,undefined,undefined,undefined,undefined,undefined,undefined,undefined,undefined,undefined,undefined,undefined,undefined,
xljn0chh2w,undefined,undefined,undefined,undefined,57,5,5,RYAN,MICHEAL,false,2956.1549999634735,undefined,undefined,undefined,undefined,undefined,undefined,undefined,undefined,undefined,undefined,undefined,undefined,undefined,undefined,undefined,undefined,undefined,undefined,undefined,undefined,undefined,undefined,undefined,undefined,
xljn0chh2w,undefined,undefined,undefined,undefined,58,12,5,GABRIEL,GABRIEL,true,39724.875000014435,undefined,undefined,undefined,undefined,undefined,undefined,undefined,undefined,undefined,undefined,undefined,undefined,undefined,undefined,undefined,undefined,undefined,undefined,undefined,undefined,undefined,undefined,undefined,undefined,
xljn0chh2w,undefined,undefined,undefined,undefined,59,39,5,ASHLEY,DIANE,false,18722.254999971483,undefined,undefined,undefined,undefined,undefined,undefined,undefined,undefined,undefined,undefined,undefined,undefined,undefined,undefined,undefined,undefined,undefined,undefined,undefined,undefined,undefined,undefined,undefined,undefined,
xljn0chh2w,undefined,undefined,undefined,undefined,60,36,5,SARAH,EVELYN,false,3143.674999999348,undefined,undefined,undefined,undefined,undefined,undefined,undefined,undefined,undefined,undefined,undefined,undefined,undefined,undefined,undefined,undefined,undefined,undefined,undefined,undefined,undefined,undefined,undefined,undefined,
xljn0chh2w,undefined,undefined,undefined,undefined,61,12,7,GABRIEL,JOSH,false,5046.889999997802,undefined,undefined,undefined,undefined,undefined,undefined,undefined,undefined,undefined,undefined,undefined,undefined,undefined,undefined,undefined,undefined,undefined,undefined,undefined,undefined,undefined,undefined,undefined,undefined,
xljn0chh2w,undefined,undefined,undefined,undefined,62,23,7,NATALIE,NATALIE,true,3407.385000027716,undefined,undefined,undefined,undefined,undefined,undefined,undefined,undefined,undefined,undefined,undefined,undefined,undefined,undefined,undefined,undefined,undefined,undefined,undefined,undefined,undefined,undefined,undefined,undefined,
xljn0chh2w,undefined,undefined,undefined,undefined,63,39,7,ASHLEY,CHLOE,false,7770.429999975022,undefined,undefined,undefined,undefined,undefined,undefined,undefined,undefined,undefined,undefined,undefined,undefined,undefined,undefined,undefined,undefined,undefined,undefined,undefined,undefined,undefined,undefined,undefined,undefined,
xljn0chh2w,undefined,undefined,undefined,undefined,64,33,7,EVELYN,EVELYN,true,5656.865000026301,undefined,undefined,undefined,undefined,undefined,undefined,undefined,undefined,undefined,undefined,undefined,undefined,undefined,undefined,undefined,undefined,undefined,undefined,undefined,undefined,undefined,undefined,undefined,undefined,
xljn0chh2w,undefined,undefined,undefined,undefined,65,18,7,TYLER,JOSH,false,11576.720000011846,undefined,undefined,undefined,undefined,undefined,undefined,undefined,undefined,undefined,undefined,undefined,undefined,undefined,undefined,undefined,undefined,undefined,undefined,undefined,undefined,undefined,undefined,undefined,undefined,
xljn0chh2w,undefined,undefined,undefined,undefined,66,36,7,SARAH,SARAH,true,5705.7049999712035,undefined,undefined,undefined,undefined,undefined,undefined,undefined,undefined,undefined,undefined,undefined,undefined,undefined,undefined,undefined,undefined,undefined,undefined,undefined,undefined,undefined,undefined,undefined,undefined,
xljn0chh2w,undefined,undefined,undefined,undefined,67,9,7,OLIVER,TYLER,false,4432.925000030082,undefined,undefined,undefined,undefined,undefined,undefined,undefined,undefined,undefined,undefined,undefined,undefined,undefined,undefined,undefined,undefined,undefined,undefined,undefined,undefined,undefined,undefined,undefined,undefined,
xljn0chh2w,undefined,undefined,undefined,undefined,68,25,7,CHLOE,CHLOE,true,3054.310000035912,undefined,undefined,undefined,undefined,undefined,undefined,undefined,undefined,undefined,undefined,undefined,undefined,undefined,undefined,undefined,undefined,undefined,undefined,undefined,undefined,undefined,undefined,undefined,undefined,
xljn0chh2w,undefined,undefined,undefined,undefined,69,15,7,MICHAEL,LARRY,false,4666.299999982584,undefined,undefined,undefined,undefined,undefined,undefined,undefined,undefined,undefined,undefined,undefined,undefined,undefined,undefined,undefined,undefined,undefined,undefined,undefined,undefined,undefined,undefined,undefined,undefined,
xljn0chh2w,undefined,undefined,undefined,undefined,70,28,7,JUDY,ROSE,false,24563.80000000354,undefined,undefined,undefined,undefined,undefined,undefined,undefined,undefined,undefined,undefined,undefined,undefined,undefined,undefined,undefined,undefined,undefined,undefined,undefined,undefined,undefined,undefined,undefined,undefined,
xljn0chh2w,undefined,undefined,undefined,undefined,71,20,7,JOSH,TYLER,false,4072.0650000148453,undefined,undefined,undefined,undefined,undefined,undefined,undefined,undefined,undefined,undefined,undefined,undefined,undefined,undefined,undefined,undefined,undefined,undefined,undefined,undefined,undefined,undefined,undefined,undefined,
xljn0chh2w,undefined,undefined,undefined,undefined,72,31,7,FRANCES,SARA,false,10974.564999982249,undefined,undefined,undefined,undefined,undefined,undefined,undefined,undefined,undefined,undefined,undefined,undefined,undefined,undefined,undefined,undefined,undefined,undefined,undefined,undefined,undefined,undefined,undefined,undefined,
xljn0chh2w,undefined,undefined,undefined,undefined,73,29,7,ROSE,ROSE,true,4131.545000011101,undefined,undefined,undefined,undefined,undefined,undefined,undefined,undefined,undefined,undefined,undefined,undefined,undefined,undefined,undefined,undefined,undefined,undefined,undefined,undefined,undefined,undefined,undefined,undefined,
xljn0chh2w,undefined,undefined,undefined,undefined,74,10,7,LOGAN,MICHEAL,false,3374.390000011772,undefined,undefined,undefined,undefined,undefined,undefined,undefined,undefined,undefined,undefined,undefined,undefined,undefined,undefined,undefined,undefined,undefined,undefined,undefined,undefined,undefined,undefined,undefined,undefined,
xljn0chh2w,undefined,undefined,undefined,undefined,75,13,7,ALLEN,TYLER,false,9109.904999961145,undefined,undefined,undefined,undefined,undefined,undefined,undefined,undefined,undefined,undefined,undefined,undefined,undefined,undefined,undefined,undefined,undefined,undefined,undefined,undefined,undefined,undefined,undefined,undefined,
xljn0chh2w,undefined,undefined,undefined,undefined,76,19,7,LARRY,LOGAN,false,23133.71999998344,undefined,undefined,undefined,undefined,undefined,undefined,undefined,undefined,undefined,undefined,undefined,undefined,undefined,undefined,undefined,undefined,undefined,undefined,undefined,undefined,undefined,undefined,undefined,undefined,
xljn0chh2w,undefined,undefined,undefined,undefined,77,27,7,AMANDA,AMANDA,true,2161.4100000006147,undefined,undefined,undefined,undefined,undefined,undefined,undefined,undefined,undefined,undefined,undefined,undefined,undefined,undefined,undefined,undefined,undefined,undefined,undefined,undefined,undefined,undefined,undefined,undefined,
xljn0chh2w,undefined,undefined,undefined,undefined,78,40,7,DIANA,DIANE,false,2391.170000017155,undefined,undefined,undefined,undefined,undefined,undefined,undefined,undefined,undefined,undefined,undefined,undefined,undefined,undefined,undefined,undefined,undefined,undefined,undefined,undefined,undefined,undefined,undefined,undefined,
xljn0chh2w,undefined,undefined,undefined,undefined,79,6,7,ROBERT,JOSH,false,22184.795000008307,undefined,undefined,undefined,undefined,undefined,undefined,undefined,undefined,undefined,undefined,undefined,undefined,undefined,undefined,undefined,undefined,undefined,undefined,undefined,undefined,undefined,undefined,undefined,undefined,
xljn0chh2w,undefined,undefined,undefined,undefined,80,5,7,RYAN,MICHEAL,false,7631.539999973029,undefined,undefined,undefined,undefined,undefined,undefined,undefined,undefined,undefined,undefined,undefined,undefined,undefined,undefined,undefined,undefined,undefined,undefined,undefined,undefined,undefined,undefined,undefined,undefined,
xljn0chh2w,undefined,undefined,undefined,undefined,81,20,3,JOSH,LOGAN,false,6498.405000020284,undefined,undefined,undefined,undefined,undefined,undefined,undefined,undefined,undefined,undefined,undefined,undefined,undefined,undefined,undefined,undefined,undefined,undefined,undefined,undefined,undefined,undefined,undefined,undefined,
xljn0chh2w,undefined,undefined,undefined,undefined,82,29,3,ROSE,ROSE,true,8575.65999997314,undefined,undefined,undefined,undefined,undefined,undefined,undefined,undefined,undefined,undefined,undefined,undefined,undefined,undefined,undefined,undefined,undefined,undefined,undefined,undefined,undefined,undefined,undefined,undefined,
xljn0chh2w,undefined,undefined,undefined,undefined,83,36,3,SARAH,SARAH,true,5463.155000004917,undefined,undefined,undefined,undefined,undefined,undefined,undefined,undefined,undefined,undefined,undefined,undefined,undefined,undefined,undefined,undefined,undefined,undefined,undefined,undefined,undefined,undefined,undefined,undefined,
xljn0chh2w,undefined,undefined,undefined,undefined,84,31,3,FRANCES,FRANCES,true,6200.994999962859,undefined,undefined,undefined,undefined,undefined,undefined,undefined,undefined,undefined,undefined,undefined,undefined,undefined,undefined,undefined,undefined,undefined,undefined,undefined,undefined,undefined,undefined,undefined,undefined,
xljn0chh2w,undefined,undefined,undefined,undefined,85,9,3,OLIVER,TYLER,false,9267.409999971278,undefined,undefined,undefined,undefined,undefined,undefined,undefined,undefined,undefined,undefined,undefined,undefined,undefined,undefined,undefined,undefined,undefined,undefined,undefined,undefined,undefined,undefined,undefined,undefined,
xljn0chh2w,undefined,undefined,undefined,undefined,86,13,3,ALLEN,TYLER,false,10895.76499996474,undefined,undefined,undefined,undefined,undefined,undefined,undefined,undefined,undefined,undefined,undefined,undefined,undefined,undefined,undefined,undefined,undefined,undefined,undefined,undefined,undefined,undefined,undefined,undefined,
xljn0chh2w,undefined,undefined,undefined,undefined,87,6,3,ROBERT,JOSH,false,6259.655000001658,undefined,undefined,undefined,undefined,undefined,undefined,undefined,undefined,undefined,undefined,undefined,undefined,undefined,undefined,undefined,undefined,undefined,undefined,undefined,undefined,undefined,undefined,undefined,undefined,
xljn0chh2w,undefined,undefined,undefined,undefined,88,33,3,EVELYN,EVELYN,true,14157.420000003185,undefined,undefined,undefined,undefined,undefined,undefined,undefined,undefined,undefined,undefined,undefined,undefined,undefined,undefined,undefined,undefined,undefined,undefined,undefined,undefined,undefined,undefined,undefined,undefined,
xljn0chh2w,undefined,undefined,undefined,undefined,89,12,3,GABRIEL,GABRIEL,true,8855.630000005476,undefined,undefined,undefined,undefined,undefined,undefined,undefined,undefined,undefined,undefined,undefined,undefined,undefined,undefined,undefined,undefined,undefined,undefined,undefined,undefined,undefined,undefined,undefined,undefined,
xljn0chh2w,undefined,undefined,undefined,undefined,90,27,3,AMANDA,AMANDA,true,4438.785000005737,undefined,undefined,undefined,undefined,undefined,undefined,undefined,undefined,undefined,undefined,undefined,undefined,undefined,undefined,undefined,undefined,undefined,undefined,undefined,undefined,undefined,undefined,undefined,undefined,
xljn0chh2w,undefined,undefined,undefined,undefined,91,39,3,ASHLEY,SARA,false,15397.60500000557,undefined,undefined,undefined,undefined,undefined,undefined,undefined,undefined,undefined,undefined,undefined,undefined,undefined,undefined,undefined,undefined,undefined,undefined,undefined,undefined,undefined,undefined,undefined,undefined,
xljn0chh2w,undefined,undefined,undefined,undefined,92,10,3,LOGAN,MICHEAL,false,6533.334999985527,undefined,undefined,undefined,undefined,undefined,undefined,undefined,undefined,undefined,undefined,undefined,undefined,undefined,undefined,undefined,undefined,undefined,undefined,undefined,undefined,undefined,undefined,undefined,undefined,
xljn0chh2w,undefined,undefined,undefined,undefined,93,25,3,CHLOE,CHLOE,true,8549.539999978151,undefined,undefined,undefined,undefined,undefined,undefined,undefined,undefined,undefined,undefined,undefined,undefined,undefined,undefined,undefined,undefined,undefined,undefined,undefined,undefined,undefined,undefined,undefined,undefined,
xljn0chh2w,undefined,undefined,undefined,undefined,94,5,3,RYAN,LARRY,false,5210.250000003725,undefined,undefined,undefined,undefined,undefined,undefined,undefined,undefined,undefined,undefined,undefined,undefined,undefined,undefined,undefined,undefined,undefined,undefined,undefined,undefined,undefined,undefined,undefined,undefined,
xljn0chh2w,undefined,undefined,undefined,undefined,95,18,3,TYLER,JOSH,false,8581.039999960922,undefined,undefined,undefined,undefined,undefined,undefined,undefined,undefined,undefined,undefined,undefined,undefined,undefined,undefined,undefined,undefined,undefined,undefined,undefined,undefined,undefined,undefined,undefined,undefined,
xljn0chh2w,undefined,undefined,undefined,undefined,96,19,3,LARRY,ALLEN,false,10820.550000004005,undefined,undefined,undefined,undefined,undefined,undefined,undefined,undefined,undefined,undefined,undefined,undefined,undefined,undefined,undefined,undefined,undefined,undefined,undefined,undefined,undefined,undefined,undefined,undefined,
xljn0chh2w,undefined,undefined,undefined,undefined,97,40,3,DIANA,DIANA,true,6133.815000008326,undefined,undefined,undefined,undefined,undefined,undefined,undefined,undefined,undefined,undefined,undefined,undefined,undefined,undefined,undefined,undefined,undefined,undefined,undefined,undefined,undefined,undefined,undefined,undefined,
xljn0chh2w,undefined,undefined,undefined,undefined,98,23,3,NATALIE,NATALIE,true,3343.914999975823,undefined,undefined,undefined,undefined,undefined,undefined,undefined,undefined,undefined,undefined,undefined,undefined,undefined,undefined,undefined,undefined,undefined,undefined,undefined,undefined,undefined,undefined,undefined,undefined,
xljn0chh2w,undefined,undefined,undefined,undefined,99,28,3,JUDY,JUDY,true,4915.579999971669,undefined,undefined,undefined,undefined,undefined,undefined,undefined,undefined,undefined,undefined,undefined,undefined,undefined,undefined,undefined,undefined,undefined,undefined,undefined,undefined,undefined,undefined,undefined,undefined,
xljn0chh2w,undefined,undefined,undefined,undefined,100,15,3,MICHAEL,ROBERT,false,20648.82000000216,undefined,undefined,undefined,undefined,undefined,undefined,undefined,undefined,undefined,undefined,undefined,undefined,undefined,undefined,undefined,undefined,undefined,undefined,undefined,undefined,undefined,undefined,undefined,undefined,
xljn0chh2w,undefined,undefined,undefined,undefined,101,15,2,MICHAEL,MICHAEL,true,5110.615000012331,undefined,undefined,undefined,undefined,undefined,undefined,undefined,undefined,undefined,undefined,undefined,undefined,undefined,undefined,undefined,undefined,undefined,undefined,undefined,undefined,undefined,undefined,undefined,undefined,
xljn0chh2w,undefined,undefined,undefined,undefined,102,20,2,JOSH,JOSH,true,3504.2849999736063,undefined,undefined,undefined,undefined,undefined,undefined,undefined,undefined,undefined,undefined,undefined,undefined,undefined,undefined,undefined,undefined,undefined,undefined,undefined,undefined,undefined,undefined,undefined,undefined,
xljn0chh2w,undefined,undefined,undefined,undefined,103,18,2,TYLER,TYLER,true,4257.4599999934435,undefined,undefined,undefined,undefined,undefined,undefined,undefined,undefined,undefined,undefined,undefined,undefined,undefined,undefined,undefined,undefined,undefined,undefined,undefined,undefined,undefined,undefined,undefined,undefined,
xljn0chh2w,undefined,undefined,undefined,undefined,104,31,2,FRANCES,FRANCES,true,3704.695000022184,undefined,undefined,undefined,undefined,undefined,undefined,undefined,undefined,undefined,undefined,undefined,undefined,undefined,undefined,undefined,undefined,undefined,undefined,undefined,undefined,undefined,undefined,undefined,undefined,
xljn0chh2w,undefined,undefined,undefined,undefined,105,9,2,OLIVER,OLIVER,true,7067.10500002373,undefined,undefined,undefined,undefined,undefined,undefined,undefined,undefined,undefined,undefined,undefined,undefined,undefined,undefined,undefined,undefined,undefined,undefined,undefined,undefined,undefined,undefined,undefined,undefined,
xljn0chh2w,undefined,undefined,undefined,undefined,106,27,2,AMANDA,AMANDA,true,1970.74000001885,undefined,undefined,undefined,undefined,undefined,undefined,undefined,undefined,undefined,undefined,undefined,undefined,undefined,undefined,undefined,undefined,undefined,undefined,undefined,undefined,undefined,undefined,undefined,undefined,
xljn0chh2w,undefined,undefined,undefined,undefined,107,5,2,RYAN,LARRY,false,4444.344999967143,undefined,undefined,undefined,undefined,undefined,undefined,undefined,undefined,undefined,undefined,undefined,undefined,undefined,undefined,undefined,undefined,undefined,undefined,undefined,undefined,undefined,undefined,undefined,undefined,
xljn0chh2w,undefined,undefined,undefined,undefined,108,29,2,ROSE,ROSE,true,3097.0850000157952,undefined,undefined,undefined,undefined,undefined,undefined,undefined,undefined,undefined,undefined,undefined,undefined,undefined,undefined,undefined,undefined,undefined,undefined,undefined,undefined,undefined,undefined,undefined,undefined,
xljn0chh2w,undefined,undefined,undefined,undefined,109,23,2,NATALIE,NATALIE,true,2658.054999948945,undefined,undefined,undefined,undefined,undefined,undefined,undefined,undefined,undefined,undefined,undefined,undefined,undefined,undefined,undefined,undefined,undefined,undefined,undefined,undefined,undefined,undefined,undefined,undefined,
xljn0chh2w,undefined,undefined,undefined,undefined,110,39,2,ASHLEY,DIANA,false,18405.805000045802,undefined,undefined,undefined,undefined,undefined,undefined,undefined,undefined,undefined,undefined,undefined,undefined,undefined,undefined,undefined,undefined,undefined,undefined,undefined,undefined,undefined,undefined,undefined,undefined,
xljn0chh2w,undefined,undefined,undefined,undefined,111,6,2,ROBERT,GABRIEL,false,11572.630000009667,undefined,undefined,undefined,undefined,undefined,undefined,undefined,undefined,undefined,undefined,undefined,undefined,undefined,undefined,undefined,undefined,undefined,undefined,undefined,undefined,undefined,undefined,undefined,undefined,
xljn0chh2w,undefined,undefined,undefined,undefined,112,13,2,ALLEN,LOGAN,false,6923.279999988154,undefined,undefined,undefined,undefined,undefined,undefined,undefined,undefined,undefined,undefined,undefined,undefined,undefined,undefined,undefined,undefined,undefined,undefined,undefined,undefined,undefined,undefined,undefined,undefined,
xljn0chh2w,undefined,undefined,undefined,undefined,113,40,2,DIANA,DIANE,false,3660.349999961909,undefined,undefined,undefined,undefined,undefined,undefined,undefined,undefined,undefined,undefined,undefined,undefined,undefined,undefined,undefined,undefined,undefined,undefined,undefined,undefined,undefined,undefined,undefined,undefined,
xljn0chh2w,undefined,undefined,undefined,undefined,114,12,2,GABRIEL,TYLER,false,23980.00999999931,undefined,undefined,undefined,undefined,undefined,undefined,undefined,undefined,undefined,undefined,undefined,undefined,undefined,undefined,undefined,undefined,undefined,undefined,undefined,undefined,undefined,undefined,undefined,undefined,
xljn0chh2w,undefined,undefined,undefined,undefined,115,10,2,LOGAN,LARRY,false,4779.414999997243,undefined,undefined,undefined,undefined,undefined,undefined,undefined,undefined,undefined,undefined,undefined,undefined,undefined,undefined,undefined,undefined,undefined,undefined,undefined,undefined,undefined,undefined,undefined,undefined,
xljn0chh2w,undefined,undefined,undefined,undefined,116,28,2,JUDY,NATALIE,false,2791.1349999485537,undefined,undefined,undefined,undefined,undefined,undefined,undefined,undefined,undefined,undefined,undefined,undefined,undefined,undefined,undefined,undefined,undefined,undefined,undefined,undefined,undefined,undefined,undefined,undefined,
xljn0chh2w,undefined,undefined,undefined,undefined,117,25,2,CHLOE,FRANCES,false,7514.37500002794,undefined,undefined,undefined,undefined,undefined,undefined,undefined,undefined,undefined,undefined,undefined,undefined,undefined,undefined,undefined,undefined,undefined,undefined,undefined,undefined,undefined,undefined,undefined,undefined,
xljn0chh2w,undefined,undefined,undefined,undefined,118,19,2,LARRY,RYAN,false,14129.784999997355,undefined,undefined,undefined,undefined,undefined,undefined,undefined,undefined,undefined,undefined,undefined,undefined,undefined,undefined,undefined,undefined,undefined,undefined,undefined,undefined,undefined,undefined,undefined,undefined,
xljn0chh2w,undefined,undefined,undefined,undefined,119,36,2,SARAH,EVELYN,false,3655.5500000249594,undefined,undefined,undefined,undefined,undefined,undefined,undefined,undefined,undefined,undefined,undefined,undefined,undefined,undefined,undefined,undefined,undefined,undefined,undefined,undefined,undefined,undefined,undefined,undefined,
xljn0chh2w,undefined,undefined,undefined,undefined,120,33,2,EVELYN,EVELYN,true,4491.435000032652,undefined,undefined,undefined,undefined,undefined,undefined,undefined,undefined,undefined,undefined,undefined,undefined,undefined,undefined,undefined,undefined,undefined,undefined,undefined,undefined,undefined,undefined,undefined,undefined,
