SubNum,SubNum_demo,Exp_start_time,Exp_today_date,Exp_today_time,TrialNum,Condition,Face,Name,Response,NameAcc,RespTime,StudyTrialNum,StudyFace,StudyContext,StudyFamCond,TestTrialNum,TestFace,TestContext,TestSDCond,TestFamCond,TestResponse,TestResponseTime,Exp_end_time,Distractor_1_duration,Distractor_2_duration,
j95y3zzme0,8ao17crh1c,Tue Oct 13 2020 11:59:09 GMT-0500 (CDT),2020-10-13,11:59:9,1,Familiar,18,NA,NA,NA,NA,1,9,18,2,1,1,11,0,1,0,2398.000000000233,12:22:19,123460,62839,
j95y3zzme0,undefined,undefined,undefined,undefined,2,Know,20,SAMANTHA,SAMANTHA,true,3556,2,21,34,1,2,6,22,1,0,1,4295,undefined,undefined,undefined,
j95y3zzme0,undefined,undefined,undefined,undefined,3,Know,1,RACHEL,RACHEL,true,2843,3,8,35,0,3,35,32,1,2,1,8362,undefined,undefined,undefined,
j95y3zzme0,undefined,undefined,undefined,undefined,4,Familiar,8,NA,NA,NA,NA,4,11,26,1,4,12,30,0,0,0,1517.9999999997672,undefined,undefined,undefined,
j95y3zzme0,undefined,undefined,undefined,undefined,5,Familiar,12,NA,NA,NA,NA,5,34,32,2,5,32,9,1,0,0,3914,undefined,undefined,undefined,
j95y3zzme0,undefined,undefined,undefined,undefined,6,Know,19,BRIANNA,BRIANNA,true,3052,6,1,11,1,6,34,25,1,2,1,3190,undefined,undefined,undefined,
j95y3zzme0,undefined,undefined,undefined,undefined,7,Familiar,17,NA,NA,NA,NA,7,26,33,0,7,19,7,0,1,0,1517,undefined,undefined,undefined,
j95y3zzme0,undefined,undefined,undefined,undefined,8,Familiar,36,NA,NA,NA,NA,8,30,15,2,8,16,26,1,1,1,1950,undefined,undefined,undefined,
j95y3zzme0,undefined,undefined,undefined,undefined,9,Know,2,AUDREY,AUDREY,true,11919,9,15,6,2,9,36,3,0,0,0,1537,undefined,undefined,undefined,
j95y3zzme0,undefined,undefined,undefined,undefined,10,Know,3,MARGARET,MARGARET,true,3065,10,14,17,0,10,25,13,0,2,1,2439,undefined,undefined,undefined,
j95y3zzme0,undefined,undefined,undefined,undefined,11,Familiar,29,NA,NA,NA,NA,11,31,36,2,11,15,6,0,2,1,1647.9999999997672,undefined,undefined,undefined,
j95y3zzme0,undefined,undefined,undefined,undefined,12,Familiar,26,NA,NA,NA,NA,12,22,24,1,12,3,5,0,1,0,874,undefined,undefined,undefined,
j95y3zzme0,undefined,undefined,undefined,undefined,13,Know,23,ELIZABETH,ELIZABETH,true,5285,13,23,31,1,13,11,21,1,1,1,3920,undefined,undefined,undefined,
j95y3zzme0,undefined,undefined,undefined,undefined,14,Know,22,KAREN,KAREN,true,2497.999999999971,14,35,25,2,14,21,24,1,1,1,1671.0000000002328,undefined,undefined,undefined,
j95y3zzme0,undefined,undefined,undefined,undefined,15,Familiar,32,NA,NA,NA,NA,15,24,19,0,15,30,28,1,2,0,2828,undefined,undefined,undefined,
j95y3zzme0,undefined,undefined,undefined,undefined,16,Familiar,13,NA,NA,NA,NA,16,27,2,2,16,7,8,0,2,0,1502,undefined,undefined,undefined,
j95y3zzme0,undefined,undefined,undefined,undefined,17,Know,11,PATRICIA,PATRICIA,true,3425,17,33,12,2,17,33,12,0,2,0,2230,undefined,undefined,undefined,
j95y3zzme0,undefined,undefined,undefined,undefined,18,Know,21,MADISON,MADISON,true,2961,18,18,16,0,18,8,35,0,0,0,1198,undefined,undefined,undefined,
j95y3zzme0,undefined,undefined,undefined,undefined,19,Familiar,24,NA,NA,NA,NA,19,10,23,1,19,22,34,1,1,1,1261,undefined,undefined,undefined,
j95y3zzme0,undefined,undefined,undefined,undefined,20,Know,16,JENNIFER,JENNIFER,true,2765.000000000029,20,3,5,1,20,24,33,1,0,1,1111,undefined,undefined,undefined,
j95y3zzme0,undefined,undefined,undefined,undefined,21,Familiar,6,NA,NA,NA,NA,21,13,4,0,21,29,10,0,0,0,1876.0000000002328,undefined,undefined,undefined,
j95y3zzme0,undefined,undefined,undefined,undefined,22,Familiar,14,NA,NA,NA,NA,22,29,10,0,22,5,23,1,1,1,1925,undefined,undefined,undefined,
j95y3zzme0,undefined,undefined,undefined,undefined,23,Know,5,NANCY,NANCY,true,2924,23,7,8,2,23,17,20,0,0,0,1520,undefined,undefined,undefined,
j95y3zzme0,undefined,undefined,undefined,undefined,24,Know,10,REBECCA,REBECCA,true,2829,24,16,21,1,24,31,36,0,2,1,1237,undefined,undefined,undefined,
j95y3zzme0,undefined,undefined,undefined,undefined,25,Familiar,24,NA,NA,NA,NA,25,12,30,0,25,28,15,1,2,1,1201,undefined,undefined,undefined,
j95y3zzme0,undefined,undefined,undefined,undefined,26,Know,2,AUDREY,RACHEL,false,10286,26,6,9,0,26,23,31,0,1,0,3350,undefined,undefined,undefined,
j95y3zzme0,undefined,undefined,undefined,undefined,27,Familiar,12,NA,NA,NA,NA,27,4,27,2,27,18,16,0,0,1,1034.9999999997672,undefined,undefined,undefined,
j95y3zzme0,undefined,undefined,undefined,undefined,28,Know,16,JENNIFER,KATHERINE,false,10214,28,19,7,1,28,9,27,1,2,0,1418,undefined,undefined,undefined,
j95y3zzme0,undefined,undefined,undefined,undefined,29,Know,19,BRIANNA,NANCY,false,10712,29,32,22,0,29,26,19,1,0,1,1229.0000000002328,undefined,undefined,undefined,
j95y3zzme0,undefined,undefined,undefined,undefined,30,Familiar,36,NA,NA,NA,NA,30,36,3,0,30,20,29,0,1,0,2494.000000000233,undefined,undefined,undefined,
j95y3zzme0,undefined,undefined,undefined,undefined,31,Know,20,SAMANTHA,AUDREY,false,14358,31,2,14,1,31,10,1,1,1,0,1775,undefined,undefined,undefined,
j95y3zzme0,undefined,undefined,undefined,undefined,32,Familiar,32,NA,NA,NA,NA,32,20,29,1,32,4,18,1,2,1,1678,undefined,undefined,undefined,
j95y3zzme0,undefined,undefined,undefined,undefined,33,Familiar,17,NA,NA,NA,NA,33,28,28,2,33,13,17,1,0,1,1054,undefined,undefined,undefined,
j95y3zzme0,undefined,undefined,undefined,undefined,34,Know,22,KAREN,KAREN,true,7894,34,25,13,2,34,14,4,1,0,1,1121,undefined,undefined,undefined,
j95y3zzme0,undefined,undefined,undefined,undefined,35,Know,1,RACHEL,BRIANNA,false,3774,35,5,1,1,35,2,14,0,1,0,1156,undefined,undefined,undefined,
j95y3zzme0,undefined,undefined,undefined,undefined,36,Familiar,13,NA,NA,NA,NA,36,17,20,0,36,27,2,0,2,0,5672,undefined,undefined,undefined,
j95y3zzme0,undefined,undefined,undefined,undefined,37,Know,21,MADISON,ELIZABETH,false,12301,37,12,30,0,undefined,undefined,undefined,undefined,undefined,undefined,undefined,undefined,undefined,undefined,
j95y3zzme0,undefined,undefined,undefined,undefined,38,Know,3,MARGARET,AUBREY,false,12568.000000000058,38,11,26,1,undefined,undefined,undefined,undefined,undefined,undefined,undefined,undefined,undefined,undefined,
j95y3zzme0,undefined,undefined,undefined,undefined,39,Familiar,8,NA,NA,NA,NA,39,17,20,0,undefined,undefined,undefined,undefined,undefined,undefined,undefined,undefined,undefined,undefined,
j95y3zzme0,undefined,undefined,undefined,undefined,40,Familiar,26,NA,NA,NA,NA,40,31,36,2,undefined,undefined,undefined,undefined,undefined,undefined,undefined,undefined,undefined,undefined,
j95y3zzme0,undefined,undefined,undefined,undefined,41,Know,11,PATRICIA,PATRICIA,true,10007,41,2,14,1,undefined,undefined,undefined,undefined,undefined,undefined,undefined,undefined,undefined,undefined,
j95y3zzme0,undefined,undefined,undefined,undefined,42,Know,5,NANCY,RACHEL,false,7856,42,26,33,0,undefined,undefined,undefined,undefined,undefined,undefined,undefined,undefined,undefined,undefined,
j95y3zzme0,undefined,undefined,undefined,undefined,43,Familiar,6,NA,NA,NA,NA,43,36,3,0,undefined,undefined,undefined,undefined,undefined,undefined,undefined,undefined,undefined,undefined,
j95y3zzme0,undefined,undefined,undefined,undefined,44,Familiar,18,NA,NA,NA,NA,44,23,31,1,undefined,undefined,undefined,undefined,undefined,undefined,undefined,undefined,undefined,undefined,
j95y3zzme0,undefined,undefined,undefined,undefined,45,Know,10,REBECCA,SAMANTHA,false,12179.999999999942,45,27,2,2,undefined,undefined,undefined,undefined,undefined,undefined,undefined,undefined,undefined,undefined,
j95y3zzme0,undefined,undefined,undefined,undefined,46,Familiar,14,NA,NA,NA,NA,46,3,5,1,undefined,undefined,undefined,undefined,undefined,undefined,undefined,undefined,undefined,undefined,
j95y3zzme0,undefined,undefined,undefined,undefined,47,Familiar,29,NA,NA,NA,NA,47,16,21,1,undefined,undefined,undefined,undefined,undefined,undefined,undefined,undefined,undefined,undefined,
j95y3zzme0,undefined,undefined,undefined,undefined,48,Know,23,ELIZABETH,NANCY,false,13868,48,8,35,0,undefined,undefined,undefined,undefined,undefined,undefined,undefined,undefined,undefined,undefined,
j95y3zzme0,undefined,undefined,undefined,undefined,49,Know,1,RACHEL,RACHEL,true,3404,49,29,10,0,undefined,undefined,undefined,undefined,undefined,undefined,undefined,undefined,undefined,undefined,
j95y3zzme0,undefined,undefined,undefined,undefined,50,Familiar,32,NA,NA,NA,NA,50,9,18,2,undefined,undefined,undefined,undefined,undefined,undefined,undefined,undefined,undefined,undefined,
j95y3zzme0,undefined,undefined,undefined,undefined,51,Know,16,JENNIFER,BRIANNA,false,10396,51,4,27,2,undefined,undefined,undefined,undefined,undefined,undefined,undefined,undefined,undefined,undefined,
j95y3zzme0,undefined,undefined,undefined,undefined,52,Familiar,13,NA,NA,NA,NA,52,10,23,1,undefined,undefined,undefined,undefined,undefined,undefined,undefined,undefined,undefined,undefined,
j95y3zzme0,undefined,undefined,undefined,undefined,53,Know,23,ELIZABETH,JENNIFER,false,10676,53,15,6,2,undefined,undefined,undefined,undefined,undefined,undefined,undefined,undefined,undefined,undefined,
j95y3zzme0,undefined,undefined,undefined,undefined,54,Know,20,SAMANTHA,BRIANNA,false,7649.999999999942,54,28,28,2,undefined,undefined,undefined,undefined,undefined,undefined,undefined,undefined,undefined,undefined,
j95y3zzme0,undefined,undefined,undefined,undefined,55,Familiar,24,NA,NA,NA,NA,55,14,17,0,undefined,undefined,undefined,undefined,undefined,undefined,undefined,undefined,undefined,undefined,
j95y3zzme0,undefined,undefined,undefined,undefined,56,Familiar,8,NA,NA,NA,NA,56,24,19,0,undefined,undefined,undefined,undefined,undefined,undefined,undefined,undefined,undefined,undefined,
j95y3zzme0,undefined,undefined,undefined,undefined,57,Know,10,REBECCA,MARGARET,false,12616,57,5,1,1,undefined,undefined,undefined,undefined,undefined,undefined,undefined,undefined,undefined,undefined,
j95y3zzme0,undefined,undefined,undefined,undefined,58,Familiar,26,NA,NA,NA,NA,58,21,34,1,undefined,undefined,undefined,undefined,undefined,undefined,undefined,undefined,undefined,undefined,
j95y3zzme0,undefined,undefined,undefined,undefined,59,Familiar,6,NA,NA,NA,NA,59,33,12,2,undefined,undefined,undefined,undefined,undefined,undefined,undefined,undefined,undefined,undefined,
j95y3zzme0,undefined,undefined,undefined,undefined,60,Know,2,AUDREY,RACHEL,false,9453,60,34,32,2,undefined,undefined,undefined,undefined,undefined,undefined,undefined,undefined,undefined,undefined,
j95y3zzme0,undefined,undefined,undefined,undefined,61,Know,21,MADISON,MARGARET,false,4062,61,1,11,1,undefined,undefined,undefined,undefined,undefined,undefined,undefined,undefined,undefined,undefined,
j95y3zzme0,undefined,undefined,undefined,undefined,62,Familiar,18,NA,NA,NA,NA,62,19,7,1,undefined,undefined,undefined,undefined,undefined,undefined,undefined,undefined,undefined,undefined,
j95y3zzme0,undefined,undefined,undefined,undefined,63,Familiar,14,NA,NA,NA,NA,63,6,9,0,undefined,undefined,undefined,undefined,undefined,undefined,undefined,undefined,undefined,undefined,
j95y3zzme0,undefined,undefined,undefined,undefined,64,Know,5,NANCY,NANCY,true,4184,64,20,29,1,undefined,undefined,undefined,undefined,undefined,undefined,undefined,undefined,undefined,undefined,
j95y3zzme0,undefined,undefined,undefined,undefined,65,Familiar,29,NA,NA,NA,NA,65,7,8,2,undefined,undefined,undefined,undefined,undefined,undefined,undefined,undefined,undefined,undefined,
j95y3zzme0,undefined,undefined,undefined,undefined,66,Know,22,KAREN,KAREN,true,4697,66,30,15,2,undefined,undefined,undefined,undefined,undefined,undefined,undefined,undefined,undefined,undefined,
j95y3zzme0,undefined,undefined,undefined,undefined,67,Familiar,17,NA,NA,NA,NA,67,32,22,0,undefined,undefined,undefined,undefined,undefined,undefined,undefined,undefined,undefined,undefined,
j95y3zzme0,undefined,undefined,undefined,undefined,68,Familiar,12,NA,NA,NA,NA,68,18,16,0,undefined,undefined,undefined,undefined,undefined,undefined,undefined,undefined,undefined,undefined,
j95y3zzme0,undefined,undefined,undefined,undefined,69,Know,11,PATRICIA,SAMANTHA,false,10787,69,22,24,1,undefined,undefined,undefined,undefined,undefined,undefined,undefined,undefined,undefined,undefined,
j95y3zzme0,undefined,undefined,undefined,undefined,70,Know,3,MARGARET,MARGARET,true,4722,70,13,4,0,undefined,undefined,undefined,undefined,undefined,undefined,undefined,undefined,undefined,undefined,
j95y3zzme0,undefined,undefined,undefined,undefined,71,Familiar,36,NA,NA,NA,NA,71,25,13,2,undefined,undefined,undefined,undefined,undefined,undefined,undefined,undefined,undefined,undefined,
j95y3zzme0,undefined,undefined,undefined,undefined,72,Know,19,BRIANNA,SAMANTHA,false,5799,72,35,25,2,undefined,undefined,undefined,undefined,undefined,undefined,undefined,undefined,undefined,undefined,
j95y3zzme0,undefined,undefined,undefined,undefined,73,Familiar,12,NA,NA,NA,NA,undefined,undefined,undefined,undefined,undefined,undefined,undefined,undefined,undefined,undefined,undefined,undefined,undefined,undefined,
j95y3zzme0,undefined,undefined,undefined,undefined,74,Know,19,BRIANNA,BRIANNA,true,3344,undefined,undefined,undefined,undefined,undefined,undefined,undefined,undefined,undefined,undefined,undefined,undefined,undefined,undefined,
j95y3zzme0,undefined,undefined,undefined,undefined,75,Know,2,AUDREY,AUDREY,true,6707,undefined,undefined,undefined,undefined,undefined,undefined,undefined,undefined,undefined,undefined,undefined,undefined,undefined,undefined,
j95y3zzme0,undefined,undefined,undefined,undefined,76,Familiar,13,NA,NA,NA,NA,undefined,undefined,undefined,undefined,undefined,undefined,undefined,undefined,undefined,undefined,undefined,undefined,undefined,undefined,
j95y3zzme0,undefined,undefined,undefined,undefined,77,Know,11,PATRICIA,PATRICIA,true,6072,undefined,undefined,undefined,undefined,undefined,undefined,undefined,undefined,undefined,undefined,undefined,undefined,undefined,undefined,
j95y3zzme0,undefined,undefined,undefined,undefined,78,Familiar,32,NA,NA,NA,NA,undefined,undefined,undefined,undefined,undefined,undefined,undefined,undefined,undefined,undefined,undefined,undefined,undefined,undefined,
j95y3zzme0,undefined,undefined,undefined,undefined,79,Familiar,29,NA,NA,NA,NA,undefined,undefined,undefined,undefined,undefined,undefined,undefined,undefined,undefined,undefined,undefined,undefined,undefined,undefined,
j95y3zzme0,undefined,undefined,undefined,undefined,80,Know,10,REBECCA,REBECCA,true,10738,undefined,undefined,undefined,undefined,undefined,undefined,undefined,undefined,undefined,undefined,undefined,undefined,undefined,undefined,
j95y3zzme0,undefined,undefined,undefined,undefined,81,Familiar,17,NA,NA,NA,NA,undefined,undefined,undefined,undefined,undefined,undefined,undefined,undefined,undefined,undefined,undefined,undefined,undefined,undefined,
j95y3zzme0,undefined,undefined,undefined,undefined,82,Know,5,NANCY,NANCY,true,2605,undefined,undefined,undefined,undefined,undefined,undefined,undefined,undefined,undefined,undefined,undefined,undefined,undefined,undefined,
j95y3zzme0,undefined,undefined,undefined,undefined,83,Know,16,JENNIFER,SAMANTHA,false,6396,undefined,undefined,undefined,undefined,undefined,undefined,undefined,undefined,undefined,undefined,undefined,undefined,undefined,undefined,
j95y3zzme0,undefined,undefined,undefined,undefined,84,Familiar,6,NA,NA,NA,NA,undefined,undefined,undefined,undefined,undefined,undefined,undefined,undefined,undefined,undefined,undefined,undefined,undefined,undefined,
j95y3zzme0,undefined,undefined,undefined,undefined,85,Familiar,36,NA,NA,NA,NA,undefined,undefined,undefined,undefined,undefined,undefined,undefined,undefined,undefined,undefined,undefined,undefined,undefined,undefined,
j95y3zzme0,undefined,undefined,undefined,undefined,86,Know,22,KAREN,KAREN,true,3101,undefined,undefined,undefined,undefined,undefined,undefined,undefined,undefined,undefined,undefined,undefined,undefined,undefined,undefined,
j95y3zzme0,undefined,undefined,undefined,undefined,87,Know,23,ELIZABETH,NANCY,false,3759,undefined,undefined,undefined,undefined,undefined,undefined,undefined,undefined,undefined,undefined,undefined,undefined,undefined,undefined,
j95y3zzme0,undefined,undefined,undefined,undefined,88,Familiar,24,NA,NA,NA,NA,undefined,undefined,undefined,undefined,undefined,undefined,undefined,undefined,undefined,undefined,undefined,undefined,undefined,undefined,
j95y3zzme0,undefined,undefined,undefined,undefined,89,Know,3,MARGARET,MARGARET,true,2569.9999999998836,undefined,undefined,undefined,undefined,undefined,undefined,undefined,undefined,undefined,undefined,undefined,undefined,undefined,undefined,
j95y3zzme0,undefined,undefined,undefined,undefined,90,Know,1,RACHEL,RACHEL,true,7786.999999999884,undefined,undefined,undefined,undefined,undefined,undefined,undefined,undefined,undefined,undefined,undefined,undefined,undefined,undefined,
j95y3zzme0,undefined,undefined,undefined,undefined,91,Familiar,14,NA,NA,NA,NA,undefined,undefined,undefined,undefined,undefined,undefined,undefined,undefined,undefined,undefined,undefined,undefined,undefined,undefined,
j95y3zzme0,undefined,undefined,undefined,undefined,92,Know,21,MADISON,BRIANNA,false,5652,undefined,undefined,undefined,undefined,undefined,undefined,undefined,undefined,undefined,undefined,undefined,undefined,undefined,undefined,
j95y3zzme0,undefined,undefined,undefined,undefined,93,Familiar,26,NA,NA,NA,NA,undefined,undefined,undefined,undefined,undefined,undefined,undefined,undefined,undefined,undefined,undefined,undefined,undefined,undefined,
j95y3zzme0,undefined,undefined,undefined,undefined,94,Know,20,SAMANTHA,SAMANTHA,true,7855,undefined,undefined,undefined,undefined,undefined,undefined,undefined,undefined,undefined,undefined,undefined,undefined,undefined,undefined,
j95y3zzme0,undefined,undefined,undefined,undefined,95,Familiar,18,NA,NA,NA,NA,undefined,undefined,undefined,undefined,undefined,undefined,undefined,undefined,undefined,undefined,undefined,undefined,undefined,undefined,
j95y3zzme0,undefined,undefined,undefined,undefined,96,Familiar,8,NA,NA,NA,NA,undefined,undefined,undefined,undefined,undefined,undefined,undefined,undefined,undefined,undefined,undefined,undefined,undefined,undefined,
