SubNum,SubNum_demo,Exp_start_time,Exp_today_date,Exp_today_time,TrialNum,Condition,Face,Name,Response,NameAcc,RespTime,StudyTrialNum,StudyFace,StudyContext,StudyFamCond,TestTrialNum,TestFace,TestContext,TestSDCond,TestFamCond,TestResponse,TestResponseTime,Exp_end_time,Distractor_1_duration,Distractor_2_duration,
7ma5x9dl10,b9vyxdbw8l,Mon Oct 19 2020 22:06:54 GMT-0500 (Central Daylight Time),2020-10-19,22:6:54,1,Familiar,30,NA,NA,NA,NA,1,3,9,0,1,22,19,1,0,1,1655.8049999875948,23:30:51,211746.58500001533,62769.88999999594,
7ma5x9dl10,undefined,undefined,undefined,undefined,2,Know,32,REBECCA,REBECCA,true,5140.830000047572,2,23,36,1,2,15,16,1,1,0,1404.3599999858998,undefined,undefined,undefined,
7ma5x9dl10,undefined,undefined,undefined,undefined,3,Familiar,8,NA,NA,NA,NA,3,21,29,0,3,6,10,1,2,1,1353.7449999712408,undefined,undefined,undefined,
7ma5x9dl10,undefined,undefined,undefined,undefined,4,Know,27,KAYLA,KAYLA,true,3036.3149999757297,4,25,20,0,4,31,17,1,2,1,1747.5850000046194,undefined,undefined,undefined,
7ma5x9dl10,undefined,undefined,undefined,undefined,5,Familiar,2,NA,NA,NA,NA,5,18,5,2,5,3,9,0,0,0,1197.0299999811687,undefined,undefined,undefined,
7ma5x9dl10,undefined,undefined,undefined,undefined,6,Know,33,NICOLE,NICOLE,true,3166.045000019949,6,1,35,2,6,30,3,0,0,0,1141.3549999706447,undefined,undefined,undefined,
7ma5x9dl10,undefined,undefined,undefined,undefined,7,Know,29,VICTORIA,VICTORIA,true,4415.634999983013,7,24,13,1,7,5,22,0,2,0,1439.8049999726936,undefined,undefined,undefined,
7ma5x9dl10,undefined,undefined,undefined,undefined,8,Familiar,14,NA,NA,NA,NA,8,4,8,1,8,20,32,1,0,1,1350.1300000352785,undefined,undefined,undefined,
7ma5x9dl10,undefined,undefined,undefined,undefined,9,Know,28,NANCY,NANCY,true,2615.15500000678,9,14,25,0,9,26,2,0,2,1,1628.5900000366382,undefined,undefined,undefined,
7ma5x9dl10,undefined,undefined,undefined,undefined,10,Know,10,JESSICA,JESSICA,true,2161.1200000043027,10,10,27,1,10,12,33,1,1,0,1555.3200000431389,undefined,undefined,undefined,
7ma5x9dl10,undefined,undefined,undefined,undefined,11,Familiar,3,NA,NA,NA,NA,11,19,21,2,11,7,30,0,2,1,1705.9899999876507,undefined,undefined,undefined,
7ma5x9dl10,undefined,undefined,undefined,undefined,12,Know,34,SOFIA,SOFIA,true,2181.0049999621697,12,6,17,2,12,18,14,1,2,1,1977.8150000493042,undefined,undefined,undefined,
7ma5x9dl10,undefined,undefined,undefined,undefined,13,Know,24,LISA,LISA,true,1632.2650000220165,13,28,28,1,13,32,24,0,1,0,1356.1400000471622,undefined,undefined,undefined,
7ma5x9dl10,undefined,undefined,undefined,undefined,14,Familiar,36,NA,NA,NA,NA,14,7,30,2,14,35,5,1,2,1,1241.6300000040792,undefined,undefined,undefined,
7ma5x9dl10,undefined,undefined,undefined,undefined,15,Know,23,AMANDA,AMANDA,true,2060.33499998739,15,26,2,2,15,29,11,0,1,0,1678.9049999788404,undefined,undefined,undefined,
7ma5x9dl10,undefined,undefined,undefined,undefined,16,Familiar,21,NA,NA,NA,NA,16,22,32,0,16,34,8,1,1,0,1495.7849999773316,undefined,undefined,undefined,
7ma5x9dl10,undefined,undefined,undefined,undefined,17,Familiar,20,NA,NA,NA,NA,17,30,3,0,17,13,29,1,0,0,2432.0600000210106,undefined,undefined,undefined,
7ma5x9dl10,undefined,undefined,undefined,undefined,18,Know,4,MEGAN,MEGAN,true,2046.6599999926984,18,9,4,2,18,8,34,0,0,1,5223.73000002699,undefined,undefined,undefined,
7ma5x9dl10,undefined,undefined,undefined,undefined,19,Familiar,13,NA,NA,NA,NA,19,34,26,1,19,21,15,1,0,0,4485.634999989998,undefined,undefined,undefined,
7ma5x9dl10,undefined,undefined,undefined,undefined,20,Know,15,AUDREY,AUDREY,true,2552.404999965802,20,31,10,2,20,2,31,0,0,1,4778.80000002915,undefined,undefined,undefined,
7ma5x9dl10,undefined,undefined,undefined,undefined,21,Familiar,25,NA,NA,NA,NA,21,12,16,1,21,28,28,0,1,0,19022.72000000812,undefined,undefined,undefined,
7ma5x9dl10,undefined,undefined,undefined,undefined,22,Familiar,16,NA,NA,NA,NA,22,11,7,2,22,11,1,1,2,1,1266.185000014957,undefined,undefined,undefined,
7ma5x9dl10,undefined,undefined,undefined,undefined,23,Know,12,GRACE,GRACE,true,2464.2600000370294,23,2,31,0,23,25,23,1,0,0,1812.9900000058115,undefined,undefined,undefined,
7ma5x9dl10,undefined,undefined,undefined,undefined,24,Familiar,22,NA,NA,NA,NA,24,32,24,1,24,33,18,0,1,0,1416.3450000341982,undefined,undefined,undefined,
7ma5x9dl10,undefined,undefined,undefined,undefined,25,Know,29,VICTORIA,NICOLE,false,8211.27999998862,25,5,22,2,25,4,26,1,1,0,1093.700000026729,undefined,undefined,undefined,
7ma5x9dl10,undefined,undefined,undefined,undefined,26,Familiar,2,NA,NA,NA,NA,26,16,23,0,26,1,35,0,2,0,1311.069999996107,undefined,undefined,undefined,
7ma5x9dl10,undefined,undefined,undefined,undefined,27,Familiar,36,NA,NA,NA,NA,27,36,6,0,27,14,25,0,0,0,991.924999980256,undefined,undefined,undefined,
7ma5x9dl10,undefined,undefined,undefined,undefined,28,Know,10,JESSICA,KAYLA,false,9850.310000008903,28,29,11,1,28,9,4,0,2,1,959.4499999657273,undefined,undefined,undefined,
7ma5x9dl10,undefined,undefined,undefined,undefined,29,Know,32,REBECCA,AUDREY,false,6418.439999979455,29,8,34,0,29,27,12,0,1,0,1007.1749999769963,undefined,undefined,undefined,
7ma5x9dl10,undefined,undefined,undefined,undefined,30,Familiar,21,NA,NA,NA,NA,30,20,19,0,30,10,27,0,1,0,2463.6199999949895,undefined,undefined,undefined,
7ma5x9dl10,undefined,undefined,undefined,undefined,31,Familiar,25,NA,NA,NA,NA,31,15,33,1,31,23,13,1,1,1,1503.1549999839626,undefined,undefined,undefined,
7ma5x9dl10,undefined,undefined,undefined,undefined,32,Know,15,AUDREY,KAYLA,false,4725.35500000231,32,17,1,2,32,24,36,1,1,0,1168.0749999941327,undefined,undefined,undefined,
7ma5x9dl10,undefined,undefined,undefined,undefined,33,Familiar,30,NA,NA,NA,NA,33,33,18,1,33,17,7,1,2,0,2485.9200000064448,undefined,undefined,undefined,
7ma5x9dl10,undefined,undefined,undefined,undefined,34,Know,34,SOFIA,KAYLA,false,11185.85999996867,34,13,15,0,34,19,21,0,2,0,1808.5749999736436,undefined,undefined,undefined,
7ma5x9dl10,undefined,undefined,undefined,undefined,35,Know,12,GRACE,KAYLA,false,2549.055000010412,35,35,14,2,35,16,20,1,0,1,2170.5650000367314,undefined,undefined,undefined,
7ma5x9dl10,undefined,undefined,undefined,undefined,36,Familiar,8,NA,NA,NA,NA,36,27,12,1,36,36,6,0,0,1,1699.5899999747053,undefined,undefined,undefined,
7ma5x9dl10,undefined,undefined,undefined,undefined,37,Know,23,AMANDA,KAYLA,false,3098.1799999717623,37,12,16,1,undefined,undefined,undefined,undefined,undefined,undefined,undefined,undefined,undefined,undefined,
7ma5x9dl10,undefined,undefined,undefined,undefined,38,Familiar,16,NA,NA,NA,NA,38,16,23,0,undefined,undefined,undefined,undefined,undefined,undefined,undefined,undefined,undefined,undefined,
7ma5x9dl10,undefined,undefined,undefined,undefined,39,Familiar,20,NA,NA,NA,NA,39,30,3,0,undefined,undefined,undefined,undefined,undefined,undefined,undefined,undefined,undefined,undefined,
7ma5x9dl10,undefined,undefined,undefined,undefined,40,Know,27,KAYLA,KAYLA,true,3071.649999998044,40,26,2,2,undefined,undefined,undefined,undefined,undefined,undefined,undefined,undefined,undefined,undefined,
7ma5x9dl10,undefined,undefined,undefined,undefined,41,Know,28,NANCY,LISA,false,12552.304999961052,41,15,33,1,undefined,undefined,undefined,undefined,undefined,undefined,undefined,undefined,undefined,undefined,
7ma5x9dl10,undefined,undefined,undefined,undefined,42,Familiar,22,NA,NA,NA,NA,42,11,7,2,undefined,undefined,undefined,undefined,undefined,undefined,undefined,undefined,undefined,undefined,
7ma5x9dl10,undefined,undefined,undefined,undefined,43,Familiar,13,NA,NA,NA,NA,43,19,21,2,undefined,undefined,undefined,undefined,undefined,undefined,undefined,undefined,undefined,undefined,
7ma5x9dl10,undefined,undefined,undefined,undefined,44,Know,24,LISA,LISA,true,4837.44500001194,44,13,15,0,undefined,undefined,undefined,undefined,undefined,undefined,undefined,undefined,undefined,undefined,
7ma5x9dl10,undefined,undefined,undefined,undefined,45,Familiar,3,NA,NA,NA,NA,45,29,11,1,undefined,undefined,undefined,undefined,undefined,undefined,undefined,undefined,undefined,undefined,
7ma5x9dl10,undefined,undefined,undefined,undefined,46,Know,33,NICOLE,AMANDA,false,5231.130000029225,46,20,19,0,undefined,undefined,undefined,undefined,undefined,undefined,undefined,undefined,undefined,undefined,
7ma5x9dl10,undefined,undefined,undefined,undefined,47,Know,4,MEGAN,AMANDA,false,3884.169999975711,47,7,30,2,undefined,undefined,undefined,undefined,undefined,undefined,undefined,undefined,undefined,undefined,
7ma5x9dl10,undefined,undefined,undefined,undefined,48,Familiar,14,NA,NA,NA,NA,48,25,20,0,undefined,undefined,undefined,undefined,undefined,undefined,undefined,undefined,undefined,undefined,
7ma5x9dl10,undefined,undefined,undefined,undefined,49,Know,12,GRACE,GRACE,true,9643.450000032317,49,2,31,0,undefined,undefined,undefined,undefined,undefined,undefined,undefined,undefined,undefined,undefined,
7ma5x9dl10,undefined,undefined,undefined,undefined,50,Familiar,30,NA,NA,NA,NA,50,32,24,1,undefined,undefined,undefined,undefined,undefined,undefined,undefined,undefined,undefined,undefined,
7ma5x9dl10,undefined,undefined,undefined,undefined,51,Familiar,22,NA,NA,NA,NA,51,8,34,0,undefined,undefined,undefined,undefined,undefined,undefined,undefined,undefined,undefined,undefined,
7ma5x9dl10,undefined,undefined,undefined,undefined,52,Know,10,JESSICA,KAYLA,false,4366.274999978486,52,14,25,0,undefined,undefined,undefined,undefined,undefined,undefined,undefined,undefined,undefined,undefined,
7ma5x9dl10,undefined,undefined,undefined,undefined,53,Familiar,13,NA,NA,NA,NA,53,31,10,2,undefined,undefined,undefined,undefined,undefined,undefined,undefined,undefined,undefined,undefined,
7ma5x9dl10,undefined,undefined,undefined,undefined,54,Know,15,AUDREY,AMANDA,false,6468.180000025313,54,34,26,1,undefined,undefined,undefined,undefined,undefined,undefined,undefined,undefined,undefined,undefined,
7ma5x9dl10,undefined,undefined,undefined,undefined,55,Familiar,3,NA,NA,NA,NA,55,24,13,1,undefined,undefined,undefined,undefined,undefined,undefined,undefined,undefined,undefined,undefined,
7ma5x9dl10,undefined,undefined,undefined,undefined,56,Know,4,MEGAN,NICOLE,false,5097.650000010617,56,6,17,2,undefined,undefined,undefined,undefined,undefined,undefined,undefined,undefined,undefined,undefined,
7ma5x9dl10,undefined,undefined,undefined,undefined,57,Know,27,KAYLA,KAYLA,true,3928.5300000337884,57,10,27,1,undefined,undefined,undefined,undefined,undefined,undefined,undefined,undefined,undefined,undefined,
7ma5x9dl10,undefined,undefined,undefined,undefined,58,Familiar,8,NA,NA,NA,NA,58,33,18,1,undefined,undefined,undefined,undefined,undefined,undefined,undefined,undefined,undefined,undefined,
7ma5x9dl10,undefined,undefined,undefined,undefined,59,Familiar,36,NA,NA,NA,NA,59,1,35,2,undefined,undefined,undefined,undefined,undefined,undefined,undefined,undefined,undefined,undefined,
7ma5x9dl10,undefined,undefined,undefined,undefined,60,Know,29,VICTORIA,AUDREY,false,4228.390000003856,60,23,36,1,undefined,undefined,undefined,undefined,undefined,undefined,undefined,undefined,undefined,undefined,
7ma5x9dl10,undefined,undefined,undefined,undefined,61,Familiar,2,NA,NA,NA,NA,61,18,5,2,undefined,undefined,undefined,undefined,undefined,undefined,undefined,undefined,undefined,undefined,
7ma5x9dl10,undefined,undefined,undefined,undefined,62,Familiar,16,NA,NA,NA,NA,62,21,29,0,undefined,undefined,undefined,undefined,undefined,undefined,undefined,undefined,undefined,undefined,
7ma5x9dl10,undefined,undefined,undefined,undefined,63,Know,28,NANCY,AUDREY,false,6944.535000016913,63,5,22,2,undefined,undefined,undefined,undefined,undefined,undefined,undefined,undefined,undefined,undefined,
7ma5x9dl10,undefined,undefined,undefined,undefined,64,Know,32,REBECCA,NICOLE,false,12053.509999997914,64,9,4,2,undefined,undefined,undefined,undefined,undefined,undefined,undefined,undefined,undefined,undefined,
7ma5x9dl10,undefined,undefined,undefined,undefined,65,Familiar,21,NA,NA,NA,NA,65,36,6,0,undefined,undefined,undefined,undefined,undefined,undefined,undefined,undefined,undefined,undefined,
7ma5x9dl10,undefined,undefined,undefined,undefined,66,Know,24,LISA,GRACE,false,7166.709999961313,66,35,14,2,undefined,undefined,undefined,undefined,undefined,undefined,undefined,undefined,undefined,undefined,
7ma5x9dl10,undefined,undefined,undefined,undefined,67,Know,23,AMANDA,NANCY,false,5291.769999952521,67,28,28,1,undefined,undefined,undefined,undefined,undefined,undefined,undefined,undefined,undefined,undefined,
7ma5x9dl10,undefined,undefined,undefined,undefined,68,Familiar,14,NA,NA,NA,NA,68,22,32,0,undefined,undefined,undefined,undefined,undefined,undefined,undefined,undefined,undefined,undefined,
7ma5x9dl10,undefined,undefined,undefined,undefined,69,Familiar,20,NA,NA,NA,NA,69,3,9,0,undefined,undefined,undefined,undefined,undefined,undefined,undefined,undefined,undefined,undefined,
7ma5x9dl10,undefined,undefined,undefined,undefined,70,Know,33,NICOLE,AMANDA,false,7627.584999951068,70,27,12,1,undefined,undefined,undefined,undefined,undefined,undefined,undefined,undefined,undefined,undefined,
7ma5x9dl10,undefined,undefined,undefined,undefined,71,Know,34,SOFIA,LISA,false,6306.655000022147,71,4,8,1,undefined,undefined,undefined,undefined,undefined,undefined,undefined,undefined,undefined,undefined,
7ma5x9dl10,undefined,undefined,undefined,undefined,72,Familiar,25,NA,NA,NA,NA,72,17,1,2,undefined,undefined,undefined,undefined,undefined,undefined,undefined,undefined,undefined,undefined,
7ma5x9dl10,undefined,undefined,undefined,undefined,73,Familiar,30,NA,NA,NA,NA,undefined,undefined,undefined,undefined,undefined,undefined,undefined,undefined,undefined,undefined,undefined,undefined,undefined,undefined,
7ma5x9dl10,undefined,undefined,undefined,undefined,74,Know,4,MEGAN,REBECCA,false,5387.225000013132,undefined,undefined,undefined,undefined,undefined,undefined,undefined,undefined,undefined,undefined,undefined,undefined,undefined,undefined,
7ma5x9dl10,undefined,undefined,undefined,undefined,75,Know,10,JESSICA,REBECCA,false,8009.205000009388,undefined,undefined,undefined,undefined,undefined,undefined,undefined,undefined,undefined,undefined,undefined,undefined,undefined,undefined,
7ma5x9dl10,undefined,undefined,undefined,undefined,76,Familiar,8,NA,NA,NA,NA,undefined,undefined,undefined,undefined,undefined,undefined,undefined,undefined,undefined,undefined,undefined,undefined,undefined,undefined,
7ma5x9dl10,undefined,undefined,undefined,undefined,77,Familiar,25,NA,NA,NA,NA,undefined,undefined,undefined,undefined,undefined,undefined,undefined,undefined,undefined,undefined,undefined,undefined,undefined,undefined,
7ma5x9dl10,undefined,undefined,undefined,undefined,78,Know,28,NANCY,NANCY,true,12929.594999994151,undefined,undefined,undefined,undefined,undefined,undefined,undefined,undefined,undefined,undefined,undefined,undefined,undefined,undefined,
7ma5x9dl10,undefined,undefined,undefined,undefined,79,Know,24,LISA,GRACE,false,19625.485000025947,undefined,undefined,undefined,undefined,undefined,undefined,undefined,undefined,undefined,undefined,undefined,undefined,undefined,undefined,
7ma5x9dl10,undefined,undefined,undefined,undefined,80,Familiar,3,NA,NA,NA,NA,undefined,undefined,undefined,undefined,undefined,undefined,undefined,undefined,undefined,undefined,undefined,undefined,undefined,undefined,
7ma5x9dl10,undefined,undefined,undefined,undefined,81,Familiar,21,NA,NA,NA,NA,undefined,undefined,undefined,undefined,undefined,undefined,undefined,undefined,undefined,undefined,undefined,undefined,undefined,undefined,
7ma5x9dl10,undefined,undefined,undefined,undefined,82,Know,32,REBECCA,NICOLE,false,9354.374999995343,undefined,undefined,undefined,undefined,undefined,undefined,undefined,undefined,undefined,undefined,undefined,undefined,undefined,undefined,
7ma5x9dl10,undefined,undefined,undefined,undefined,83,Know,27,KAYLA,KAYLA,true,6064.810000010766,undefined,undefined,undefined,undefined,undefined,undefined,undefined,undefined,undefined,undefined,undefined,undefined,undefined,undefined,
7ma5x9dl10,undefined,undefined,undefined,undefined,84,Familiar,20,NA,NA,NA,NA,undefined,undefined,undefined,undefined,undefined,undefined,undefined,undefined,undefined,undefined,undefined,undefined,undefined,undefined,
7ma5x9dl10,undefined,undefined,undefined,undefined,85,Know,12,GRACE,AMANDA ,false,16986.269999993965,undefined,undefined,undefined,undefined,undefined,undefined,undefined,undefined,undefined,undefined,undefined,undefined,undefined,undefined,
7ma5x9dl10,undefined,undefined,undefined,undefined,86,Know,34,SOFIA,SOFIA,true,9819.090000004508,undefined,undefined,undefined,undefined,undefined,undefined,undefined,undefined,undefined,undefined,undefined,undefined,undefined,undefined,
7ma5x9dl10,undefined,undefined,undefined,undefined,87,Familiar,14,NA,NA,NA,NA,undefined,undefined,undefined,undefined,undefined,undefined,undefined,undefined,undefined,undefined,undefined,undefined,undefined,undefined,
7ma5x9dl10,undefined,undefined,undefined,undefined,88,Know,23,AMANDA,AMANDA,true,10844.689999998081,undefined,undefined,undefined,undefined,undefined,undefined,undefined,undefined,undefined,undefined,undefined,undefined,undefined,undefined,
7ma5x9dl10,undefined,undefined,undefined,undefined,89,Familiar,36,NA,NA,NA,NA,undefined,undefined,undefined,undefined,undefined,undefined,undefined,undefined,undefined,undefined,undefined,undefined,undefined,undefined,
7ma5x9dl10,undefined,undefined,undefined,undefined,90,Familiar,16,NA,NA,NA,NA,undefined,undefined,undefined,undefined,undefined,undefined,undefined,undefined,undefined,undefined,undefined,undefined,undefined,undefined,
7ma5x9dl10,undefined,undefined,undefined,undefined,91,Know,15,AUDREY,NANCY,false,7755.360000010114,undefined,undefined,undefined,undefined,undefined,undefined,undefined,undefined,undefined,undefined,undefined,undefined,undefined,undefined,
7ma5x9dl10,undefined,undefined,undefined,undefined,92,Familiar,22,NA,NA,NA,NA,undefined,undefined,undefined,undefined,undefined,undefined,undefined,undefined,undefined,undefined,undefined,undefined,undefined,undefined,
7ma5x9dl10,undefined,undefined,undefined,undefined,93,Know,29,VICTORIA,NANCY,false,7611.4200000301935,undefined,undefined,undefined,undefined,undefined,undefined,undefined,undefined,undefined,undefined,undefined,undefined,undefined,undefined,
7ma5x9dl10,undefined,undefined,undefined,undefined,94,Know,33,NICOLE,REBECCA,false,8015.625,undefined,undefined,undefined,undefined,undefined,undefined,undefined,undefined,undefined,undefined,undefined,undefined,undefined,undefined,
7ma5x9dl10,undefined,undefined,undefined,undefined,95,Familiar,13,NA,NA,NA,NA,undefined,undefined,undefined,undefined,undefined,undefined,undefined,undefined,undefined,undefined,undefined,undefined,undefined,undefined,
7ma5x9dl10,undefined,undefined,undefined,undefined,96,Familiar,2,NA,NA,NA,NA,undefined,undefined,undefined,undefined,undefined,undefined,undefined,undefined,undefined,undefined,undefined,undefined,undefined,undefined,
