subID,trialType,trialNum,cntBalance,correct,rt,rwdType,tgtCol,tgtDir,tgtPos,colPos,colMatch,
c1z,VDACtrain,0,g,null,null,2,g,v,5,,,
c1z,VDACtrain,0,g,true,621.2999999970198,2,g,v,0,,,
c1z,VDACtrain,0,g,null,null,2,g,h,5,,,
c1z,VDACtrain,0,g,false,594.0999999940395,1,r,h,0,,,
c1z,VDACtrain,0,g,null,null,1,r,v,3,,,
c1z,VDACtrain,0,g,true,961.3999999985099,2,g,h,3,,,
c1z,VDACtrain,0,g,false,613.2999999970198,1,r,h,1,,,
c1z,VDACtrain,0,g,true,797.5,1,r,v,4,,,
c1z,VDACtrain,0,g,true,742.2000000029802,2,g,v,2,,,
c1z,VDACtrain,0,g,false,646.6999999955297,1,r,h,2,,,
c1z,VDACtrain,0,g,true,888.2000000029802,2,g,h,3,,,
c1z,VDACtrain,0,g,true,621.7999999970198,2,g,v,2,,,
c1z,VDACtrain,0,g,true,582.8999999985099,1,r,h,0,,,
c1z,VDACtrain,0,g,true,709.3999999985099,2,g,v,0,,,
c1z,VDACtrain,0,g,false,877.0999999940395,1,r,h,2,,,
c1z,VDACtrain,0,g,true,798.5,2,g,h,5,,,
c1z,VDACtrain,0,g,true,678.2000000029802,1,r,h,1,,,
c1z,VDACtrain,0,g,true,621.4000000059605,1,r,v,4,,,
c1z,VDACtrain,0,g,true,546.4000000059605,1,r,v,3,,,
c1z,VDACtrain,0,g,true,508.5,2,g,v,5,,,
c1z,VDACtest,1,g,true,698.2000000029802,1,r,h,5,,,
c1z,VDACtest,2,g,true,635.3000000044703,1,r,v,4,,,
c1z,VDACtest,3,g,true,565.8000000044703,1,r,h,5,,,
c1z,VDACtest,4,g,true,599.2999999970198,1,r,h,3,,,
c1z,VDACtest,5,g,true,796.8000000044703,1,r,h,1,,,
c1z,VDACtest,6,g,true,365.30000000447035,2,g,v,4,,,
c1z,VDACtest,7,g,false,460.8999999985099,1,r,v,5,,,
c1z,VDACtest,8,g,true,509.30000000447035,2,g,h,3,,,
c1z,VDACtest,9,g,false,620.8999999985099,1,r,h,4,,,
c1z,VDACtest,10,g,true,581.6000000014901,1,r,h,4,,,
c1z,VDACtest,11,g,true,478.30000000447035,2,g,v,3,,,
c1z,VDACtest,12,g,null,null,2,g,v,2,,,
c1z,VDACtest,13,g,false,855.8999999985099,2,g,h,2,,,
c1z,VDACtest,14,g,true,629.1000000014901,2,g,v,1,,,
c1z,VDACtest,15,g,true,628,2,g,h,2,,,
c1z,VDACtest,16,g,true,615.6999999955297,2,g,v,0,,,
c1z,VDACtest,17,g,false,596.6999999955297,2,g,h,4,,,
c1z,VDACtest,18,g,true,684.8999999985099,2,g,h,2,,,
c1z,VDACtest,19,g,true,509.29999999701977,1,r,v,5,,,
c1z,VDACtest,20,g,true,876.2999999970198,1,r,h,0,,,
c1z,VDACtest,21,g,true,581.8999999985099,2,g,v,4,,,
c1z,VDACtest,22,g,true,534.3000000044703,1,r,v,3,,,
c1z,VDACtest,23,g,true,454.6000000014901,2,g,v,5,,,
c1z,VDACtest,24,g,true,444.59999999403954,2,g,v,4,,,
c1z,VDACtest,25,g,true,421,1,r,h,2,,,
c1z,VDACtest,26,g,true,403.30000000447035,2,g,v,5,,,
c1z,VDACtest,27,g,true,533,1,r,h,4,,,
c1z,VDACtest,28,g,true,525.2000000029802,1,r,h,0,,,
c1z,VDACtest,29,g,true,388.29999999701977,2,g,v,0,,,
c1z,VDACtest,30,g,true,420.59999999403954,2,g,h,3,,,
c1z,VDACtest,31,g,true,444.79999999701977,1,r,v,4,,,
c1z,VDACtest,32,g,true,414.80000000447035,2,g,h,4,,,
c1z,VDACtest,33,g,false,509.20000000298023,1,r,h,5,,,
c1z,VDACtest,34,g,true,413.70000000298023,2,g,v,5,,,
c1z,VDACtest,35,g,false,508.6000000014901,1,r,h,1,,,
c1z,VDACtest,36,g,true,364.30000000447035,1,r,h,5,,,
c1z,VDACtest,37,g,true,437.59999999403954,2,g,h,4,,,
c1z,VDACtest,38,g,true,524.6000000014901,2,g,v,2,,,
c1z,VDACtest,39,g,true,660.3999999985099,1,r,h,2,,,
c1z,VDACtest,40,g,true,478.79999999701977,1,r,h,0,,,
c1z,VDACtest,41,g,true,404.8999999985099,2,g,v,4,,,
c1z,VDACtest,42,g,false,491.8999999985099,1,r,v,0,,,
c1z,VDACtest,43,g,false,435.79999999701977,1,r,h,4,,,
c1z,VDACtest,44,g,false,498,2,g,h,0,,,
c1z,VDACtest,45,g,true,678.6000000014901,2,g,v,1,,,
c1z,VDACtest,46,g,true,357.19999999552965,1,r,h,4,,,
c1z,VDACtest,47,g,false,543.2000000029802,1,r,v,1,,,
c1z,VDACtest,48,g,false,550.5,1,r,v,0,,,
c1z,VDACtest,49,g,true,542.6000000014901,2,g,v,1,,,
c1z,VDACtest,50,g,true,525.7000000029802,1,r,h,3,,,
brk,brk,brk,brk,brk,brk,brk,brk,brk,brk,brk,brk,
c1z,VDACtest,51,g,true,596.8000000044703,2,g,v,0,,,
c1z,VDACtest,52,g,true,524.8000000044703,1,r,v,0,,,
c1z,VDACtest,53,g,true,492.80000000447035,1,r,v,3,,,
c1z,VDACtest,54,g,true,413.5,2,g,h,3,,,
c1z,VDACtest,55,g,true,413.80000000447035,1,r,v,3,,,
c1z,VDACtest,56,g,true,534.2000000029802,2,g,h,4,,,
c1z,VDACtest,57,g,true,438.5,2,g,h,3,,,
c1z,VDACtest,58,g,false,436.6000000014901,1,r,h,0,,,
c1z,VDACtest,59,g,true,716.2000000029802,1,r,v,3,,,
c1z,VDACtest,60,g,true,508.59999999403954,1,r,h,1,,,
c1z,VDACtest,61,g,true,397.8999999985099,2,g,v,4,,,
c1z,VDACtest,62,g,true,501.5,1,r,v,5,,,
c1z,VDACtest,63,g,true,365,2,g,v,4,,,
c1z,VDACtest,64,g,true,484.40000000596046,1,r,v,3,,,
c1z,VDACtest,65,g,true,461.3999999985099,1,r,h,1,,,
c1z,VDACtest,66,g,true,414,2,g,v,0,,,
c1z,VDACtest,67,g,false,557.3999999985099,1,r,h,1,,,
c1z,VDACtest,68,g,true,542.1000000014901,2,g,h,1,,,
c1z,VDACtest,69,g,true,477,1,r,v,2,,,
c1z,VDACtest,70,g,true,371.29999999701977,2,g,h,5,,,
c1z,VDACtest,71,g,true,453.20000000298023,2,g,h,3,,,
c1z,VDACtest,72,g,true,533.7999999970198,2,g,v,2,,,
c1z,VDACtest,73,g,false,670.1000000089407,1,r,v,5,,,
c1z,VDACtest,74,g,false,501.1000000089407,2,g,h,5,,,
c1z,VDACtest,75,g,true,470.70000000298023,1,r,v,5,,,
c1z,VDACtest,76,g,true,421.29999999701977,2,g,h,0,,,
c1z,VDACtest,77,g,false,685,1,r,h,4,,,
c1z,VDACtest,78,g,true,469.5,2,g,v,0,,,
c1z,VDACtest,79,g,true,547.7000000029802,1,r,h,3,,,
c1z,VDACtest,80,g,false,575,1,r,v,2,,,
c1z,VDACtest,81,g,true,543.2000000029802,1,r,h,0,,,
c1z,VDACtest,82,g,true,556.7999999970198,1,r,h,5,,,
c1z,VDACtest,83,g,true,549.2000000029802,1,r,h,1,,,
c1z,VDACtest,84,g,false,452.79999999701977,2,g,h,1,,,
c1z,VDACtest,85,g,true,569.0999999940395,1,r,h,5,,,
c1z,VDACtest,86,g,true,749.2000000029802,1,r,h,4,,,
c1z,VDACtest,87,g,true,365.90000000596046,2,g,v,0,,,
c1z,VDACtest,88,g,false,429.20000000298023,1,r,v,1,,,
c1z,VDACtest,89,g,true,454.8999999910593,1,r,v,4,,,
c1z,VDACtest,90,g,true,373.80000001192093,1,r,v,5,,,
c1z,VDACtest,91,g,true,479.1000000089407,1,r,h,0,,,
c1z,VDACtest,92,g,true,518.5,2,g,h,2,,,
c1z,VDACtest,93,g,false,476.30000001192093,2,g,h,5,,,
c1z,VDACtest,94,g,true,580.6000000089407,2,g,h,3,,,
c1z,VDACtest,95,g,true,413.20000000298023,2,g,h,1,,,
c1z,VDACtest,96,g,true,610,1,r,h,2,,,
c1z,VDACtest,97,g,true,515.7999999970198,2,g,v,1,,,
c1z,VDACtest,98,g,true,541,2,g,h,4,,,
c1z,VDACtest,99,g,true,517.7000000029802,2,g,h,5,,,
c1z,VDACtest,100,g,false,517.5999999940395,1,r,h,3,,,
brk,brk,brk,brk,brk,brk,brk,brk,brk,brk,brk,brk,
c1z,VDACtest,101,g,true,890,1,r,h,3,,,
c1z,VDACtest,102,g,true,421.1000000089407,2,g,v,5,,,
c1z,VDACtest,103,g,false,653.7999999970198,1,r,v,1,,,
c1z,VDACtest,104,g,true,468.5,1,r,v,0,,,
c1z,VDACtest,105,g,true,476.09999999403954,2,g,h,5,,,
c1z,VDACtest,106,g,true,597.3999999910593,2,g,h,1,,,
c1z,VDACtest,107,g,true,413.90000000596046,2,g,h,5,,,
c1z,VDACtest,108,g,true,381.59999999403954,1,r,v,1,,,
c1z,VDACtest,109,g,true,620.5999999940395,2,g,h,5,,,
c1z,VDACtest,110,g,true,532.7000000029802,2,g,h,1,,,
c1z,VDACtest,111,g,true,597.5999999940395,2,g,h,3,,,
c1z,VDACtest,112,g,true,469.5,2,g,v,1,,,
c1z,VDACtest,113,g,true,461.20000000298023,2,g,v,5,,,
c1z,VDACtest,114,g,true,412.29999999701977,2,g,h,1,,,
c1z,VDACtest,115,g,true,619.8999999910593,2,g,h,0,,,
c1z,VDACtest,116,g,true,982.2000000029802,1,r,h,3,,,
c1z,VDACtest,117,g,true,485.29999999701977,2,g,v,5,,,
c1z,VDACtest,118,g,true,502,2,g,h,1,,,
c1z,VDACtest,119,g,true,430.5,2,g,v,1,,,
c1z,VDACtest,120,g,true,467,1,r,v,1,,,
c1z,VDACtest,121,g,true,517.5,1,r,v,0,,,
c1z,VDACtest,122,g,false,508.70000000298023,2,g,v,4,,,
c1z,VDACtest,123,g,true,645.2000000029802,1,r,h,3,,,
c1z,VDACtest,124,g,true,637.2000000029802,2,g,h,4,,,
c1z,VDACtest,125,g,true,524.6000000089407,2,g,v,3,,,
c1z,VDACtest,126,g,true,460.70000000298023,2,g,v,5,,,
c1z,VDACtest,127,g,true,549.2000000029802,1,r,h,2,,,
c1z,VDACtest,128,g,false,444.19999998807907,1,r,v,2,,,
c1z,VDACtest,129,g,true,581.8999999910593,1,r,v,4,,,
c1z,VDACtest,130,g,false,541.9000000059605,2,g,h,1,,,
c1z,VDACtest,131,g,true,557.5,1,r,v,3,,,
c1z,VDACtest,132,g,true,531.7999999970198,2,g,v,2,,,
c1z,VDACtest,133,g,true,477.1000000089407,1,r,v,1,,,
c1z,VDACtest,134,g,true,549.7000000029802,2,g,h,3,,,
c1z,VDACtest,135,g,true,580.8999999910593,1,r,h,2,,,
c1z,VDACtest,136,g,true,636.3999999910593,2,g,h,0,,,
c1z,VDACtest,137,g,true,579.2999999970198,2,g,v,2,,,
c1z,VDACtest,138,g,true,502,2,g,v,3,,,
c1z,VDACtest,139,g,true,588.6000000089407,2,g,h,5,,,
c1z,VDACtest,140,g,true,637.4000000059605,2,g,v,1,,,
c1z,VDACtest,141,g,true,501.6000000089407,1,r,h,0,,,
c1z,VDACtest,142,g,false,445.29999999701977,1,r,v,2,,,
c1z,VDACtest,143,g,false,478.20000000298023,2,g,h,0,,,
c1z,VDACtest,144,g,false,675.8999999910593,2,g,v,1,,,
c1z,VDACtest,145,g,true,565.0999999940395,1,r,v,2,,,
c1z,VDACtest,146,g,true,732.4000000059605,2,g,h,4,,,
c1z,VDACtest,147,g,true,517.3999999910593,2,g,h,4,,,
c1z,VDACtest,148,g,true,573,2,g,v,0,,,
c1z,VDACtest,149,g,true,659.4000000059605,2,g,v,4,,,
c1z,VDACtest,150,g,true,500.29999999701977,2,g,v,3,,,
brk,brk,brk,brk,brk,brk,brk,brk,brk,brk,brk,brk,
c1z,VDACtest,151,g,false,537,2,g,h,0,,,
c1z,VDACtest,152,g,true,612.7999999970198,2,g,h,4,,,
c1z,VDACtest,153,g,true,646,1,r,v,5,,,
c1z,VDACtest,154,g,true,533.7999999970198,1,r,h,3,,,
c1z,VDACtest,155,g,false,486.30000001192093,1,r,v,0,,,
c1z,VDACtest,156,g,true,668.6000000089407,2,g,h,0,,,
c1z,VDACtest,157,g,false,566.0999999940395,1,r,h,1,,,
c1z,VDACtest,158,g,true,596.2999999970198,2,g,v,0,,,
c1z,VDACtest,159,g,false,540.7000000029802,1,r,v,0,,,
c1z,VDACtest,160,g,true,645.7000000029802,1,r,h,0,,,
c1z,VDACtest,161,g,true,597.5,1,r,v,1,,,
c1z,VDACtest,162,g,true,668.7000000029802,1,r,h,4,,,
c1z,VDACtest,163,g,true,621.2999999970198,2,g,v,3,,,
c1z,VDACtest,164,g,true,557.2000000029802,1,r,v,3,,,
c1z,VDACtest,165,g,true,485.20000000298023,1,r,h,5,,,
c1z,VDACtest,166,g,true,469.09999999403954,2,g,v,2,,,
c1z,VDACtest,167,g,true,653.0999999940395,2,g,h,0,,,
c1z,VDACtest,168,g,false,566.0999999940395,1,r,h,2,,,
c1z,VDACtest,169,g,true,660.4000000059605,1,r,h,4,,,
c1z,VDACtest,170,g,true,572,1,r,v,4,,,
c1z,VDACtest,171,g,true,621.9000000059605,2,g,h,2,,,
c1z,VDACtest,172,g,true,637.3999999910593,1,r,h,2,,,
c1z,VDACtest,173,g,true,564.7000000029802,1,r,h,2,,,
c1z,VDACtest,174,g,true,501.40000000596046,2,g,v,2,,,
c1z,VDACtest,175,g,true,622,1,r,v,2,,,
c1z,VDACtest,176,g,true,509.70000000298023,1,r,v,1,,,
c1z,VDACtest,177,g,true,524.2999999970198,1,r,v,1,,,
c1z,VDACtest,178,g,true,581.7000000029802,1,r,v,4,,,
c1z,VDACtest,179,g,true,548.7999999970198,2,g,v,1,,,
c1z,VDACtest,180,g,true,541.6000000089407,2,g,h,1,,,
c1z,VDACtest,181,g,false,723.8999999910593,1,r,v,4,,,
c1z,VDACtest,182,g,true,668.5,2,g,h,2,,,
c1z,VDACtest,183,g,true,547.4000000059605,1,r,h,1,,,
c1z,VDACtest,184,g,true,564.1999999880791,1,r,v,3,,,
c1z,VDACtest,185,g,true,452.59999999403954,1,r,v,2,,,
c1z,VDACtest,186,g,true,526.9000000059605,1,r,v,5,,,
c1z,VDACtest,187,g,true,580.1999999880791,2,g,v,4,,,
c1z,VDACtest,188,g,true,469.09999999403954,1,r,h,5,,,
c1z,VDACtest,189,g,true,516.5,1,r,v,2,,,
c1z,VDACtest,190,g,true,486.3999999910593,2,g,v,3,,,
c1z,VDACtest,191,g,true,419.8999999910593,2,g,v,3,,,
c1z,VDACtest,192,g,true,643.1000000089407,1,r,v,4,,,
c1z,VDACtest,193,g,true,460.59999999403954,1,r,v,0,,,
c1z,VDACtest,194,g,true,506.90000000596046,1,r,h,1,,,
c1z,VDACtest,195,g,true,540.2000000029802,2,g,v,2,,,
c1z,VDACtest,196,g,true,540.5999999940395,1,r,v,4,,,
c1z,VDACtest,197,g,true,436,2,g,v,5,,,
c1z,VDACtest,198,g,true,478.5,2,g,h,2,,,
c1z,VDACtest,199,g,false,581.5999999940395,2,g,v,3,,,
c1z,VDACtest,200,g,true,436,2,g,h,2,,,
c1z,RSVPtrain,0,g,false,1028.8999999910593,0,b,,0,3,0,
c1z,RSVPtrain,0,g,true,856.6000000089407,2,g,,3,1,1,
c1z,RSVPtrain,0,g,true,703,1,r,,0,0,2,
c1z,RSVPtrain,0,g,false,617.0999999940395,1,r,,1,1,2,
c1z,RSVPtrain,0,g,true,999.3999999910593,1,r,,3,2,1,
c1z,RSVPtrain,0,g,false,906.5999999940395,0,b,,1,3,0,
c1z,RSVPtrain,0,g,true,992.9000000059605,0,b,,3,3,0,
c1z,RSVPtrain,0,g,false,897.5999999940395,2,g,,1,0,1,
c1z,RSVPtrain,0,g,true,927.5999999940395,2,g,,3,0,1,
c1z,RSVPtrain,0,g,true,528.9000000059605,2,g,,2,2,2,
c1z,RSVPtest,1,g,true,618.5,1,r,,0,2,1,
c1z,RSVPtest,2,g,true,598.9000000059605,0,b,,3,3,0,
c1z,RSVPtest,3,g,true,649.7000000029802,0,b,,3,3,0,
c1z,RSVPtest,4,g,true,805.5999999940395,0,b,,3,3,0,
c1z,RSVPtest,5,g,true,641.2000000029802,2,g,,3,0,1,
c1z,RSVPtest,6,g,false,810.2000000029802,1,r,,0,2,1,
c1z,RSVPtest,7,g,false,689.5,0,b,,0,3,0,
c1z,RSVPtest,8,g,true,384.59999999403954,1,r,,0,1,1,
c1z,RSVPtest,9,g,true,912.3999999910593,2,g,,0,1,1,
c1z,RSVPtest,10,g,false,1031.4000000059605,2,g,,1,2,1,
c1z,RSVPtest,11,g,true,408,1,r,,2,2,2,
c1z,RSVPtest,12,g,true,863,2,g,,1,0,1,
c1z,RSVPtest,13,g,true,704.4000000059605,0,b,,3,3,0,
c1z,RSVPtest,14,g,true,792.5,0,b,,2,3,0,
c1z,RSVPtest,15,g,true,502.09999999403954,0,b,,2,3,0,
c1z,RSVPtest,16,g,true,870.5999999940395,2,g,,2,1,1,
c1z,RSVPtest,17,g,true,623.8999999910593,0,b,,2,3,0,
c1z,RSVPtest,18,g,true,526.7999999970198,0,b,,3,3,0,
c1z,RSVPtest,19,g,true,799.8999999910593,2,g,,3,1,1,
c1z,RSVPtest,20,g,false,1125.0999999940395,1,r,,1,2,1,
c1z,RSVPtest,21,g,true,622.7999999970198,0,b,,1,3,0,
c1z,RSVPtest,22,g,true,686.6000000089407,1,r,,0,0,2,
c1z,RSVPtest,23,g,false,703.6000000089407,0,b,,3,3,0,
c1z,RSVPtest,24,g,true,422.69999998807907,0,b,,0,3,0,
c1z,RSVPtest,25,g,true,649.2000000029802,2,g,,0,0,2,
c1z,RSVPtest,26,g,false,584.3999999910593,0,b,,2,3,0,
c1z,RSVPtest,27,g,false,920.2000000029802,2,g,,3,1,1,
c1z,RSVPtest,28,g,false,997.2999999970198,2,g,,0,1,1,
c1z,RSVPtest,29,g,true,775.2999999970198,1,r,,3,1,1,
c1z,RSVPtest,30,g,true,564.8999999910593,2,g,,1,1,2,
c1z,RSVPtest,31,g,true,679.2000000029802,2,g,,2,2,2,
c1z,RSVPtest,32,g,true,741.4000000059605,0,b,,3,3,0,
c1z,RSVPtest,33,g,true,958.9000000059605,1,r,,0,2,1,
c1z,RSVPtest,34,g,true,735,0,b,,0,3,0,
c1z,RSVPtest,35,g,true,621.5,0,b,,1,3,0,
c1z,RSVPtest,36,g,true,686.4000000059605,2,g,,3,1,1,
c1z,RSVPtest,37,g,true,727,0,b,,3,3,0,
c1z,RSVPtest,38,g,true,503.40000000596046,1,r,,2,2,2,
c1z,RSVPtest,39,g,true,599.7000000029802,0,b,,0,3,0,
c1z,RSVPtest,40,g,true,991.1000000089407,2,g,,1,2,1,
c1z,RSVPtest,41,g,true,984.5,2,g,,3,0,1,
c1z,RSVPtest,42,g,false,368.70000000298023,0,b,,2,3,0,
c1z,RSVPtest,43,g,true,863.0999999940395,0,b,,0,3,0,
c1z,RSVPtest,44,g,true,965.7999999970198,0,b,,3,3,0,
c1z,RSVPtest,45,g,true,408.40000000596046,2,g,,0,2,1,
c1z,RSVPtest,46,g,true,639.2000000029802,1,r,,2,2,2,
c1z,RSVPtest,47,g,true,927.8999999910593,1,r,,1,0,1,
c1z,RSVPtest,48,g,true,1007.9000000059605,1,r,,2,1,1,
c1z,RSVPtest,49,g,true,647.5999999940395,1,r,,0,1,1,
c1z,RSVPtest,50,g,true,774.6999999880791,2,g,,3,1,1,
c1z,RSVPtest,51,g,true,1184.0999999940395,2,g,,1,0,1,
c1z,RSVPtest,52,g,true,664.9000000059605,2,g,,3,2,1,
c1z,RSVPtest,53,g,true,910.6000000089407,1,r,,3,1,1,
c1z,RSVPtest,54,g,true,734.1000000089407,1,r,,0,0,2,
c1z,RSVPtest,55,g,true,590.6000000089407,1,r,,3,1,1,
c1z,RSVPtest,56,g,false,959.7000000029802,1,r,,1,2,1,
c1z,RSVPtest,57,g,true,653.5999999940395,1,r,,0,1,1,
c1z,RSVPtest,58,g,true,773.9000000059605,0,b,,3,3,0,
c1z,RSVPtest,59,g,true,929.1999999880791,1,r,,3,0,1,
c1z,RSVPtest,60,g,false,694.2000000029802,0,b,,3,3,0,
brk,brk,brk,brk,brk,brk,brk,brk,brk,brk,brk,brk,
c1z,RSVPtest,61,g,true,1061.800000011921,2,g,,1,2,1,
c1z,RSVPtest,62,g,true,647.0999999940395,0,b,,0,3,0,
c1z,RSVPtest,63,g,true,792.5,1,r,,2,1,1,
c1z,RSVPtest,64,g,true,838.2000000029802,1,r,,3,0,1,
c1z,RSVPtest,65,g,true,664.7000000029802,1,r,,3,0,1,
c1z,RSVPtest,66,g,true,542.2000000029802,2,g,,0,2,1,
c1z,RSVPtest,67,g,true,582.3999999910593,0,b,,2,3,0,
c1z,RSVPtest,68,g,true,542.3000000119209,1,r,,1,0,1,
c1z,RSVPtest,69,g,false,622.9000000059605,2,g,,3,2,1,
c1z,RSVPtest,70,g,false,1016.7000000029802,2,g,,1,0,1,
c1z,RSVPtest,71,g,true,682.7999999970198,1,r,,0,2,1,
c1z,RSVPtest,72,g,true,693.9000000059605,2,g,,0,1,1,
c1z,RSVPtest,73,g,true,927.6999999880791,2,g,,3,0,1,
c1z,RSVPtest,74,g,true,700.5999999940395,1,r,,3,2,1,
c1z,RSVPtest,75,g,true,615.8999999910593,1,r,,2,0,1,
c1z,RSVPtest,76,g,true,463.29999999701977,2,g,,0,2,1,
c1z,RSVPtest,77,g,true,647,2,g,,0,0,2,
c1z,RSVPtest,78,g,true,932.7999999970198,1,r,,3,2,1,
c1z,RSVPtest,79,g,true,792.0999999940395,1,r,,3,0,1,
c1z,RSVPtest,80,g,true,731.7999999970198,2,g,,2,0,1,
c1z,RSVPtest,81,g,true,686.7000000029802,2,g,,2,0,1,
c1z,RSVPtest,82,g,false,421.69999998807907,0,b,,3,3,0,
c1z,RSVPtest,83,g,true,766.5,1,r,,3,0,1,
c1z,RSVPtest,84,g,true,1036.2999999970198,1,r,,3,0,1,
c1z,RSVPtest,85,g,true,1148.4000000059605,2,g,,3,2,1,
c1z,RSVPtest,86,g,true,692.0999999940395,2,g,,1,1,2,
c1z,RSVPtest,87,g,true,982.3999999910593,0,b,,1,3,0,
c1z,RSVPtest,88,g,true,847.5999999940395,1,r,,3,0,1,
c1z,RSVPtest,89,g,true,694,0,b,,3,3,0,
c1z,RSVPtest,90,g,true,735.3000000119209,1,r,,3,0,1,
c1z,RSVPtest,91,g,true,675.7999999970198,2,g,,2,1,1,
c1z,RSVPtest,92,g,false,821.3000000119209,0,b,,1,3,0,
c1z,RSVPtest,93,g,true,886.2999999970198,0,b,,0,3,0,
c1z,RSVPtest,94,g,true,957.5999999940395,2,g,,0,1,1,
c1z,RSVPtest,95,g,false,1038.4000000059605,2,g,,3,0,1,
c1z,RSVPtest,96,g,false,1278.5,0,b,,1,3,0,
c1z,RSVPtest,97,g,true,516.2999999970198,0,b,,0,3,0,
c1z,RSVPtest,98,g,true,668,1,r,,3,1,1,
c1z,RSVPtest,99,g,true,1006,1,r,,3,2,1,
c1z,RSVPtest,100,g,true,893.9000000059605,0,b,,2,3,0,
c1z,RSVPtest,101,g,false,830.4000000059605,0,b,,1,3,0,
c1z,RSVPtest,102,g,true,740,1,r,,3,2,1,
c1z,RSVPtest,103,g,true,439.1000000089407,0,b,,0,3,0,
c1z,RSVPtest,104,g,true,974.9000000059605,1,r,,0,0,2,
c1z,RSVPtest,105,g,true,781.7999999970198,0,b,,3,3,0,
c1z,RSVPtest,106,g,true,517.1999999880791,1,r,,2,1,1,
c1z,RSVPtest,107,g,true,407.3999999910593,2,g,,0,0,2,
c1z,RSVPtest,108,g,true,701.2999999970198,1,r,,0,0,2,
c1z,RSVPtest,109,g,true,678.0999999940395,0,b,,3,3,0,
c1z,RSVPtest,110,g,true,652.5999999940395,0,b,,1,3,0,
c1z,RSVPtest,111,g,false,814.7000000029802,1,r,,3,2,1,
c1z,RSVPtest,112,g,true,421.20000000298023,1,r,,1,0,1,
c1z,RSVPtest,113,g,true,781.2000000029802,1,r,,2,0,1,
c1z,RSVPtest,114,g,true,821.9000000059605,1,r,,1,1,2,
c1z,RSVPtest,115,g,true,614.2999999970198,1,r,,1,2,1,
c1z,RSVPtest,116,g,true,708.2000000029802,2,g,,0,1,1,
c1z,RSVPtest,117,g,false,943.5999999940395,2,g,,2,0,1,
c1z,RSVPtest,118,g,false,1165.7000000029802,1,r,,0,2,1,
c1z,RSVPtest,119,g,false,959,1,r,,0,2,1,
c1z,RSVPtest,120,g,true,685.4000000059605,1,r,,3,1,1,
brk,brk,brk,brk,brk,brk,brk,brk,brk,brk,brk,brk,
c1z,RSVPtest,121,g,true,764,2,g,,3,1,1,
c1z,RSVPtest,122,g,true,605,2,g,,3,1,1,
c1z,RSVPtest,123,g,true,813.2999999970198,1,r,,0,0,2,
c1z,RSVPtest,124,g,true,590.2000000029802,2,g,,2,2,2,
c1z,RSVPtest,125,g,false,885.1000000089407,2,g,,3,0,1,
c1z,RSVPtest,126,g,true,639.4000000059605,2,g,,3,1,1,
c1z,RSVPtest,127,g,true,997.3999999910593,0,b,,0,3,0,
c1z,RSVPtest,128,g,true,683.3000000119209,0,b,,3,3,0,
c1z,RSVPtest,129,g,true,436.40000000596046,0,b,,2,3,0,
c1z,RSVPtest,130,g,false,1108.2999999970198,1,r,,1,1,2,
c1z,RSVPtest,131,g,true,757.5,1,r,,0,1,1,
c1z,RSVPtest,132,g,true,876.6000000089407,2,g,,3,2,1,
c1z,RSVPtest,133,g,true,722.6999999880791,1,r,,2,0,1,
c1z,RSVPtest,134,g,true,998.8000000119209,0,b,,1,3,0,
c1z,RSVPtest,135,g,false,614.3000000119209,1,r,,3,2,1,
c1z,RSVPtest,136,g,true,813.7999999970198,2,g,,3,1,1,
c1z,RSVPtest,137,g,true,389.20000000298023,2,g,,0,1,1,
c1z,RSVPtest,138,g,true,499.70000000298023,1,r,,1,1,2,
c1z,RSVPtest,139,g,true,855.5999999940395,1,r,,3,2,1,
c1z,RSVPtest,140,g,true,805.2999999970198,2,g,,1,1,2,
c1z,RSVPtest,141,g,true,917.7000000029802,2,g,,1,0,1,
c1z,RSVPtest,142,g,true,876.2999999970198,0,b,,3,3,0,
c1z,RSVPtest,143,g,true,757.3000000119209,1,r,,1,1,2,
c1z,RSVPtest,144,g,true,693,2,g,,1,2,1,
c1z,RSVPtest,145,g,true,435.5,2,g,,2,0,1,
c1z,RSVPtest,146,g,true,635.4000000059605,1,r,,0,0,2,
c1z,RSVPtest,147,g,false,723.7000000029802,1,r,,3,0,1,
c1z,RSVPtest,148,g,false,710.0999999940395,0,b,,2,3,0,
c1z,RSVPtest,149,g,true,492.09999999403954,2,g,,2,0,1,
c1z,RSVPtest,150,g,false,749.2000000029802,1,r,,3,1,1,
c1z,RSVPtest,151,g,true,747.8999999910593,0,b,,3,3,0,
c1z,RSVPtest,152,g,false,1379.9000000059605,1,r,,1,1,2,
c1z,RSVPtest,153,g,true,804,2,g,,2,1,1,
c1z,RSVPtest,154,g,true,781.3000000119209,2,g,,3,2,1,
c1z,RSVPtest,155,g,true,932,2,g,,3,0,1,
c1z,RSVPtest,156,g,true,763.3999999910593,2,g,,3,1,1,
c1z,RSVPtest,157,g,true,890.5999999940395,1,r,,3,2,1,
c1z,RSVPtest,158,g,true,709.4000000059605,0,b,,3,3,0,
c1z,RSVPtest,159,g,true,1205.5,0,b,,3,3,0,
c1z,RSVPtest,160,g,true,661,2,g,,3,2,1,
c1z,RSVPtest,161,g,true,733.8000000119209,2,g,,1,0,1,
c1z,RSVPtest,162,g,true,894,2,g,,3,2,1,
c1z,RSVPtest,163,g,true,814.3000000119209,0,b,,1,3,0,
c1z,RSVPtest,164,g,true,756.2999999970198,1,r,,3,2,1,
c1z,RSVPtest,165,g,true,846.2999999970198,1,r,,2,1,1,
c1z,RSVPtest,166,g,false,844.7999999970198,1,r,,3,1,1,
c1z,RSVPtest,167,g,false,1055.9000000059605,2,g,,1,2,1,
c1z,RSVPtest,168,g,true,940.2000000029802,2,g,,3,1,1,
c1z,RSVPtest,169,g,false,750.3999999910593,1,r,,3,0,1,
c1z,RSVPtest,170,g,true,477.80000001192093,0,b,,1,3,0,
c1z,RSVPtest,171,g,true,964.4000000059605,2,g,,3,0,1,
c1z,RSVPtest,172,g,true,868.3999999910593,0,b,,3,3,0,
c1z,RSVPtest,173,g,true,740.5999999940395,1,r,,1,1,2,
c1z,RSVPtest,174,g,false,660.2999999970198,1,r,,1,2,1,
c1z,RSVPtest,175,g,true,644.5999999940395,1,r,,3,2,1,
c1z,RSVPtest,176,g,true,764.8999999910593,1,r,,3,1,1,
c1z,RSVPtest,177,g,true,694.0999999940395,1,r,,3,0,1,
c1z,RSVPtest,178,g,false,844.4000000059605,2,g,,2,0,1,
c1z,RSVPtest,179,g,true,811.3000000119209,2,g,,3,2,1,
c1z,RSVPtest,180,g,true,868,1,r,,1,2,1,
brk,brk,brk,brk,brk,brk,brk,brk,brk,brk,brk,brk,
c1z,RSVPtest,181,g,false,717.8999999910593,1,r,,3,1,1,
c1z,RSVPtest,182,g,true,693,2,g,,3,2,1,
c1z,RSVPtest,183,g,true,523.7999999970198,0,b,,2,3,0,
c1z,RSVPtest,184,g,true,814.4000000059605,1,r,,2,1,1,
c1z,RSVPtest,185,g,true,717,2,g,,1,2,1,
c1z,RSVPtest,186,g,true,605.2000000029802,1,r,,3,1,1,
c1z,RSVPtest,187,g,false,764.5999999940395,2,g,,3,0,1,
c1z,RSVPtest,188,g,false,852.2000000029802,2,g,,3,2,1,
c1z,RSVPtest,189,g,true,802.3999999910593,2,g,,3,0,1,
c1z,RSVPtest,190,g,true,780.5,1,r,,3,2,1,
c1z,RSVPtest,191,g,true,1012.2999999970198,2,g,,0,2,1,
c1z,RSVPtest,192,g,true,676,2,g,,0,2,1,
c1z,RSVPtest,193,g,true,537.7000000029802,2,g,,2,2,2,
c1z,RSVPtest,194,g,false,862.1000000089407,1,r,,0,1,1,
c1z,RSVPtest,195,g,true,899.9000000059605,2,g,,3,1,1,
c1z,RSVPtest,196,g,false,739.0999999940395,0,b,,1,3,0,
c1z,RSVPtest,197,g,false,661.4000000059605,2,g,,0,2,1,
c1z,RSVPtest,198,g,true,1106.3999999910593,2,g,,3,2,1,
c1z,RSVPtest,199,g,true,762.8000000119209,2,g,,2,1,1,
c1z,RSVPtest,200,g,true,637.2999999970198,1,r,,2,0,1,
c1z,RSVPtest,201,g,true,442.1000000089407,2,g,,0,0,2,
c1z,RSVPtest,202,g,true,573.5999999940395,2,g,,1,0,1,
c1z,RSVPtest,203,g,true,420.70000000298023,2,g,,0,0,2,
c1z,RSVPtest,204,g,false,908.4000000059605,2,g,,2,2,2,
c1z,RSVPtest,205,g,false,460,2,g,,3,0,1,
c1z,RSVPtest,206,g,false,668.2999999970198,1,r,,1,0,1,
c1z,RSVPtest,207,g,true,838.1000000089407,2,g,,3,0,1,
c1z,RSVPtest,208,g,true,1002,2,g,,3,2,1,
c1z,RSVPtest,209,g,true,891.7999999970198,0,b,,3,3,0,
c1z,RSVPtest,210,g,true,769.7999999970198,1,r,,2,0,1,
c1z,RSVPtest,211,g,false,1083.2999999970198,0,b,,0,3,0,
c1z,RSVPtest,212,g,true,772.2000000029802,1,r,,2,0,1,
c1z,RSVPtest,213,g,true,665.7999999970198,1,r,,3,1,1,
c1z,RSVPtest,214,g,false,684.7000000029802,1,r,,1,0,1,
c1z,RSVPtest,215,g,true,609.4000000059605,1,r,,3,1,1,
c1z,RSVPtest,216,g,true,725.4000000059605,2,g,,3,1,1,
c1z,RSVPtest,217,g,true,523.7000000029802,2,g,,2,1,1,
c1z,RSVPtest,218,g,false,910.1999999880791,2,g,,1,1,2,
c1z,RSVPtest,219,g,true,630.2000000029802,1,r,,2,2,2,
c1z,RSVPtest,220,g,true,580.2999999970198,0,b,,3,3,0,
c1z,RSVPtest,221,g,true,669.6000000089407,2,g,,1,1,2,
c1z,RSVPtest,222,g,true,389.59999999403954,2,g,,2,2,2,
c1z,RSVPtest,223,g,false,854.2000000029802,2,g,,3,0,1,
c1z,RSVPtest,224,g,false,865.2999999970198,1,r,,1,0,1,
c1z,RSVPtest,225,g,true,813.2999999970198,0,b,,2,3,0,
c1z,RSVPtest,226,g,true,594.6999999880791,1,r,,3,0,1,
c1z,RSVPtest,227,g,true,662.7999999970198,0,b,,2,3,0,
c1z,RSVPtest,228,g,true,908.5999999940395,1,r,,1,2,1,
c1z,RSVPtest,229,g,true,636.2999999970198,0,b,,3,3,0,
c1z,RSVPtest,230,g,true,488.70000000298023,2,g,,2,2,2,
c1z,RSVPtest,231,g,true,739.8999999910593,0,b,,1,3,0,
c1z,RSVPtest,232,g,false,1173.0999999940395,1,r,,0,1,1,
c1z,RSVPtest,233,g,true,773,2,g,,2,1,1,
c1z,RSVPtest,234,g,true,685.1000000089407,1,r,,2,1,1,
c1z,RSVPtest,235,g,true,776.9000000059605,2,g,,1,1,2,
c1z,RSVPtest,236,g,true,501.3999999910593,0,b,,0,3,0,
c1z,RSVPtest,237,g,true,379.29999999701977,1,r,,2,2,2,
c1z,RSVPtest,238,g,true,859.7000000029802,1,r,,3,2,1,
c1z,RSVPtest,239,g,true,695.9000000059605,1,r,,2,2,2,
c1z,RSVPtest,240,g,true,768.7999999970198,2,g,,0,0,2,
subID,trialType,trialNum,cntBalance,correct,rt,rwdType,tgtCol,tgtDir,tgtPos,colPos,colMatch,
fw6,VDACtrain,0,g,null,null,1,r,h,0,,,
fw6,VDACtrain,0,g,true,859.2999997138977,2,g,h,5,,,
fw6,VDACtrain,0,g,null,null,1,r,v,4,,,
fw6,VDACtrain,0,g,true,728.0999999046326,2,g,h,3,,,
fw6,VDACtrain,0,g,true,682.8999996185303,2,g,v,0,,,
fw6,VDACtrain,0,g,null,null,1,r,h,1,,,
fw6,VDACtrain,0,g,null,null,1,r,h,2,,,
fw6,VDACtrain,0,g,true,799.5,2,g,v,5,,,
fw6,VDACtrain,0,g,true,788.5,2,g,v,2,,,
fw6,VDACtrain,0,g,false,651.9000000953674,1,r,v,3,,,
fw6,VDACtest,1,g,true,609.5999999046326,1,r,v,4,,,
fw6,VDACtest,2,g,false,698.9000000953674,1,r,v,3,,,
fw6,VDACtest,3,g,true,779.5,2,g,h,1,,,
fw6,VDACtest,4,g,true,705.8000001907349,1,r,h,0,,,
fw6,VDACtest,5,g,true,639.7000002861023,2,g,v,4,,,
fw6,VDACtest,6,g,true,666.2999997138977,2,g,h,1,,,
fw6,VDACtest,7,g,true,683.5,2,g,v,0,,,
fw6,VDACtest,8,g,true,636,1,r,h,3,,,
fw6,VDACtest,9,g,true,680.8000001907349,1,r,v,5,,,
fw6,VDACtest,10,g,false,578.9000000953674,1,r,v,2,,,
fw6,VDACtest,11,g,true,706.5,2,g,v,0,,,
fw6,VDACtest,12,g,true,523.8999996185303,1,r,v,5,,,
fw6,VDACtest,13,g,true,501,2,g,h,5,,,
fw6,VDACtest,14,g,true,882.7999997138977,1,r,v,1,,,
fw6,VDACtest,15,g,false,597,2,g,v,1,,,
fw6,VDACtest,16,g,false,635.9000000953674,2,g,v,2,,,
fw6,VDACtest,17,g,true,674.7999997138977,1,r,h,2,,,
fw6,VDACtest,18,g,true,740.0999999046326,1,r,h,4,,,
fw6,VDACtest,19,g,true,620.3000001907349,1,r,v,3,,,
fw6,VDACtest,20,g,true,659.6999998092651,1,r,v,4,,,
fw6,VDACtest,21,g,true,579.7999997138977,1,r,h,2,,,
fw6,VDACtest,22,g,true,640.7000002861023,2,g,v,3,,,
fw6,VDACtest,23,g,true,780.5999999046326,2,g,h,4,,,
fw6,VDACtest,24,g,true,747.3000001907349,2,g,v,2,,,
fw6,VDACtest,25,g,true,522.0999999046326,2,g,v,2,,,
fw6,VDACtest,26,g,true,651.8000001907349,2,g,h,1,,,
fw6,VDACtest,27,g,null,null,1,r,h,2,,,
fw6,VDACtest,28,g,true,582.7999997138977,2,g,h,2,,,
fw6,VDACtest,29,g,true,666.5999999046326,2,g,v,0,,,
fw6,VDACtest,30,g,true,652.7000002861023,1,r,v,3,,,
fw6,VDACtest,31,g,null,null,2,g,v,1,,,
fw6,VDACtest,32,g,true,622.9000000953674,2,g,h,4,,,
fw6,VDACtest,33,g,true,643.9000000953674,1,r,h,3,,,
fw6,VDACtest,34,g,true,564.2999997138977,2,g,v,2,,,
fw6,VDACtest,35,g,true,570.8000001907349,1,r,h,1,,,
fw6,VDACtest,36,g,true,755.7000002861023,2,g,v,0,,,
fw6,VDACtest,37,g,null,null,1,r,v,2,,,
fw6,VDACtest,38,g,true,679.9000000953674,1,r,v,5,,,
fw6,VDACtest,39,g,true,611.5999999046326,2,g,v,3,,,
fw6,VDACtest,40,g,true,711.2999997138977,2,g,v,0,,,
fw6,VDACtest,41,g,true,557.4000000953674,1,r,h,3,,,
fw6,VDACtest,42,g,true,781.5,2,g,h,1,,,
fw6,VDACtest,43,g,true,812,1,r,v,5,,,
fw6,VDACtest,44,g,true,516.6999998092651,1,r,v,5,,,
fw6,VDACtest,45,g,true,578.2999997138977,2,g,v,5,,,
fw6,VDACtest,46,g,true,938.7999997138977,1,r,v,3,,,
fw6,VDACtest,47,g,null,null,2,g,v,2,,,
fw6,VDACtest,48,g,true,545.3999996185303,1,r,h,4,,,
fw6,VDACtest,49,g,null,null,1,r,v,2,,,
fw6,VDACtest,50,g,true,702.2000002861023,2,g,h,0,,,
brk,brk,brk,brk,brk,brk,brk,brk,brk,brk,brk,brk,
fw6,VDACtest,51,g,true,895.8999996185303,1,r,h,0,,,
fw6,VDACtest,52,g,true,569.1999998092651,1,r,h,3,,,
fw6,VDACtest,53,g,true,481.40000009536743,2,g,v,3,,,
fw6,VDACtest,54,g,true,747.8999996185303,2,g,h,2,,,
fw6,VDACtest,55,g,true,914.5999999046326,1,r,h,4,,,
fw6,VDACtest,56,g,true,690.4000000953674,1,r,v,2,,,
fw6,VDACtest,57,g,true,546.5,1,r,h,3,,,
fw6,VDACtest,58,g,false,530.7000002861023,1,r,h,1,,,
fw6,VDACtest,59,g,null,null,2,g,h,0,,,
fw6,VDACtest,60,g,true,596.2999997138977,1,r,v,3,,,
fw6,VDACtest,61,g,true,651.8000001907349,2,g,v,2,,,
fw6,VDACtest,62,g,true,603.2000002861023,1,r,h,5,,,
fw6,VDACtest,63,g,false,798.0999999046326,2,g,h,2,,,
fw6,VDACtest,64,g,true,483.7999997138977,2,g,h,2,,,
fw6,VDACtest,65,g,true,588.3000001907349,2,g,v,3,,,
fw6,VDACtest,66,g,true,602.7000002861023,2,g,h,4,,,
fw6,VDACtest,67,g,true,644.3999996185303,2,g,h,2,,,
fw6,VDACtest,68,g,true,594.8999996185303,1,r,v,4,,,
fw6,VDACtest,69,g,true,990.9000000953674,1,r,v,1,,,
fw6,VDACtest,70,g,true,644,1,r,h,5,,,
fw6,VDACtest,71,g,true,714.8999996185303,2,g,v,5,,,
fw6,VDACtest,72,g,true,626.9000000953674,1,r,v,5,,,
fw6,VDACtest,73,g,true,724,2,g,v,0,,,
fw6,VDACtest,74,g,true,938.5,1,r,h,3,,,
fw6,VDACtest,75,g,true,668,1,r,h,5,,,
fw6,VDACtest,76,g,true,955,1,r,h,1,,,
fw6,VDACtest,77,g,true,635.9000000953674,2,g,v,1,,,
fw6,VDACtest,78,g,true,651.8000001907349,1,r,v,0,,,
fw6,VDACtest,79,g,true,730.2999997138977,1,r,v,4,,,
fw6,VDACtest,80,g,true,690.5,1,r,h,0,,,
fw6,VDACtest,81,g,true,653.0999999046326,1,r,h,3,,,
fw6,VDACtest,82,g,true,659.0999999046326,2,g,h,5,,,
fw6,VDACtest,83,g,true,627.0999999046326,1,r,h,0,,,
fw6,VDACtest,84,g,true,741.5,2,g,h,4,,,
fw6,VDACtest,85,g,true,947,1,r,v,1,,,
fw6,VDACtest,86,g,true,578.4000000953674,1,r,h,4,,,
fw6,VDACtest,87,g,true,571.7999997138977,2,g,h,3,,,
fw6,VDACtest,88,g,true,571.5,1,r,v,4,,,
fw6,VDACtest,89,g,true,564.3000001907349,1,r,v,3,,,
fw6,VDACtest,90,g,true,660.3999996185303,1,r,h,4,,,
fw6,VDACtest,91,g,true,948.2000002861023,1,r,h,0,,,
fw6,VDACtest,92,g,true,478.2000002861023,2,g,h,3,,,
fw6,VDACtest,93,g,true,669.4000000953674,1,r,h,0,,,
fw6,VDACtest,94,g,true,793.5,2,g,v,1,,,
fw6,VDACtest,95,g,true,596.7000002861023,2,g,v,5,,,
fw6,VDACtest,96,g,true,620.4000000953674,2,g,v,4,,,
fw6,VDACtest,97,g,true,601.6000003814697,2,g,h,4,,,
fw6,VDACtest,98,g,true,587.8000001907349,1,r,v,4,,,
fw6,VDACtest,99,g,true,481.7999997138977,2,g,h,3,,,
fw6,VDACtest,100,g,true,948,1,r,v,1,,,
brk,brk,brk,brk,brk,brk,brk,brk,brk,brk,brk,brk,
fw6,VDACtest,101,g,true,930.0999999046326,2,g,h,3,,,
fw6,VDACtest,102,g,true,743.8000001907349,1,r,h,2,,,
fw6,VDACtest,103,g,true,755.4000000953674,2,g,h,5,,,
fw6,VDACtest,104,g,true,541.0999999046326,1,r,h,2,,,
fw6,VDACtest,105,g,true,738.5999999046326,1,r,h,5,,,
fw6,VDACtest,106,g,true,493,2,g,h,5,,,
fw6,VDACtest,107,g,true,586.3000001907349,2,g,v,1,,,
fw6,VDACtest,108,g,true,619.1999998092651,1,r,h,1,,,
fw6,VDACtest,109,g,true,451.7999997138977,2,g,h,1,,,
fw6,VDACtest,110,g,true,788.5999999046326,1,r,h,4,,,
fw6,VDACtest,111,g,true,522.9000000953674,2,g,h,5,,,
fw6,VDACtest,112,g,true,917.6999998092651,1,r,v,1,,,
fw6,VDACtest,113,g,true,666,1,r,v,4,,,
fw6,VDACtest,114,g,true,635.7000002861023,2,g,v,3,,,
fw6,VDACtest,115,g,true,640.0999999046326,2,g,v,1,,,
fw6,VDACtest,116,g,true,547.0999999046326,2,g,v,4,,,
fw6,VDACtest,117,g,true,642.0999999046326,2,g,h,3,,,
fw6,VDACtest,118,g,true,612,1,r,h,4,,,
fw6,VDACtest,119,g,true,616.9000000953674,1,r,h,3,,,
fw6,VDACtest,120,g,true,491.6000003814697,1,r,v,4,,,
fw6,VDACtest,121,g,true,507,2,g,v,4,,,
fw6,VDACtest,122,g,null,null,2,g,v,2,,,
fw6,VDACtest,123,g,true,503.1000003814697,2,g,v,4,,,
fw6,VDACtest,124,g,true,942.8999996185303,1,r,h,5,,,
fw6,VDACtest,125,g,true,651.5999999046326,1,r,v,3,,,
fw6,VDACtest,126,g,true,649.5,1,r,v,4,,,
fw6,VDACtest,127,g,true,724.5,2,g,h,0,,,
fw6,VDACtest,128,g,true,724.3000001907349,2,g,v,3,,,
fw6,VDACtest,129,g,true,602.2999997138977,2,g,h,5,,,
fw6,VDACtest,130,g,true,482.09999990463257,2,g,v,4,,,
fw6,VDACtest,131,g,true,682.2000002861023,2,g,h,2,,,
fw6,VDACtest,132,g,true,811.5,1,r,v,1,,,
fw6,VDACtest,133,g,true,691.5,2,g,v,5,,,
fw6,VDACtest,134,g,true,643.1999998092651,1,r,h,0,,,
fw6,VDACtest,135,g,true,546,2,g,h,1,,,
fw6,VDACtest,136,g,true,579.1999998092651,1,r,v,5,,,
fw6,VDACtest,137,g,true,628,2,g,v,1,,,
fw6,VDACtest,138,g,true,527.7999997138977,1,r,h,1,,,
fw6,VDACtest,139,g,true,772.1999998092651,1,r,h,4,,,
fw6,VDACtest,140,g,true,484.80000019073486,2,g,v,5,,,
fw6,VDACtest,141,g,true,594.9000000953674,2,g,v,4,,,
fw6,VDACtest,142,g,true,578.8000001907349,2,g,h,5,,,
fw6,VDACtest,143,g,false,548,2,g,v,5,,,
fw6,VDACtest,144,g,true,755.5999999046326,1,r,v,0,,,
fw6,VDACtest,145,g,true,707,1,r,h,5,,,
fw6,VDACtest,146,g,true,577.1999998092651,2,g,v,5,,,
fw6,VDACtest,147,g,true,594.9000000953674,1,r,h,2,,,
fw6,VDACtest,148,g,true,787.0999999046326,1,r,h,4,,,
fw6,VDACtest,149,g,true,681.3999996185303,1,r,v,3,,,
fw6,VDACtest,150,g,true,546.7000002861023,1,r,v,0,,,
brk,brk,brk,brk,brk,brk,brk,brk,brk,brk,brk,brk,
fw6,VDACtest,151,g,true,802.5,2,g,h,2,,,
fw6,VDACtest,152,g,true,490.40000009536743,2,g,v,0,,,
fw6,VDACtest,153,g,true,682.6000003814697,2,g,h,1,,,
fw6,VDACtest,154,g,true,500.80000019073486,1,r,v,0,,,
fw6,VDACtest,155,g,true,539.5,2,g,h,3,,,
fw6,VDACtest,156,g,true,516.1999998092651,1,r,v,0,,,
fw6,VDACtest,157,g,true,549.3000001907349,2,g,h,0,,,
fw6,VDACtest,158,g,true,744.8000001907349,1,r,v,2,,,
fw6,VDACtest,159,g,true,466.7999997138977,2,g,h,2,,,
fw6,VDACtest,160,g,true,525.0999999046326,1,r,h,2,,,
fw6,VDACtest,161,g,true,725.5999999046326,2,g,h,5,,,
fw6,VDACtest,162,g,true,610.7999997138977,2,g,h,4,,,
fw6,VDACtest,163,g,true,610.2000002861023,1,r,h,2,,,
fw6,VDACtest,164,g,true,651.1999998092651,2,g,h,0,,,
fw6,VDACtest,165,g,true,513.3000001907349,2,g,v,3,,,
fw6,VDACtest,166,g,true,536.9000000953674,2,g,h,0,,,
fw6,VDACtest,167,g,true,451.30000019073486,2,g,h,0,,,
fw6,VDACtest,168,g,true,731.3999996185303,1,r,v,2,,,
fw6,VDACtest,169,g,true,499.59999990463257,1,r,v,2,,,
fw6,VDACtest,170,g,true,595.5999999046326,2,g,v,5,,,
fw6,VDACtest,171,g,true,572.5999999046326,1,r,h,0,,,
fw6,VDACtest,172,g,true,491.8999996185303,2,g,h,0,,,
fw6,VDACtest,173,g,true,530.7000002861023,1,r,v,0,,,
fw6,VDACtest,174,g,true,690.5999999046326,1,r,v,2,,,
fw6,VDACtest,175,g,true,554.4000000953674,1,r,v,1,,,
fw6,VDACtest,176,g,true,539.2000002861023,2,g,h,4,,,
fw6,VDACtest,177,g,true,658.1000003814697,2,g,h,3,,,
fw6,VDACtest,178,g,false,523.0999999046326,1,r,h,1,,,
fw6,VDACtest,179,g,true,682.4000000953674,1,r,h,1,,,
fw6,VDACtest,180,g,true,589.7000002861023,1,r,v,0,,,
fw6,VDACtest,181,g,true,594.5999999046326,1,r,h,5,,,
fw6,VDACtest,182,g,true,536.5999999046326,2,g,v,1,,,
fw6,VDACtest,183,g,true,611.2000002861023,2,g,h,3,,,
fw6,VDACtest,184,g,true,618.6999998092651,1,r,h,1,,,
fw6,VDACtest,185,g,true,594.2999997138977,1,r,h,1,,,
fw6,VDACtest,186,g,true,635.0999999046326,2,g,v,0,,,
fw6,VDACtest,187,g,true,667,2,g,v,1,,,
fw6,VDACtest,188,g,true,588.5,1,r,v,1,,,
fw6,VDACtest,189,g,true,682.9000000953674,2,g,h,4,,,
fw6,VDACtest,190,g,true,612.4000000953674,2,g,v,4,,,
fw6,VDACtest,191,g,true,641.3000001907349,2,g,v,2,,,
fw6,VDACtest,192,g,true,531.3000001907349,2,g,v,4,,,
fw6,VDACtest,193,g,true,532.0999999046326,1,r,v,5,,,
fw6,VDACtest,194,g,true,664.8000001907349,2,g,h,4,,,
fw6,VDACtest,195,g,true,642.5999999046326,1,r,h,5,,,
fw6,VDACtest,196,g,true,578,2,g,v,3,,,
fw6,VDACtest,197,g,true,859.0999999046326,1,r,v,0,,,
fw6,VDACtest,198,g,true,636,1,r,v,1,,,
fw6,VDACtest,199,g,true,579.3000001907349,2,g,h,1,,,
fw6,VDACtest,200,g,true,506.69999980926514,2,g,h,1,,,
fw6,RSVPtrain,0,g,false,1979.4000000953674,0,b,,0,3,0,
fw6,RSVPtrain,0,g,true,1516.0999999046326,2,g,,1,0,1,
fw6,RSVPtrain,0,g,true,1500.8000001907349,0,b,,3,3,0,
fw6,RSVPtrain,0,g,true,895.5,1,r,,3,2,1,
fw6,RSVPtrain,0,g,false,965,1,r,,0,0,2,
fw6,RSVPtrain,0,g,false,1350.5999999046326,2,g,,2,2,2,
fw6,RSVPtrain,0,g,true,2126.2999997138977,1,r,,1,1,2,
fw6,RSVPtrain,0,g,true,1360,0,b,,1,3,0,
fw6,RSVPtrain,0,g,true,820.3999996185303,2,g,,3,0,1,
fw6,RSVPtrain,0,g,true,1166.5,2,g,,3,1,1,
fw6,RSVPtest,1,g,true,1880,1,r,,1,2,1,
fw6,RSVPtest,2,g,true,878.7999997138977,1,r,,3,0,1,
fw6,RSVPtest,3,g,false,1476.1000003814697,1,r,,3,2,1,
fw6,RSVPtest,4,g,true,2224.4000000953674,2,g,,0,0,2,
fw6,RSVPtest,5,g,false,1487.8000001907349,1,r,,3,1,1,
fw6,RSVPtest,6,g,true,868.5,1,r,,1,1,2,
fw6,RSVPtest,7,g,true,1053.2000002861023,2,g,,0,1,1,
fw6,RSVPtest,8,g,false,926,1,r,,0,0,2,
fw6,RSVPtest,9,g,true,1198.5999999046326,0,b,,0,3,0,
fw6,RSVPtest,10,g,true,1214.1999998092651,1,r,,3,1,1,
fw6,RSVPtest,11,g,false,901.1999998092651,1,r,,2,0,1,
fw6,RSVPtest,12,g,true,805.8000001907349,1,r,,3,2,1,
fw6,RSVPtest,13,g,false,1207.4000000953674,1,r,,2,0,1,
fw6,RSVPtest,14,g,true,780.7000002861023,1,r,,3,0,1,
fw6,RSVPtest,15,g,false,694.9000000953674,2,g,,2,0,1,
fw6,RSVPtest,16,g,true,1348.9000000953674,0,b,,0,3,0,
fw6,RSVPtest,17,g,true,1359.0999999046326,2,g,,2,1,1,
fw6,RSVPtest,18,g,true,992.8000001907349,2,g,,1,1,2,
fw6,RSVPtest,19,g,true,693.5999999046326,2,g,,3,0,1,
fw6,RSVPtest,20,g,true,1233.4000000953674,1,r,,2,2,2,
fw6,RSVPtest,21,g,true,1073.0999999046326,1,r,,3,0,1,
fw6,RSVPtest,22,g,true,829.2999997138977,2,g,,2,0,1,
fw6,RSVPtest,23,g,true,774.3000001907349,2,g,,3,1,1,
fw6,RSVPtest,24,g,true,860.4000000953674,0,b,,0,3,0,
fw6,RSVPtest,25,g,false,695.3000001907349,2,g,,3,0,1,
fw6,RSVPtest,26,g,true,525.0999999046326,0,b,,2,3,0,
fw6,RSVPtest,27,g,true,494.19999980926514,1,r,,1,2,1,
fw6,RSVPtest,28,g,false,671.7999997138977,1,r,,0,1,1,
fw6,RSVPtest,29,g,true,542.1000003814697,0,b,,0,3,0,
fw6,RSVPtest,30,g,true,565.9000000953674,1,r,,3,1,1,
fw6,RSVPtest,31,g,false,668.1999998092651,1,r,,1,0,1,
fw6,RSVPtest,32,g,false,819.5,0,b,,0,3,0,
fw6,RSVPtest,33,g,false,780.5,1,r,,0,2,1,
fw6,RSVPtest,34,g,false,629.8000001907349,2,g,,1,0,1,
fw6,RSVPtest,35,g,true,694.0999999046326,1,r,,2,2,2,
fw6,RSVPtest,36,g,false,644.4000000953674,1,r,,3,2,1,
fw6,RSVPtest,37,g,true,788.2999997138977,0,b,,3,3,0,
fw6,RSVPtest,38,g,true,1213.5,2,g,,0,1,1,
fw6,RSVPtest,39,g,true,853.9000000953674,1,r,,2,1,1,
fw6,RSVPtest,40,g,true,717.6999998092651,1,r,,3,0,1,
fw6,RSVPtest,41,g,true,587.0999999046326,2,g,,3,2,1,
fw6,RSVPtest,42,g,false,614,1,r,,3,2,1,
fw6,RSVPtest,43,g,true,661.8000001907349,2,g,,3,0,1,
fw6,RSVPtest,44,g,false,1498.1999998092651,2,g,,3,2,1,
fw6,RSVPtest,45,g,true,998,2,g,,0,2,1,
fw6,RSVPtest,46,g,true,939.5999999046326,2,g,,0,0,2,
fw6,RSVPtest,47,g,true,987.5,1,r,,1,0,1,
fw6,RSVPtest,48,g,true,815.7999997138977,2,g,,0,1,1,
fw6,RSVPtest,49,g,false,980,2,g,,0,2,1,
fw6,RSVPtest,50,g,true,1097.6999998092651,2,g,,3,1,1,
fw6,RSVPtest,51,g,true,1077.3000001907349,1,r,,2,2,2,
fw6,RSVPtest,52,g,true,1823.8000001907349,2,g,,2,2,2,
fw6,RSVPtest,53,g,true,1173.4000000953674,0,b,,1,3,0,
fw6,RSVPtest,54,g,true,893.5999999046326,1,r,,2,2,2,
fw6,RSVPtest,55,g,true,1097.5,1,r,,1,1,2,
fw6,RSVPtest,56,g,true,716.8000001907349,1,r,,0,2,1,
fw6,RSVPtest,57,g,true,621.6999998092651,1,r,,2,2,2,
fw6,RSVPtest,58,g,true,870.2000002861023,2,g,,1,1,2,
fw6,RSVPtest,59,g,true,574.6999998092651,1,r,,3,0,1,
fw6,RSVPtest,60,g,true,956.5,0,b,,1,3,0,
brk,brk,brk,brk,brk,brk,brk,brk,brk,brk,brk,brk,
fw6,RSVPtest,61,g,false,750.2999997138977,2,g,,3,2,1,
fw6,RSVPtest,62,g,true,955.3999996185303,1,r,,0,0,2,
fw6,RSVPtest,63,g,false,822.2000002861023,1,r,,3,0,1,
fw6,RSVPtest,64,g,false,2078.7999997138977,1,r,,0,2,1,
fw6,RSVPtest,65,g,false,1031.5,0,b,,2,3,0,
fw6,RSVPtest,66,g,true,778.9000000953674,0,b,,2,3,0,
fw6,RSVPtest,67,g,false,1277.3999996185303,2,g,,3,1,1,
fw6,RSVPtest,68,g,true,1293.1999998092651,1,r,,3,0,1,
fw6,RSVPtest,69,g,true,899.8000001907349,2,g,,2,2,2,
fw6,RSVPtest,70,g,true,743,2,g,,3,1,1,
fw6,RSVPtest,71,g,true,830.4000000953674,1,r,,3,2,1,
fw6,RSVPtest,72,g,true,1022.4000000953674,1,r,,0,1,1,
fw6,RSVPtest,73,g,true,780.0999999046326,0,b,,3,3,0,
fw6,RSVPtest,74,g,true,869.6000003814697,2,g,,1,0,1,
fw6,RSVPtest,75,g,false,724.9000000953674,0,b,,0,3,0,
fw6,RSVPtest,76,g,true,1410.4000000953674,2,g,,3,1,1,
fw6,RSVPtest,77,g,true,932.4000000953674,2,g,,3,0,1,
fw6,RSVPtest,78,g,true,1431.9000000953674,1,r,,2,0,1,
fw6,RSVPtest,79,g,true,723.1999998092651,1,r,,2,1,1,
fw6,RSVPtest,80,g,true,1140.3000001907349,2,g,,0,0,2,
fw6,RSVPtest,81,g,true,964,1,r,,0,0,2,
fw6,RSVPtest,82,g,true,704.7000002861023,1,r,,1,1,2,
fw6,RSVPtest,83,g,false,700.7000002861023,2,g,,3,1,1,
fw6,RSVPtest,84,g,true,1083.3999996185303,2,g,,2,1,1,
fw6,RSVPtest,85,g,true,642.9000000953674,2,g,,0,2,1,
fw6,RSVPtest,86,g,false,644.9000000953674,2,g,,0,0,2,
fw6,RSVPtest,87,g,true,916.5,0,b,,3,3,0,
fw6,RSVPtest,88,g,false,858.5,2,g,,1,1,2,
fw6,RSVPtest,89,g,true,840.3000001907349,1,r,,0,1,1,
fw6,RSVPtest,90,g,true,838.4000000953674,2,g,,2,2,2,
fw6,RSVPtest,91,g,true,652.6000003814697,0,b,,1,3,0,
fw6,RSVPtest,92,g,false,1491.4000000953674,1,r,,3,2,1,
fw6,RSVPtest,93,g,false,1044.8000001907349,1,r,,3,0,1,
fw6,RSVPtest,94,g,false,732.5999999046326,0,b,,3,3,0,
fw6,RSVPtest,95,g,true,658.5,2,g,,2,1,1,
fw6,RSVPtest,96,g,true,528.0999999046326,2,g,,0,1,1,
fw6,RSVPtest,97,g,true,500.69999980926514,1,r,,0,0,2,
fw6,RSVPtest,98,g,true,845,1,r,,2,1,1,
fw6,RSVPtest,99,g,true,731.7999997138977,2,g,,3,0,1,
fw6,RSVPtest,100,g,true,619.4000000953674,0,b,,2,3,0,
fw6,RSVPtest,101,g,false,1100.2999997138977,0,b,,3,3,0,
fw6,RSVPtest,102,g,false,796.5999999046326,1,r,,1,0,1,
fw6,RSVPtest,103,g,true,971.8000001907349,1,r,,0,0,2,
fw6,RSVPtest,104,g,true,801.3999996185303,0,b,,3,3,0,
fw6,RSVPtest,105,g,true,804.5,0,b,,3,3,0,
fw6,RSVPtest,106,g,true,1915.5,0,b,,3,3,0,
fw6,RSVPtest,107,g,true,706.2000002861023,0,b,,3,3,0,
fw6,RSVPtest,108,g,false,1446.7999997138977,2,g,,3,2,1,
fw6,RSVPtest,109,g,true,1154.9000000953674,2,g,,2,2,2,
fw6,RSVPtest,110,g,true,1210.5,2,g,,2,1,1,
fw6,RSVPtest,111,g,true,723.7000002861023,2,g,,3,1,1,
fw6,RSVPtest,112,g,true,803.5999999046326,1,r,,3,0,1,
fw6,RSVPtest,113,g,true,989.1000003814697,2,g,,1,1,2,
fw6,RSVPtest,114,g,true,707.6999998092651,1,r,,1,1,2,
fw6,RSVPtest,115,g,true,797.5,2,g,,2,1,1,
fw6,RSVPtest,116,g,true,565.0999999046326,2,g,,1,2,1,
fw6,RSVPtest,117,g,true,682.7999997138977,1,r,,1,0,1,
fw6,RSVPtest,118,g,false,789.3000001907349,1,r,,3,1,1,
fw6,RSVPtest,119,g,true,676.1999998092651,1,r,,3,2,1,
fw6,RSVPtest,120,g,true,675.8000001907349,0,b,,3,3,0,
brk,brk,brk,brk,brk,brk,brk,brk,brk,brk,brk,brk,
fw6,RSVPtest,121,g,true,941.2000002861023,2,g,,0,0,2,
fw6,RSVPtest,122,g,true,739.5,0,b,,2,3,0,
fw6,RSVPtest,123,g,true,475.59999990463257,2,g,,0,2,1,
fw6,RSVPtest,124,g,true,440.5,1,r,,0,0,2,
fw6,RSVPtest,125,g,false,838.3000001907349,2,g,,3,0,1,
fw6,RSVPtest,126,g,true,643.8000001907349,0,b,,3,3,0,
fw6,RSVPtest,127,g,true,1227.8000001907349,2,g,,1,1,2,
fw6,RSVPtest,128,g,true,595.3000001907349,0,b,,1,3,0,
fw6,RSVPtest,129,g,true,701.5,0,b,,3,3,0,
fw6,RSVPtest,130,g,true,628.1999998092651,2,g,,1,0,1,
fw6,RSVPtest,131,g,true,683.8000001907349,2,g,,0,2,1,
fw6,RSVPtest,132,g,false,657.5999999046326,2,g,,3,0,1,
fw6,RSVPtest,133,g,true,598.3000001907349,0,b,,3,3,0,
fw6,RSVPtest,134,g,true,663.5999999046326,1,r,,2,0,1,
fw6,RSVPtest,135,g,true,1137.6999998092651,1,r,,3,1,1,
fw6,RSVPtest,136,g,true,949.6999998092651,1,r,,2,1,1,
fw6,RSVPtest,137,g,true,1017.4000000953674,1,r,,3,2,1,
fw6,RSVPtest,138,g,true,924.5,1,r,,3,0,1,
fw6,RSVPtest,139,g,false,988.8999996185303,0,b,,2,3,0,
fw6,RSVPtest,140,g,true,1016.3000001907349,0,b,,2,3,0,
fw6,RSVPtest,141,g,false,1531.5,1,r,,3,1,1,
fw6,RSVPtest,142,g,true,715.8000001907349,1,r,,3,1,1,
fw6,RSVPtest,143,g,true,669.9000000953674,1,r,,3,2,1,
fw6,RSVPtest,144,g,true,2066.5,2,g,,1,0,1,
fw6,RSVPtest,145,g,false,1954.0999999046326,2,g,,3,0,1,
fw6,RSVPtest,146,g,true,919.8999996185303,0,b,,0,3,0,
fw6,RSVPtest,147,g,false,1467.5,2,g,,3,2,1,
fw6,RSVPtest,148,g,false,825.7999997138977,0,b,,0,3,0,
fw6,RSVPtest,149,g,false,1052.8000001907349,1,r,,3,1,1,
fw6,RSVPtest,150,g,false,911.0999999046326,0,b,,2,3,0,
fw6,RSVPtest,151,g,true,697.7000002861023,2,g,,1,2,1,
fw6,RSVPtest,152,g,true,418.40000009536743,2,g,,0,1,1,
fw6,RSVPtest,153,g,false,762.7000002861023,0,b,,3,3,0,
fw6,RSVPtest,154,g,true,1257.5999999046326,0,b,,2,3,0,
fw6,RSVPtest,155,g,true,619.2999997138977,2,g,,1,2,1,
fw6,RSVPtest,156,g,true,698,1,r,,3,1,1,
fw6,RSVPtest,157,g,false,1010.5,2,g,,2,2,2,
fw6,RSVPtest,158,g,true,708.4000000953674,2,g,,1,2,1,
fw6,RSVPtest,159,g,false,803.2999997138977,0,b,,1,3,0,
fw6,RSVPtest,160,g,true,691.1999998092651,2,g,,3,2,1,
fw6,RSVPtest,161,g,true,771,0,b,,2,3,0,
fw6,RSVPtest,162,g,true,729.0999999046326,2,g,,3,2,1,
fw6,RSVPtest,163,g,true,890,2,g,,2,0,1,
fw6,RSVPtest,164,g,true,817.7000002861023,2,g,,3,1,1,
fw6,RSVPtest,165,g,true,618,1,r,,0,1,1,
fw6,RSVPtest,166,g,true,446.8999996185303,0,b,,0,3,0,
fw6,RSVPtest,167,g,true,516,2,g,,2,1,1,
fw6,RSVPtest,168,g,false,603.2000002861023,1,r,,3,0,1,
fw6,RSVPtest,169,g,false,595.0999999046326,2,g,,3,0,1,
fw6,RSVPtest,170,g,true,620.5999999046326,1,r,,1,2,1,
fw6,RSVPtest,171,g,true,538.5999999046326,0,b,,1,3,0,
fw6,RSVPtest,172,g,true,624.3999996185303,2,g,,3,2,1,
fw6,RSVPtest,173,g,true,692.2000002861023,2,g,,3,0,1,
fw6,RSVPtest,174,g,true,547.9000000953674,0,b,,1,3,0,
fw6,RSVPtest,175,g,false,716.2000002861023,1,r,,1,1,2,
fw6,RSVPtest,176,g,false,641.9000000953674,2,g,,1,2,1,
fw6,RSVPtest,177,g,true,524.6000003814697,0,b,,0,3,0,
fw6,RSVPtest,178,g,true,790.9000000953674,0,b,,3,3,0,
fw6,RSVPtest,179,g,false,1415.3000001907349,2,g,,3,1,1,
fw6,RSVPtest,180,g,true,636.7999997138977,1,r,,0,2,1,
brk,brk,brk,brk,brk,brk,brk,brk,brk,brk,brk,brk,
fw6,RSVPtest,181,g,true,1101.1999998092651,1,r,,1,0,1,
fw6,RSVPtest,182,g,false,1092.5,0,b,,3,3,0,
fw6,RSVPtest,183,g,false,737.1999998092651,2,g,,2,0,1,
fw6,RSVPtest,184,g,false,924.6000003814697,0,b,,3,3,0,
fw6,RSVPtest,185,g,true,676.0999999046326,0,b,,3,3,0,
fw6,RSVPtest,186,g,false,634.6999998092651,2,g,,3,0,1,
fw6,RSVPtest,187,g,true,562.5999999046326,2,g,,1,1,2,
fw6,RSVPtest,188,g,false,805.8999996185303,2,g,,1,0,1,
fw6,RSVPtest,189,g,true,587.3000001907349,1,r,,3,1,1,
fw6,RSVPtest,190,g,false,794.8000001907349,1,r,,1,2,1,
fw6,RSVPtest,191,g,false,702.6000003814697,1,r,,0,2,1,
fw6,RSVPtest,192,g,true,533.1999998092651,1,r,,1,0,1,
fw6,RSVPtest,193,g,true,650.8000001907349,2,g,,3,1,1,
fw6,RSVPtest,194,g,true,666.3000001907349,2,g,,3,2,1,
fw6,RSVPtest,195,g,true,686.7999997138977,0,b,,1,3,0,
fw6,RSVPtest,196,g,true,563.8000001907349,0,b,,3,3,0,
fw6,RSVPtest,197,g,true,767.7000002861023,1,r,,0,1,1,
fw6,RSVPtest,198,g,true,681.9000000953674,1,r,,1,2,1,
fw6,RSVPtest,199,g,false,593.5999999046326,0,b,,3,3,0,
fw6,RSVPtest,200,g,true,602.4000000953674,0,b,,1,3,0,
fw6,RSVPtest,201,g,true,682.2000002861023,2,g,,3,0,1,
fw6,RSVPtest,202,g,true,521.5999999046326,0,b,,3,3,0,
fw6,RSVPtest,203,g,true,729,2,g,,3,2,1,
fw6,RSVPtest,204,g,true,785.3000001907349,0,b,,3,3,0,
fw6,RSVPtest,205,g,true,698.8999996185303,0,b,,3,3,0,
fw6,RSVPtest,206,g,true,922.8000001907349,1,r,,1,2,1,
fw6,RSVPtest,207,g,true,810.0999999046326,1,r,,1,1,2,
fw6,RSVPtest,208,g,true,612.5,0,b,,0,3,0,
fw6,RSVPtest,209,g,true,625.8000001907349,1,r,,0,2,1,
fw6,RSVPtest,210,g,true,1000.5999999046326,1,r,,2,1,1,
fw6,RSVPtest,211,g,true,747.0999999046326,2,g,,0,0,2,
fw6,RSVPtest,212,g,true,530.0999999046326,2,g,,3,1,1,
fw6,RSVPtest,213,g,true,851.3000001907349,1,r,,0,1,1,
fw6,RSVPtest,214,g,true,847.2999997138977,2,g,,2,0,1,
fw6,RSVPtest,215,g,true,473.5,0,b,,2,3,0,
fw6,RSVPtest,216,g,true,488.69999980926514,2,g,,0,1,1,
fw6,RSVPtest,217,g,true,667.0999999046326,1,r,,3,1,1,
fw6,RSVPtest,218,g,false,609.0999999046326,2,g,,3,2,1,
fw6,RSVPtest,219,g,true,555.1000003814697,0,b,,2,3,0,
fw6,RSVPtest,220,g,false,495.80000019073486,1,r,,2,1,1,
fw6,RSVPtest,221,g,true,699.0999999046326,1,r,,2,2,2,
fw6,RSVPtest,222,g,true,543,1,r,,3,2,1,
fw6,RSVPtest,223,g,false,576.1999998092651,1,r,,3,0,1,
fw6,RSVPtest,224,g,true,850.5,0,b,,1,3,0,
fw6,RSVPtest,225,g,true,640,0,b,,3,3,0,
fw6,RSVPtest,226,g,true,676.5999999046326,0,b,,1,3,0,
fw6,RSVPtest,227,g,false,569.9000000953674,2,g,,2,2,2,
fw6,RSVPtest,228,g,true,674.7000002861023,2,g,,1,2,1,
fw6,RSVPtest,229,g,true,408.7999997138977,2,g,,0,2,1,
fw6,RSVPtest,230,g,true,691.0999999046326,1,r,,2,0,1,
fw6,RSVPtest,231,g,true,548.2999997138977,1,r,,2,0,1,
fw6,RSVPtest,232,g,false,834.5999999046326,1,r,,3,2,1,
fw6,RSVPtest,233,g,false,531.3000001907349,2,g,,1,0,1,
fw6,RSVPtest,234,g,false,754.1999998092651,1,r,,3,1,1,
fw6,RSVPtest,235,g,true,770.4000000953674,0,b,,1,3,0,
fw6,RSVPtest,236,g,true,794.6999998092651,2,g,,3,1,1,
fw6,RSVPtest,237,g,true,632,0,b,,0,3,0,
fw6,RSVPtest,238,g,true,1253.5999999046326,2,g,,2,0,1,
fw6,RSVPtest,239,g,true,690,1,r,,3,2,1,
fw6,RSVPtest,240,g,true,1345.9000000953674,2,g,,3,2,1,
subID,trialType,trialNum,cntBalance,correct,rt,rwdType,tgtCol,tgtDir,tgtPos,colPos,colMatch,
0tt,VDACtrain,0,g,null,null,2,g,h,5,,,
0tt,VDACtrain,0,g,true,666,1,r,h,2,,,
0tt,VDACtrain,0,g,true,766.0999999046326,2,g,v,5,,,
0tt,VDACtrain,0,g,true,640,1,r,h,0,,,
0tt,VDACtrain,0,g,true,582,1,r,v,3,,,
0tt,VDACtrain,0,g,true,439.2999999523163,2,g,h,3,,,
0tt,VDACtrain,0,g,false,591.2999999523163,1,r,h,1,,,
0tt,VDACtrain,0,g,true,590.5999999046326,2,g,v,2,,,
0tt,VDACtrain,0,g,true,703.4000000953674,2,g,v,0,,,
0tt,VDACtrain,0,g,false,367.2000000476837,1,r,v,4,,,
0tt,VDACtest,1,g,true,529,1,r,h,3,,,
0tt,VDACtest,2,g,true,670.2999999523163,1,r,h,5,,,
0tt,VDACtest,3,g,true,544.5,1,r,h,4,,,
0tt,VDACtest,4,g,true,567.7000000476837,1,r,v,5,,,
0tt,VDACtest,5,g,false,839.3999998569489,2,g,v,3,,,
0tt,VDACtest,6,g,true,815.2999999523163,1,r,v,2,,,
0tt,VDACtest,7,g,true,743.5999999046326,1,r,h,1,,,
0tt,VDACtest,8,g,false,645.5,1,r,h,1,,,
0tt,VDACtest,9,g,true,558.0999999046326,2,g,h,3,,,
0tt,VDACtest,10,g,true,632.4000000953674,1,r,h,3,,,
0tt,VDACtest,11,g,true,575.2999999523163,1,r,h,2,,,
0tt,VDACtest,12,g,true,617.5,1,r,h,5,,,
0tt,VDACtest,13,g,true,506.60000014305115,1,r,v,2,,,
0tt,VDACtest,14,g,true,512.2000000476837,1,r,v,1,,,
0tt,VDACtest,15,g,false,768.6999998092651,2,g,h,2,,,
0tt,VDACtest,16,g,null,null,2,g,h,1,,,
0tt,VDACtest,17,g,false,754.4000000953674,2,g,h,3,,,
0tt,VDACtest,18,g,true,664.3000001907349,2,g,v,0,,,
0tt,VDACtest,19,g,true,634.1000001430511,2,g,v,1,,,
0tt,VDACtest,20,g,true,582.8000001907349,2,g,h,0,,,
0tt,VDACtest,21,g,false,514.2999999523163,2,g,v,2,,,
0tt,VDACtest,22,g,true,552.2000000476837,2,g,v,0,,,
0tt,VDACtest,23,g,true,959.7000000476837,2,g,h,2,,,
0tt,VDACtest,24,g,true,705.5,1,r,v,2,,,
0tt,VDACtest,25,g,true,585.2999999523163,1,r,h,0,,,
0tt,VDACtest,26,g,true,817,1,r,v,2,,,
0tt,VDACtest,27,g,null,null,2,g,h,3,,,
0tt,VDACtest,28,g,true,609.3999998569489,1,r,v,4,,,
0tt,VDACtest,29,g,true,673.0999999046326,1,r,h,1,,,
0tt,VDACtest,30,g,false,604.2000000476837,1,r,h,4,,,
0tt,VDACtest,31,g,true,529.0999999046326,1,r,v,1,,,
0tt,VDACtest,32,g,false,544.7999999523163,1,r,h,5,,,
0tt,VDACtest,33,g,true,640.8999998569489,2,g,v,0,,,
0tt,VDACtest,34,g,true,649.3000001907349,2,g,v,0,,,
0tt,VDACtest,35,g,true,504.59999990463257,2,g,v,5,,,
0tt,VDACtest,36,g,true,720.3999998569489,2,g,h,2,,,
0tt,VDACtest,37,g,false,625.7999999523163,2,g,h,0,,,
0tt,VDACtest,38,g,true,943.8999998569489,1,r,h,3,,,
0tt,VDACtest,39,g,true,590.5999999046326,1,r,h,4,,,
0tt,VDACtest,40,g,true,992.7000000476837,2,g,h,1,,,
0tt,VDACtest,41,g,true,626.7999999523163,1,r,h,0,,,
0tt,VDACtest,42,g,true,626.7999999523163,1,r,v,1,,,
0tt,VDACtest,43,g,true,528.1000001430511,1,r,h,5,,,
0tt,VDACtest,44,g,true,485.2999999523163,1,r,h,4,,,
0tt,VDACtest,45,g,true,506.40000009536743,1,r,v,3,,,
0tt,VDACtest,46,g,true,658.4000000953674,2,g,v,2,,,
0tt,VDACtest,47,g,true,560.3000001907349,1,r,v,3,,,
0tt,VDACtest,48,g,true,641,1,r,v,1,,,
0tt,VDACtest,49,g,true,858,2,g,v,1,,,
0tt,VDACtest,50,g,true,489.80000019073486,1,r,h,1,,,
brk,brk,brk,brk,brk,brk,brk,brk,brk,brk,brk,brk,
0tt,VDACtest,51,g,null,null,2,g,h,3,,,
0tt,VDACtest,52,g,true,649.0999999046326,2,g,h,5,,,
0tt,VDACtest,53,g,true,576.2999999523163,2,g,v,4,,,
0tt,VDACtest,54,g,true,735.0999999046326,1,r,v,3,,,
0tt,VDACtest,55,g,false,545.2999999523163,2,g,h,1,,,
0tt,VDACtest,56,g,true,550.4000000953674,2,g,v,5,,,
0tt,VDACtest,57,g,true,511.90000009536743,2,g,v,5,,,
0tt,VDACtest,58,g,false,464.7000000476837,1,r,v,3,,,
0tt,VDACtest,59,g,false,584.5999999046326,1,r,h,0,,,
0tt,VDACtest,60,g,true,622.7000000476837,2,g,v,0,,,
0tt,VDACtest,61,g,true,679.9000000953674,2,g,h,3,,,
0tt,VDACtest,62,g,true,575.2999999523163,1,r,v,2,,,
0tt,VDACtest,63,g,true,560,1,r,h,2,,,
0tt,VDACtest,64,g,true,704.5999999046326,1,r,h,3,,,
0tt,VDACtest,65,g,true,848,2,g,v,4,,,
0tt,VDACtest,66,g,true,528.9000000953674,1,r,v,5,,,
0tt,VDACtest,67,g,true,609.3999998569489,2,g,v,0,,,
0tt,VDACtest,68,g,true,614.3000001907349,1,r,h,1,,,
0tt,VDACtest,69,g,true,830.8000001907349,2,g,h,3,,,
0tt,VDACtest,70,g,true,657.3999998569489,1,r,v,3,,,
0tt,VDACtest,71,g,true,461.09999990463257,2,g,h,3,,,
0tt,VDACtest,72,g,true,665.2999999523163,2,g,v,1,,,
0tt,VDACtest,73,g,true,561,2,g,h,4,,,
0tt,VDACtest,74,g,true,439.7999999523163,1,r,v,1,,,
0tt,VDACtest,75,g,true,528.2999999523163,1,r,h,3,,,
0tt,VDACtest,76,g,true,552.5,1,r,h,1,,,
0tt,VDACtest,77,g,false,607.2999999523163,2,g,h,0,,,
0tt,VDACtest,78,g,true,713.2000000476837,2,g,h,0,,,
0tt,VDACtest,79,g,true,529.4000000953674,1,r,h,0,,,
0tt,VDACtest,80,g,true,582.9000000953674,1,r,h,4,,,
0tt,VDACtest,81,g,true,559.0999999046326,2,g,v,0,,,
0tt,VDACtest,82,g,true,416.5,1,r,h,3,,,
0tt,VDACtest,83,g,true,542.5,1,r,v,4,,,
0tt,VDACtest,84,g,false,503.7999999523163,1,r,v,2,,,
0tt,VDACtest,85,g,true,599.2000000476837,2,g,h,2,,,
0tt,VDACtest,86,g,true,696.5,2,g,v,5,,,
0tt,VDACtest,87,g,true,656,2,g,v,3,,,
0tt,VDACtest,88,g,true,728.7000000476837,2,g,h,1,,,
0tt,VDACtest,89,g,true,710.1999998092651,2,g,h,3,,,
0tt,VDACtest,90,g,true,591.5,2,g,v,0,,,
0tt,VDACtest,91,g,true,551.3999998569489,2,g,h,1,,,
0tt,VDACtest,92,g,true,447.2000000476837,1,r,v,0,,,
0tt,VDACtest,93,g,true,646.7000000476837,2,g,h,2,,,
0tt,VDACtest,94,g,false,617.5,2,g,h,0,,,
0tt,VDACtest,95,g,true,554.2999999523163,1,r,h,1,,,
0tt,VDACtest,96,g,true,579.5,1,r,h,0,,,
0tt,VDACtest,97,g,true,961.5999999046326,1,r,v,4,,,
0tt,VDACtest,98,g,true,512.8999998569489,1,r,h,3,,,
0tt,VDACtest,99,g,true,842.7000000476837,2,g,h,4,,,
0tt,VDACtest,100,g,true,643.0999999046326,1,r,h,0,,,
brk,brk,brk,brk,brk,brk,brk,brk,brk,brk,brk,brk,
0tt,VDACtest,101,g,true,686.8999998569489,2,g,h,1,,,
0tt,VDACtest,102,g,false,609.5999999046326,2,g,h,5,,,
0tt,VDACtest,103,g,true,625.1000001430511,2,g,v,3,,,
0tt,VDACtest,104,g,true,599.7000000476837,1,r,v,5,,,
0tt,VDACtest,105,g,true,568.3000001907349,2,g,v,4,,,
0tt,VDACtest,106,g,true,598.7999999523163,2,g,v,5,,,
0tt,VDACtest,107,g,true,711.2999999523163,2,g,h,5,,,
0tt,VDACtest,108,g,true,837,1,r,h,4,,,
0tt,VDACtest,109,g,true,983.2999999523163,2,g,h,1,,,
0tt,VDACtest,110,g,true,745.2999999523163,2,g,h,4,,,
0tt,VDACtest,111,g,true,800.4000000953674,1,r,v,5,,,
0tt,VDACtest,112,g,true,719.8999998569489,1,r,v,5,,,
0tt,VDACtest,113,g,true,625.5,2,g,v,4,,,
0tt,VDACtest,114,g,true,615.5,2,g,v,2,,,
0tt,VDACtest,115,g,true,640.1999998092651,1,r,v,3,,,
0tt,VDACtest,116,g,true,614.4000000953674,1,r,h,2,,,
0tt,VDACtest,117,g,true,582,1,r,v,1,,,
0tt,VDACtest,118,g,true,671.8999998569489,2,g,h,4,,,
0tt,VDACtest,119,g,true,632.9000000953674,2,g,h,5,,,
0tt,VDACtest,120,g,true,566.9000000953674,1,r,h,3,,,
0tt,VDACtest,121,g,true,721.2999999523163,1,r,v,5,,,
0tt,VDACtest,122,g,true,753.2999999523163,1,r,v,0,,,
0tt,VDACtest,123,g,null,null,2,g,v,1,,,
0tt,VDACtest,124,g,true,503,1,r,h,2,,,
0tt,VDACtest,125,g,true,519.2999999523163,1,r,v,4,,,
0tt,VDACtest,126,g,null,null,2,g,h,2,,,
0tt,VDACtest,127,g,true,663.2999999523163,1,r,v,0,,,
0tt,VDACtest,128,g,true,896.5999999046326,2,g,v,2,,,
0tt,VDACtest,129,g,true,766.5,2,g,h,4,,,
0tt,VDACtest,130,g,true,753,2,g,h,4,,,
0tt,VDACtest,131,g,true,505,1,r,v,0,,,
0tt,VDACtest,132,g,true,702.7000000476837,2,g,h,5,,,
0tt,VDACtest,133,g,true,552.8000001907349,1,r,h,1,,,
0tt,VDACtest,134,g,true,592.9000000953674,1,r,h,5,,,
0tt,VDACtest,135,g,true,558.7000000476837,1,r,v,5,,,
0tt,VDACtest,136,g,true,735.7000000476837,2,g,v,2,,,
0tt,VDACtest,137,g,true,577.5999999046326,1,r,h,4,,,
0tt,VDACtest,138,g,true,855.5999999046326,2,g,h,0,,,
0tt,VDACtest,139,g,true,552.2000000476837,2,g,v,3,,,
0tt,VDACtest,140,g,true,440.39999985694885,1,r,h,2,,,
0tt,VDACtest,141,g,true,761.5,1,r,v,2,,,
0tt,VDACtest,142,g,true,752.2999999523163,2,g,v,4,,,
0tt,VDACtest,143,g,true,560.2000000476837,2,g,v,1,,,
0tt,VDACtest,144,g,true,472.40000009536743,1,r,v,0,,,
0tt,VDACtest,145,g,true,681.2999999523163,2,g,v,3,,,
0tt,VDACtest,146,g,true,535.6000001430511,1,r,v,4,,,
0tt,VDACtest,147,g,true,575.3999998569489,1,r,h,5,,,
0tt,VDACtest,148,g,true,678.7999999523163,2,g,h,0,,,
0tt,VDACtest,149,g,true,599.5,1,r,h,4,,,
0tt,VDACtest,150,g,true,632.1999998092651,2,g,h,5,,,
brk,brk,brk,brk,brk,brk,brk,brk,brk,brk,brk,brk,
0tt,VDACtest,151,g,true,665.2999999523163,2,g,v,4,,,
0tt,VDACtest,152,g,true,671.3999998569489,2,g,v,5,,,
0tt,VDACtest,153,g,null,null,1,r,v,0,,,
0tt,VDACtest,154,g,true,823.3999998569489,1,r,v,3,,,
0tt,VDACtest,155,g,true,735.2000000476837,2,g,v,1,,,
0tt,VDACtest,156,g,true,544.2999999523163,2,g,v,3,,,
0tt,VDACtest,157,g,true,663.2999999523163,1,r,v,1,,,
0tt,VDACtest,158,g,true,614.2000000476837,2,g,v,2,,,
0tt,VDACtest,159,g,true,601.2000000476837,2,g,h,5,,,
0tt,VDACtest,160,g,true,730,1,r,h,0,,,
0tt,VDACtest,161,g,true,735.2999999523163,2,g,v,4,,,
0tt,VDACtest,162,g,true,593,2,g,h,5,,,
0tt,VDACtest,163,g,true,838.5,1,r,h,2,,,
0tt,VDACtest,164,g,true,567.1999998092651,1,r,h,5,,,
0tt,VDACtest,165,g,true,592.5999999046326,1,r,h,5,,,
0tt,VDACtest,166,g,true,609.3000001907349,1,r,v,4,,,
0tt,VDACtest,167,g,true,608.2999999523163,2,g,h,2,,,
0tt,VDACtest,168,g,true,655.2999999523163,1,r,h,0,,,
0tt,VDACtest,169,g,true,567.4000000953674,2,g,v,3,,,
0tt,VDACtest,170,g,true,639.2000000476837,2,g,v,5,,,
0tt,VDACtest,171,g,true,813.8000001907349,2,g,h,4,,,
0tt,VDACtest,172,g,true,606.2999999523163,2,g,h,1,,,
0tt,VDACtest,173,g,true,807.3000001907349,2,g,h,4,,,
0tt,VDACtest,174,g,true,590.7000000476837,2,g,v,4,,,
0tt,VDACtest,175,g,true,824,1,r,v,5,,,
0tt,VDACtest,176,g,true,632.5,1,r,h,4,,,
0tt,VDACtest,177,g,true,528.1000001430511,1,r,v,4,,,
0tt,VDACtest,178,g,true,671.7999999523163,1,r,v,4,,,
0tt,VDACtest,179,g,true,768,2,g,v,2,,,
0tt,VDACtest,180,g,true,886.7000000476837,1,r,v,3,,,
0tt,VDACtest,181,g,true,536.5999999046326,1,r,v,4,,,
0tt,VDACtest,182,g,true,543,2,g,v,3,,,
0tt,VDACtest,183,g,true,631.7000000476837,1,r,v,0,,,
0tt,VDACtest,184,g,true,484.2999999523163,2,g,h,2,,,
0tt,VDACtest,185,g,true,487.7000000476837,2,g,v,2,,,
0tt,VDACtest,186,g,true,502.90000009536743,2,g,v,1,,,
0tt,VDACtest,187,g,true,774.7000000476837,1,r,h,1,,,
0tt,VDACtest,188,g,true,528.7999999523163,1,r,v,1,,,
0tt,VDACtest,189,g,true,399.89999985694885,1,r,v,0,,,
0tt,VDACtest,190,g,true,544.7000000476837,2,g,h,4,,,
0tt,VDACtest,191,g,true,543.6999998092651,2,g,v,1,,,
0tt,VDACtest,192,g,true,463.5,2,g,v,5,,,
0tt,VDACtest,193,g,true,536.7000000476837,1,r,v,2,,,
0tt,VDACtest,194,g,true,566.1000001430511,1,r,h,2,,,
0tt,VDACtest,195,g,true,496,1,r,h,2,,,
0tt,VDACtest,196,g,false,751.3999998569489,2,g,h,0,,,
0tt,VDACtest,197,g,true,615.2999999523163,2,g,v,1,,,
0tt,VDACtest,198,g,true,561.7000000476837,2,g,v,4,,,
0tt,VDACtest,199,g,true,533.5999999046326,1,r,v,1,,,
0tt,VDACtest,200,g,true,512.0999999046326,2,g,h,1,,,
0tt,RSVPtrain,0,g,null,null,0,b,,3,3,0,
0tt,RSVPtrain,0,g,false,950.6999998092651,1,r,,1,1,2,
0tt,RSVPtrain,0,g,true,1178.7999999523163,2,g,,3,1,1,
0tt,RSVPtrain,0,g,false,913.2999999523163,2,g,,1,0,1,
0tt,RSVPtrain,0,g,false,994.1999998092651,0,b,,1,3,0,
0tt,RSVPtrain,0,g,false,1323,1,r,,0,0,2,
0tt,RSVPtrain,0,g,false,977.2000000476837,0,b,,0,3,0,
0tt,RSVPtrain,0,g,false,332.40000009536743,2,g,,3,0,1,
0tt,RSVPtrain,0,g,false,413,2,g,,2,2,2,
0tt,RSVPtrain,0,g,false,961.2000000476837,1,r,,3,2,1,
0tt,RSVPtrain,0,g,false,406.2999999523163,1,r,,3,2,1,
0tt,RSVPtrain,0,g,false,289.7000000476837,0,b,,3,3,0,
0tt,RSVPtrain,0,g,true,311,0,b,,0,3,0,
0tt,RSVPtrain,0,g,true,355.19999980926514,2,g,,3,1,1,
0tt,RSVPtrain,0,g,false,1240.8999998569489,0,b,,1,3,0,
0tt,RSVPtrain,0,g,true,1434.5,2,g,,2,2,2,
0tt,RSVPtrain,0,g,false,969.5,2,g,,3,0,1,
0tt,RSVPtrain,0,g,false,690.2999999523163,1,r,,1,1,2,
0tt,RSVPtrain,0,g,true,90,1,r,,0,0,2,
0tt,RSVPtrain,0,g,false,298.89999985694885,2,g,,1,0,1,
0tt,RSVPtrain,0,g,false,751.1000001430511,1,r,,0,0,2,
0tt,RSVPtrain,0,g,false,234,0,b,,3,3,0,
0tt,RSVPtrain,0,g,false,337.40000009536743,2,g,,1,0,1,
0tt,RSVPtrain,0,g,false,556.6000001430511,0,b,,0,3,0,
0tt,RSVPtrain,0,g,true,297.09999990463257,1,r,,1,1,2,
0tt,RSVPtrain,0,g,true,425.2999999523163,0,b,,1,3,0,
0tt,RSVPtrain,0,g,true,334.5,2,g,,2,2,2,
0tt,RSVPtrain,0,g,false,536.1999998092651,1,r,,3,2,1,
0tt,RSVPtrain,0,g,true,208.30000019073486,2,g,,3,0,1,
0tt,RSVPtrain,0,g,false,24,2,g,,3,1,1,
0tt,RSVPtest,1,g,false,571.5,0,b,,0,3,0,
0tt,RSVPtest,2,g,true,441.69999980926514,2,g,,3,0,1,
0tt,RSVPtest,3,g,true,505,1,r,,0,1,1,
0tt,RSVPtest,4,g,false,353.5,2,g,,0,1,1,
0tt,RSVPtest,5,g,false,408.2999999523163,1,r,,3,1,1,
0tt,RSVPtest,6,g,true,536.1000001430511,2,g,,3,1,1,
0tt,RSVPtest,7,g,true,425.10000014305115,1,r,,1,0,1,
0tt,RSVPtest,8,g,false,616.2000000476837,2,g,,0,1,1,
0tt,RSVPtest,9,g,false,305.2999999523163,1,r,,3,1,1,
0tt,RSVPtest,10,g,false,399.2000000476837,0,b,,1,3,0,
0tt,RSVPtest,11,g,false,120.10000014305115,1,r,,2,2,2,
0tt,RSVPtest,12,g,false,272.10000014305115,2,g,,1,2,1,
0tt,RSVPtest,13,g,false,304.2000000476837,0,b,,3,3,0,
0tt,RSVPtest,14,g,true,288.60000014305115,2,g,,2,2,2,
0tt,RSVPtest,15,g,false,369.89999985694885,1,r,,0,1,1,
0tt,RSVPtest,16,g,true,205,0,b,,1,3,0,
0tt,RSVPtest,17,g,null,null,1,r,,3,0,1,
0tt,RSVPtest,18,g,true,282.30000019073486,2,g,,3,0,1,
0tt,RSVPtest,19,g,false,455.60000014305115,0,b,,0,3,0,
0tt,RSVPtest,20,g,false,251.40000009536743,2,g,,3,2,1,
0tt,RSVPtest,21,g,false,235.29999995231628,2,g,,2,1,1,
0tt,RSVPtest,22,g,true,98.29999995231628,0,b,,2,3,0,
0tt,RSVPtest,23,g,false,295.2000000476837,1,r,,3,2,1,
0tt,RSVPtest,24,g,false,283.89999985694885,0,b,,3,3,0,
0tt,RSVPtest,25,g,false,305,1,r,,2,1,1,
0tt,RSVPtest,26,g,true,266.89999985694885,0,b,,2,3,0,
0tt,RSVPtest,27,g,false,577.5,0,b,,2,3,0,
0tt,RSVPtest,28,g,true,601.2999999523163,1,r,,0,2,1,
0tt,RSVPtest,29,g,true,682.7000000476837,2,g,,3,2,1,
0tt,RSVPtest,30,g,true,426.7000000476837,2,g,,0,0,2,
0tt,RSVPtest,31,g,null,null,0,b,,3,3,0,
0tt,RSVPtest,32,g,true,364.59999990463257,1,r,,3,1,1,
0tt,RSVPtest,33,g,false,298.7999999523163,1,r,,3,2,1,
0tt,RSVPtest,34,g,false,315.2999999523163,2,g,,1,0,1,
0tt,RSVPtest,35,g,false,262,2,g,,0,0,2,
0tt,RSVPtest,36,g,true,320.90000009536743,2,g,,1,0,1,
0tt,RSVPtest,37,g,true,529.7999999523163,2,g,,3,2,1,
0tt,RSVPtest,38,g,false,739.4000000953674,2,g,,0,0,2,
0tt,RSVPtest,39,g,true,342.7000000476837,1,r,,1,2,1,
0tt,RSVPtest,40,g,null,null,2,g,,3,1,1,
0tt,RSVPtest,41,g,false,638.7999999523163,1,r,,2,1,1,
0tt,RSVPtest,42,g,true,905,0,b,,2,3,0,
0tt,RSVPtest,43,g,false,776.5999999046326,0,b,,3,3,0,
0tt,RSVPtest,44,g,false,90.5,1,r,,2,0,1,
0tt,RSVPtest,45,g,false,402.10000014305115,0,b,,3,3,0,
0tt,RSVPtest,46,g,true,570.5,1,r,,0,2,1,
0tt,RSVPtest,47,g,false,856.0999999046326,1,r,,3,1,1,
0tt,RSVPtest,48,g,true,336.7999999523163,2,g,,1,1,2,
0tt,RSVPtest,49,g,false,354,1,r,,0,1,1,
0tt,RSVPtest,50,g,false,289.69999980926514,2,g,,3,2,1,
0tt,RSVPtest,51,g,false,153.39999985694885,2,g,,1,1,2,
0tt,RSVPtest,52,g,true,316,1,r,,0,0,2,
0tt,RSVPtest,53,g,true,790.7999999523163,1,r,,3,2,1,
0tt,RSVPtest,54,g,false,906.0999999046326,1,r,,0,2,1,
0tt,RSVPtest,55,g,false,689.1999998092651,1,r,,2,2,2,
0tt,RSVPtest,56,g,true,659,2,g,,1,1,2,
0tt,RSVPtest,57,g,true,529.6999998092651,1,r,,3,1,1,
0tt,RSVPtest,58,g,false,696.7000000476837,2,g,,3,1,1,
0tt,RSVPtest,59,g,true,570.2999999523163,2,g,,1,0,1,
0tt,RSVPtest,60,g,null,null,2,g,,2,1,1,
brk,brk,brk,brk,brk,brk,brk,brk,brk,brk,brk,brk,
0tt,RSVPtest,61,g,true,1493.2000000476837,2,g,,0,2,1,
0tt,RSVPtest,62,g,false,2010.2000000476837,2,g,,1,2,1,
0tt,RSVPtest,63,g,false,815.2999999523163,2,g,,3,0,1,
0tt,RSVPtest,64,g,false,655.6000001430511,1,r,,0,0,2,
0tt,RSVPtest,65,g,false,425.7000000476837,0,b,,3,3,0,
0tt,RSVPtest,66,g,null,null,2,g,,3,0,1,
0tt,RSVPtest,67,g,true,524.2999999523163,1,r,,0,1,1,
0tt,RSVPtest,68,g,false,401.7000000476837,0,b,,0,3,0,
0tt,RSVPtest,69,g,true,1392.3000001907349,0,b,,3,3,0,
0tt,RSVPtest,70,g,true,319.19999980926514,0,b,,2,3,0,
0tt,RSVPtest,71,g,true,536.5999999046326,0,b,,3,3,0,
0tt,RSVPtest,72,g,true,416.40000009536743,1,r,,3,0,1,
0tt,RSVPtest,73,g,true,543.5,1,r,,2,0,1,
0tt,RSVPtest,74,g,false,415.90000009536743,0,b,,0,3,0,
0tt,RSVPtest,75,g,false,808.0999999046326,2,g,,1,1,2,
0tt,RSVPtest,76,g,null,null,2,g,,3,2,1,
0tt,RSVPtest,77,g,true,561.7999999523163,2,g,,2,1,1,
0tt,RSVPtest,78,g,true,672.2000000476837,2,g,,3,1,1,
0tt,RSVPtest,79,g,true,775.7999999523163,2,g,,3,2,1,
0tt,RSVPtest,80,g,true,1039.9000000953674,1,r,,1,2,1,
0tt,RSVPtest,81,g,false,431.40000009536743,1,r,,0,1,1,
0tt,RSVPtest,82,g,false,538.2999999523163,0,b,,3,3,0,
0tt,RSVPtest,83,g,false,338,1,r,,1,1,2,
0tt,RSVPtest,84,g,true,825.7999999523163,2,g,,1,1,2,
0tt,RSVPtest,85,g,true,561.5,2,g,,3,2,1,
0tt,RSVPtest,86,g,null,null,2,g,,3,0,1,
0tt,RSVPtest,87,g,true,468,2,g,,0,1,1,
0tt,RSVPtest,88,g,false,890,1,r,,2,0,1,
0tt,RSVPtest,89,g,false,431.39999985694885,1,r,,3,2,1,
0tt,RSVPtest,90,g,false,1704.2999999523163,2,g,,1,2,1,
0tt,RSVPtest,91,g,false,608.7999999523163,0,b,,3,3,0,
0tt,RSVPtest,92,g,false,463.7000000476837,1,r,,1,2,1,
0tt,RSVPtest,93,g,true,385.2000000476837,2,g,,0,2,1,
0tt,RSVPtest,94,g,true,1648.6000001430511,2,g,,3,0,1,
0tt,RSVPtest,95,g,true,1248.2999999523163,1,r,,3,0,1,
0tt,RSVPtest,96,g,true,570.2000000476837,2,g,,0,2,1,
0tt,RSVPtest,97,g,false,610.5,2,g,,2,2,2,
0tt,RSVPtest,98,g,false,992.2000000476837,2,g,,3,1,1,
0tt,RSVPtest,99,g,true,528.8000001907349,0,b,,3,3,0,
0tt,RSVPtest,100,g,true,494.89999985694885,2,g,,3,1,1,
0tt,RSVPtest,101,g,true,362.2999999523163,0,b,,2,3,0,
0tt,RSVPtest,102,g,true,920.5,2,g,,2,2,2,
0tt,RSVPtest,103,g,false,266.90000009536743,0,b,,1,3,0,
0tt,RSVPtest,104,g,false,265.2999999523163,0,b,,1,3,0,
0tt,RSVPtest,105,g,false,265.7000000476837,2,g,,3,0,1,
0tt,RSVPtest,106,g,true,264.2999999523163,0,b,,3,3,0,
0tt,RSVPtest,107,g,true,488.2000000476837,1,r,,2,2,2,
0tt,RSVPtest,108,g,true,409.09999990463257,0,b,,1,3,0,
0tt,RSVPtest,109,g,true,536.3999998569489,0,b,,3,3,0,
0tt,RSVPtest,110,g,false,225.89999985694885,0,b,,1,3,0,
0tt,RSVPtest,111,g,false,248.29999995231628,2,g,,3,1,1,
0tt,RSVPtest,112,g,true,327,1,r,,3,1,1,
0tt,RSVPtest,113,g,false,247.09999990463257,2,g,,0,0,2,
0tt,RSVPtest,114,g,false,511.90000009536743,2,g,,2,0,1,
0tt,RSVPtest,115,g,true,241.90000009536743,0,b,,0,3,0,
0tt,RSVPtest,116,g,false,72.70000004768372,2,g,,2,0,1,
0tt,RSVPtest,117,g,false,319.80000019073486,2,g,,1,1,2,
0tt,RSVPtest,118,g,false,401.10000014305115,1,r,,1,0,1,
0tt,RSVPtest,119,g,false,360.2000000476837,2,g,,3,0,1,
0tt,RSVPtest,120,g,true,332.69999980926514,0,b,,2,3,0,
brk,brk,brk,brk,brk,brk,brk,brk,brk,brk,brk,brk,
0tt,RSVPtest,121,g,true,891.5,2,g,,2,1,1,
0tt,RSVPtest,122,g,true,262.89999985694885,2,g,,3,1,1,
0tt,RSVPtest,123,g,false,262.7999999523163,2,g,,2,2,2,
0tt,RSVPtest,124,g,false,521.2999999523163,2,g,,0,1,1,
0tt,RSVPtest,125,g,true,295.09999990463257,2,g,,0,0,2,
0tt,RSVPtest,126,g,true,303.90000009536743,0,b,,3,3,0,
0tt,RSVPtest,127,g,false,464.2999999523163,2,g,,3,0,1,
0tt,RSVPtest,128,g,false,358.39999985694885,1,r,,0,0,2,
0tt,RSVPtest,129,g,true,928.5,1,r,,0,2,1,
0tt,RSVPtest,130,g,false,335.59999990463257,0,b,,2,3,0,
0tt,RSVPtest,131,g,false,171,0,b,,2,3,0,
0tt,RSVPtest,132,g,true,431.5,2,g,,0,2,1,
0tt,RSVPtest,133,g,false,359.7999999523163,0,b,,1,3,0,
0tt,RSVPtest,134,g,true,526.2999999523163,1,r,,1,0,1,
0tt,RSVPtest,135,g,false,311.7999999523163,1,r,,1,1,2,
0tt,RSVPtest,136,g,false,423.2999999523163,0,b,,0,3,0,
0tt,RSVPtest,137,g,false,297.09999990463257,1,r,,3,0,1,
0tt,RSVPtest,138,g,false,352.7000000476837,0,b,,2,3,0,
0tt,RSVPtest,139,g,false,287.7999999523163,0,b,,3,3,0,
0tt,RSVPtest,140,g,false,132.89999985694885,0,b,,1,3,0,
0tt,RSVPtest,141,g,true,277.60000014305115,2,g,,2,2,2,
0tt,RSVPtest,142,g,true,501.5,2,g,,3,1,1,
0tt,RSVPtest,143,g,true,567.2000000476837,2,g,,0,1,1,
0tt,RSVPtest,144,g,false,105.29999995231628,0,b,,1,3,0,
0tt,RSVPtest,145,g,true,334.69999980926514,1,r,,2,1,1,
0tt,RSVPtest,146,g,true,283,1,r,,3,2,1,
0tt,RSVPtest,147,g,true,287.2000000476837,2,g,,0,2,1,
0tt,RSVPtest,148,g,true,243.10000014305115,2,g,,3,2,1,
0tt,RSVPtest,149,g,false,261.30000019073486,1,r,,3,0,1,
0tt,RSVPtest,150,g,true,718.7999999523163,1,r,,3,1,1,
0tt,RSVPtest,151,g,true,488.2000000476837,1,r,,3,0,1,
0tt,RSVPtest,152,g,true,271.7000000476837,2,g,,1,0,1,
0tt,RSVPtest,153,g,false,309.7999999523163,2,g,,0,0,2,
0tt,RSVPtest,154,g,true,263.59999990463257,0,b,,0,3,0,
0tt,RSVPtest,155,g,false,230.90000009536743,1,r,,2,1,1,
0tt,RSVPtest,156,g,false,277.80000019073486,2,g,,3,0,1,
0tt,RSVPtest,157,g,false,303.60000014305115,1,r,,1,1,2,
0tt,RSVPtest,158,g,false,302.7000000476837,1,r,,2,0,1,
0tt,RSVPtest,159,g,false,380,1,r,,3,1,1,
0tt,RSVPtest,160,g,false,701.5,0,b,,1,3,0,
0tt,RSVPtest,161,g,true,216,2,g,,3,1,1,
0tt,RSVPtest,162,g,true,320.7000000476837,1,r,,1,0,1,
0tt,RSVPtest,163,g,true,377.60000014305115,0,b,,3,3,0,
0tt,RSVPtest,164,g,false,286.7999999523163,1,r,,3,2,1,
0tt,RSVPtest,165,g,false,543.5999999046326,1,r,,2,1,1,
0tt,RSVPtest,166,g,true,303.09999990463257,2,g,,2,0,1,
0tt,RSVPtest,167,g,false,472.39999985694885,2,g,,2,1,1,
0tt,RSVPtest,168,g,false,583.6999998092651,1,r,,0,2,1,
0tt,RSVPtest,169,g,true,119.10000014305115,0,b,,0,3,0,
0tt,RSVPtest,170,g,true,224.89999985694885,0,b,,3,3,0,
0tt,RSVPtest,171,g,true,557.5999999046326,1,r,,0,2,1,
0tt,RSVPtest,172,g,false,448.7999999523163,1,r,,0,1,1,
0tt,RSVPtest,173,g,true,407,2,g,,3,1,1,
0tt,RSVPtest,174,g,false,280,2,g,,1,2,1,
0tt,RSVPtest,175,g,true,648.7999999523163,1,r,,3,2,1,
0tt,RSVPtest,176,g,true,1808.1000001430511,1,r,,3,1,1,
0tt,RSVPtest,177,g,true,249.29999995231628,2,g,,2,1,1,
0tt,RSVPtest,178,g,false,336.40000009536743,2,g,,2,2,2,
0tt,RSVPtest,179,g,true,208.39999985694885,2,g,,2,0,1,
0tt,RSVPtest,180,g,false,1105.5,1,r,,1,2,1,
brk,brk,brk,brk,brk,brk,brk,brk,brk,brk,brk,brk,
0tt,RSVPtest,181,g,false,531.5,1,r,,1,0,1,
0tt,RSVPtest,182,g,false,295.09999990463257,2,g,,1,0,1,
0tt,RSVPtest,183,g,true,246.5,1,r,,3,0,1,
0tt,RSVPtest,184,g,false,263,1,r,,3,2,1,
0tt,RSVPtest,185,g,true,79.70000004768372,0,b,,2,3,0,
0tt,RSVPtest,186,g,false,166.59999990463257,0,b,,2,3,0,
0tt,RSVPtest,187,g,false,423.39999985694885,2,g,,1,2,1,
0tt,RSVPtest,188,g,false,93.29999995231628,1,r,,3,2,1,
0tt,RSVPtest,189,g,true,230.5,1,r,,2,2,2,
0tt,RSVPtest,190,g,null,null,1,r,,2,1,1,
0tt,RSVPtest,191,g,false,269.7999999523163,1,r,,3,0,1,
0tt,RSVPtest,192,g,false,255.79999995231628,1,r,,3,2,1,
0tt,RSVPtest,193,g,true,335.10000014305115,1,r,,3,2,1,
0tt,RSVPtest,194,g,true,332,2,g,,3,2,1,
0tt,RSVPtest,195,g,false,390.90000009536743,0,b,,3,3,0,
0tt,RSVPtest,196,g,false,605.2000000476837,2,g,,3,2,1,
0tt,RSVPtest,197,g,false,293.40000009536743,1,r,,0,0,2,
0tt,RSVPtest,198,g,false,279.5,2,g,,2,0,1,
0tt,RSVPtest,199,g,false,341.7999999523163,2,g,,0,1,1,
0tt,RSVPtest,200,g,false,64.70000004768372,0,b,,3,3,0,
0tt,RSVPtest,201,g,true,439.5,1,r,,3,0,1,
0tt,RSVPtest,202,g,true,78,1,r,,3,1,1,
0tt,RSVPtest,203,g,false,175.10000014305115,2,g,,1,0,1,
0tt,RSVPtest,204,g,true,62.90000009536743,2,g,,0,2,1,
0tt,RSVPtest,205,g,false,135.90000009536743,0,b,,1,3,0,
0tt,RSVPtest,206,g,false,32.59999990463257,1,r,,3,1,1,
0tt,RSVPtest,207,g,true,191.20000004768372,2,g,,2,0,1,
0tt,RSVPtest,208,g,false,185.90000009536743,0,b,,0,3,0,
0tt,RSVPtest,209,g,false,205.79999995231628,1,r,,0,0,2,
0tt,RSVPtest,210,g,true,13.599999904632568,2,g,,3,0,1,
0tt,RSVPtest,211,g,false,284.39999985694885,0,b,,3,3,0,
0tt,RSVPtest,212,g,true,52.799999952316284,1,r,,1,2,1,
0tt,RSVPtest,213,g,false,316.89999985694885,2,g,,3,2,1,
0tt,RSVPtest,214,g,true,391.10000014305115,1,r,,3,1,1,
0tt,RSVPtest,215,g,true,54.39999985694885,1,r,,3,2,1,
0tt,RSVPtest,216,g,true,214,1,r,,1,1,2,
0tt,RSVPtest,217,g,false,396.5,2,g,,3,1,1,
0tt,RSVPtest,218,g,false,37.19999980926514,1,r,,1,1,2,
0tt,RSVPtest,219,g,false,3.700000047683716,2,g,,3,0,1,
0tt,RSVPtest,220,g,false,181.40000009536743,1,r,,2,2,2,
0tt,RSVPtest,221,g,true,543.1000001430511,1,r,,1,2,1,
0tt,RSVPtest,222,g,true,317.30000019073486,0,b,,3,3,0,
0tt,RSVPtest,223,g,true,407.2999999523163,0,b,,3,3,0,
0tt,RSVPtest,224,g,true,341.2000000476837,2,g,,1,2,1,
0tt,RSVPtest,225,g,false,36.09999990463257,1,r,,2,0,1,
0tt,RSVPtest,226,g,true,524.7000000476837,1,r,,1,0,1,
0tt,RSVPtest,227,g,true,246.20000004768372,2,g,,3,2,1,
0tt,RSVPtest,228,g,false,461.90000009536743,0,b,,1,3,0,
0tt,RSVPtest,229,g,true,491,0,b,,3,3,0,
0tt,RSVPtest,230,g,null,null,1,r,,3,0,1,
0tt,RSVPtest,231,g,true,336.2000000476837,1,r,,1,1,2,
0tt,RSVPtest,232,g,false,454,1,r,,0,0,2,
0tt,RSVPtest,233,g,false,266.7000000476837,1,r,,3,0,1,
0tt,RSVPtest,234,g,null,null,1,r,,2,2,2,
0tt,RSVPtest,235,g,true,350.7999999523163,0,b,,0,3,0,
0tt,RSVPtest,236,g,false,399.89999985694885,1,r,,3,0,1,
0tt,RSVPtest,237,g,false,61.799999952316284,0,b,,3,3,0,
0tt,RSVPtest,238,g,false,350.2000000476837,0,b,,0,3,0,
0tt,RSVPtest,239,g,false,271.59999990463257,1,r,,2,0,1,
0tt,RSVPtest,240,g,true,329.19999980926514,0,b,,0,3,0,
subID,trialType,trialNum,cntBalance,correct,rt,rwdType,tgtCol,tgtDir,tgtPos,colPos,colMatch,
lmc,VDACtrain,0,g,null,null,1,r,h,2,,,
lmc,VDACtrain,0,g,null,null,1,r,v,3,,,
lmc,VDACtrain,0,g,true,737.7000000476837,1,r,h,0,,,
lmc,VDACtrain,0,g,true,889.5,2,g,h,3,,,
lmc,VDACtrain,0,g,false,960.0999999046326,1,r,h,1,,,
lmc,VDACtrain,0,g,null,null,2,g,v,2,,,
lmc,VDACtrain,0,g,true,901.3999998569489,2,g,v,0,,,
lmc,VDACtrain,0,g,true,978.5,1,r,v,4,,,
lmc,VDACtrain,0,g,true,819.5999999046326,2,g,h,5,,,
lmc,VDACtrain,0,g,true,818.5,2,g,v,5,,,
lmc,VDACtest,1,g,null,null,1,r,v,2,,,
lmc,VDACtest,2,g,true,846.7999999523163,1,r,h,1,,,
lmc,VDACtest,3,g,true,706.4000000953674,2,g,h,3,,,
lmc,VDACtest,4,g,false,513.9000000953674,1,r,v,3,,,
lmc,VDACtest,5,g,true,611.7000000476837,2,g,v,0,,,
lmc,VDACtest,6,g,true,626.7000000476837,1,r,v,2,,,
lmc,VDACtest,7,g,true,642.0999999046326,2,g,h,3,,,
lmc,VDACtest,8,g,true,899.5,1,r,v,1,,,
lmc,VDACtest,9,g,false,831.7999999523163,1,r,h,2,,,
lmc,VDACtest,10,g,true,720.1999998092651,2,g,v,3,,,
lmc,VDACtest,11,g,true,739.3999998569489,1,r,h,0,,,
lmc,VDACtest,12,g,true,561.4000000953674,2,g,h,5,,,
lmc,VDACtest,13,g,true,667.5999999046326,2,g,v,0,,,
lmc,VDACtest,14,g,false,753.5999999046326,2,g,h,1,,,
lmc,VDACtest,15,g,true,929.2999999523163,2,g,v,4,,,
lmc,VDACtest,16,g,true,763.7000000476837,2,g,v,1,,,
lmc,VDACtest,17,g,true,643,2,g,v,4,,,
lmc,VDACtest,18,g,true,738.7000000476837,1,r,v,0,,,
lmc,VDACtest,19,g,true,539.2000000476837,1,r,h,1,,,
lmc,VDACtest,20,g,true,762.7000000476837,2,g,h,2,,,
lmc,VDACtest,21,g,true,641.7000000476837,2,g,v,1,,,
lmc,VDACtest,22,g,true,594.7000000476837,1,r,h,0,,,
lmc,VDACtest,23,g,true,932.0999999046326,2,g,h,5,,,
lmc,VDACtest,24,g,true,554.2000000476837,2,g,h,5,,,
lmc,VDACtest,25,g,true,777.1999998092651,2,g,v,2,,,
lmc,VDACtest,26,g,false,795.3000001907349,1,r,h,2,,,
lmc,VDACtest,27,g,true,696.2000000476837,1,r,v,4,,,
lmc,VDACtest,28,g,true,649.7999999523163,2,g,h,2,,,
lmc,VDACtest,29,g,true,832.2000000476837,2,g,h,4,,,
lmc,VDACtest,30,g,true,825,1,r,v,2,,,
lmc,VDACtest,31,g,true,788.4000000953674,1,r,v,1,,,
lmc,VDACtest,32,g,true,651.3000001907349,1,r,v,5,,,
lmc,VDACtest,33,g,true,755.5,2,g,v,2,,,
lmc,VDACtest,34,g,true,810.9000000953674,2,g,h,2,,,
lmc,VDACtest,35,g,true,650.2999999523163,2,g,v,0,,,
lmc,VDACtest,36,g,true,691.3999998569489,1,r,v,1,,,
lmc,VDACtest,37,g,null,null,2,g,v,5,,,
lmc,VDACtest,38,g,null,null,1,r,h,3,,,
lmc,VDACtest,39,g,true,613.3000001907349,1,r,h,1,,,
lmc,VDACtest,40,g,true,571.7000000476837,1,r,v,4,,,
lmc,VDACtest,41,g,true,788.0999999046326,1,r,h,2,,,
lmc,VDACtest,42,g,true,576.8999998569489,2,g,v,5,,,
lmc,VDACtest,43,g,true,530.7999999523163,1,r,h,4,,,
lmc,VDACtest,44,g,true,635.9000000953674,2,g,v,5,,,
lmc,VDACtest,45,g,true,640.3999998569489,2,g,v,1,,,
lmc,VDACtest,46,g,true,667,1,r,v,3,,,
lmc,VDACtest,47,g,true,475.10000014305115,1,r,h,4,,,
lmc,VDACtest,48,g,true,769.5,2,g,h,1,,,
lmc,VDACtest,49,g,true,801.8999998569489,1,r,v,2,,,
lmc,VDACtest,50,g,true,842.7999999523163,2,g,v,3,,,
brk,brk,brk,brk,brk,brk,brk,brk,brk,brk,brk,brk,
lmc,VDACtest,51,g,null,null,2,g,v,5,,,
lmc,VDACtest,52,g,true,651.0999999046326,2,g,v,0,,,
lmc,VDACtest,53,g,true,706.0999999046326,2,g,h,1,,,
lmc,VDACtest,54,g,true,546.2999999523163,2,g,h,4,,,
lmc,VDACtest,55,g,true,779.4000000953674,2,g,v,3,,,
lmc,VDACtest,56,g,true,546.3999998569489,1,r,h,1,,,
lmc,VDACtest,57,g,true,658.3000001907349,2,g,h,0,,,
lmc,VDACtest,58,g,true,650.6000001430511,1,r,v,4,,,
lmc,VDACtest,59,g,true,754.1000001430511,1,r,h,3,,,
lmc,VDACtest,60,g,true,824.7000000476837,2,g,v,3,,,
lmc,VDACtest,61,g,true,600.1999998092651,1,r,v,5,,,
lmc,VDACtest,62,g,true,552.0999999046326,1,r,h,4,,,
lmc,VDACtest,63,g,true,576.9000000953674,1,r,v,5,,,
lmc,VDACtest,64,g,true,579.8999998569489,2,g,h,5,,,
lmc,VDACtest,65,g,true,793.3000001907349,1,r,h,3,,,
lmc,VDACtest,66,g,true,699.9000000953674,1,r,v,1,,,
lmc,VDACtest,67,g,true,848.2000000476837,2,g,v,0,,,
lmc,VDACtest,68,g,true,625,2,g,v,1,,,
lmc,VDACtest,69,g,true,722.7000000476837,1,r,h,0,,,
lmc,VDACtest,70,g,true,688.7000000476837,1,r,h,2,,,
lmc,VDACtest,71,g,true,865.8999998569489,2,g,v,4,,,
lmc,VDACtest,72,g,true,723.5999999046326,1,r,v,3,,,
lmc,VDACtest,73,g,true,626.9000000953674,1,r,v,4,,,
lmc,VDACtest,74,g,true,567.6999998092651,1,r,v,5,,,
lmc,VDACtest,75,g,true,745.8999998569489,1,r,v,0,,,
lmc,VDACtest,76,g,true,882.0999999046326,2,g,h,3,,,
lmc,VDACtest,77,g,true,746.3999998569489,2,g,v,3,,,
lmc,VDACtest,78,g,true,657.4000000953674,2,g,h,2,,,
lmc,VDACtest,79,g,true,617.8000001907349,2,g,h,1,,,
lmc,VDACtest,80,g,true,601.7999999523163,2,g,v,1,,,
lmc,VDACtest,81,g,true,664.9000000953674,2,g,v,2,,,
lmc,VDACtest,82,g,true,716.3999998569489,2,g,h,5,,,
lmc,VDACtest,83,g,true,673.5,1,r,v,3,,,
lmc,VDACtest,84,g,true,696.6000001430511,1,r,v,1,,,
lmc,VDACtest,85,g,true,783,1,r,v,3,,,
lmc,VDACtest,86,g,true,856.8999998569489,2,g,v,4,,,
lmc,VDACtest,87,g,true,594.7000000476837,1,r,h,0,,,
lmc,VDACtest,88,g,true,580.2999999523163,2,g,v,2,,,
lmc,VDACtest,89,g,true,705.2999999523163,2,g,h,3,,,
lmc,VDACtest,90,g,true,747.7999999523163,1,r,h,2,,,
lmc,VDACtest,91,g,true,866.5,2,g,h,4,,,
lmc,VDACtest,92,g,true,618.9000000953674,2,g,h,4,,,
lmc,VDACtest,93,g,true,884,2,g,h,2,,,
lmc,VDACtest,94,g,null,null,1,r,v,3,,,
lmc,VDACtest,95,g,true,668.7999999523163,1,r,h,4,,,
lmc,VDACtest,96,g,true,593.1999998092651,1,r,h,4,,,
lmc,VDACtest,97,g,true,834.7000000476837,2,g,h,1,,,
lmc,VDACtest,98,g,true,634.5999999046326,2,g,v,3,,,
lmc,VDACtest,99,g,true,731.2000000476837,1,r,h,1,,,
lmc,VDACtest,100,g,true,737.8000001907349,1,r,h,2,,,
brk,brk,brk,brk,brk,brk,brk,brk,brk,brk,brk,brk,
lmc,VDACtest,101,g,true,727.2999999523163,1,r,v,2,,,
lmc,VDACtest,102,g,true,776.2000000476837,2,g,h,1,,,
lmc,VDACtest,103,g,true,531,1,r,v,4,,,
lmc,VDACtest,104,g,true,787.4000000953674,2,g,v,5,,,
lmc,VDACtest,105,g,true,763.3999998569489,1,r,v,3,,,
lmc,VDACtest,106,g,true,530,1,r,v,5,,,
lmc,VDACtest,107,g,true,657.7000000476837,1,r,v,2,,,
lmc,VDACtest,108,g,true,491.09999990463257,2,g,h,2,,,
lmc,VDACtest,109,g,true,595.5,1,r,v,4,,,
lmc,VDACtest,110,g,true,490.90000009536743,1,r,h,5,,,
lmc,VDACtest,111,g,true,745.2999999523163,2,g,h,3,,,
lmc,VDACtest,112,g,true,731.8999998569489,1,r,v,1,,,
lmc,VDACtest,113,g,true,608.7000000476837,1,r,h,1,,,
lmc,VDACtest,114,g,true,620.5999999046326,1,r,v,4,,,
lmc,VDACtest,115,g,true,698.7999999523163,2,g,h,0,,,
lmc,VDACtest,116,g,true,611.1000001430511,1,r,v,0,,,
lmc,VDACtest,117,g,true,513.5999999046326,2,g,h,4,,,
lmc,VDACtest,118,g,true,627.7000000476837,1,r,h,3,,,
lmc,VDACtest,119,g,true,632.9000000953674,1,r,h,0,,,
lmc,VDACtest,120,g,true,602.5999999046326,2,g,v,4,,,
lmc,VDACtest,121,g,true,578.3000001907349,2,g,h,4,,,
lmc,VDACtest,122,g,true,474.39999985694885,1,r,h,4,,,
lmc,VDACtest,123,g,true,649.8999998569489,1,r,h,5,,,
lmc,VDACtest,124,g,true,547.7000000476837,1,r,v,0,,,
lmc,VDACtest,125,g,true,595.0999999046326,1,r,v,3,,,
lmc,VDACtest,126,g,true,650.7999999523163,2,g,v,1,,,
lmc,VDACtest,127,g,true,529.7000000476837,1,r,h,3,,,
lmc,VDACtest,128,g,true,682.2000000476837,2,g,h,5,,,
lmc,VDACtest,129,g,true,647.2999999523163,1,r,h,1,,,
lmc,VDACtest,130,g,true,619.7000000476837,2,g,v,1,,,
lmc,VDACtest,131,g,true,674.7000000476837,2,g,h,4,,,
lmc,VDACtest,132,g,true,897.4000000953674,2,g,v,2,,,
lmc,VDACtest,133,g,true,675,1,r,v,1,,,
lmc,VDACtest,134,g,true,658.9000000953674,1,r,h,4,,,
lmc,VDACtest,135,g,true,738.5,1,r,h,4,,,
lmc,VDACtest,136,g,true,707.3999998569489,1,r,v,4,,,
lmc,VDACtest,137,g,true,618.7000000476837,1,r,h,5,,,
lmc,VDACtest,138,g,true,593.5,1,r,h,3,,,
lmc,VDACtest,139,g,true,651,2,g,h,1,,,
lmc,VDACtest,140,g,true,603.0999999046326,1,r,h,1,,,
lmc,VDACtest,141,g,true,808.7000000476837,1,r,h,5,,,
lmc,VDACtest,142,g,true,601.7999999523163,1,r,v,4,,,
lmc,VDACtest,143,g,true,633.5999999046326,2,g,h,4,,,
lmc,VDACtest,144,g,true,552,2,g,v,5,,,
lmc,VDACtest,145,g,true,536.7000000476837,2,g,v,4,,,
lmc,VDACtest,146,g,true,738.9000000953674,1,r,v,2,,,
lmc,VDACtest,147,g,true,521.7999999523163,1,r,v,0,,,
lmc,VDACtest,148,g,true,665.8000001907349,2,g,v,4,,,
lmc,VDACtest,149,g,true,544.4000000953674,1,r,v,1,,,
lmc,VDACtest,150,g,true,583.7999999523163,1,r,h,1,,,
brk,brk,brk,brk,brk,brk,brk,brk,brk,brk,brk,brk,
lmc,VDACtest,151,g,true,828,2,g,h,3,,,
lmc,VDACtest,152,g,true,522,2,g,h,2,,,
lmc,VDACtest,153,g,false,522.5,2,g,v,3,,,
lmc,VDACtest,154,g,true,602.2000000476837,1,r,h,3,,,
lmc,VDACtest,155,g,true,690,1,r,v,5,,,
lmc,VDACtest,156,g,true,771,2,g,h,1,,,
lmc,VDACtest,157,g,true,809.5999999046326,2,g,h,5,,,
lmc,VDACtest,158,g,true,632.7000000476837,2,g,h,0,,,
lmc,VDACtest,159,g,true,674.2000000476837,2,g,v,4,,,
lmc,VDACtest,160,g,true,786.2000000476837,2,g,h,2,,,
lmc,VDACtest,161,g,true,545.8999998569489,1,r,v,1,,,
lmc,VDACtest,162,g,true,759.9000000953674,2,g,v,5,,,
lmc,VDACtest,163,g,true,879.9000000953674,2,g,h,1,,,
lmc,VDACtest,164,g,true,673.7000000476837,2,g,v,2,,,
lmc,VDACtest,165,g,true,617.1000001430511,2,g,v,0,,,
lmc,VDACtest,166,g,true,562.6999998092651,1,r,v,0,,,
lmc,VDACtest,167,g,true,591.3999998569489,1,r,h,3,,,
lmc,VDACtest,168,g,true,721.3000001907349,1,r,h,0,,,
lmc,VDACtest,169,g,true,562.5,1,r,v,0,,,
lmc,VDACtest,170,g,true,658.1000001430511,2,g,h,3,,,
lmc,VDACtest,171,g,true,721.6999998092651,2,g,h,0,,,
lmc,VDACtest,172,g,true,627.6000001430511,2,g,v,3,,,
lmc,VDACtest,173,g,true,961.2999999523163,1,r,h,5,,,
lmc,VDACtest,174,g,true,681.3999998569489,1,r,h,2,,,
lmc,VDACtest,175,g,true,667.6000001430511,2,g,h,0,,,
lmc,VDACtest,176,g,true,609,2,g,h,0,,,
lmc,VDACtest,177,g,true,666.5999999046326,1,r,h,4,,,
lmc,VDACtest,178,g,true,515,2,g,v,0,,,
lmc,VDACtest,179,g,true,761.2999999523163,2,g,h,0,,,
lmc,VDACtest,180,g,true,641.4000000953674,2,g,v,2,,,
lmc,VDACtest,181,g,true,633.4000000953674,2,g,v,4,,,
lmc,VDACtest,182,g,true,544.2999999523163,2,g,h,3,,,
lmc,VDACtest,183,g,true,760.4000000953674,2,g,v,5,,,
lmc,VDACtest,184,g,true,607.1999998092651,2,g,v,1,,,
lmc,VDACtest,185,g,true,728.5,1,r,h,5,,,
lmc,VDACtest,186,g,true,609.6000001430511,1,r,h,2,,,
lmc,VDACtest,187,g,true,649.2000000476837,1,r,v,5,,,
lmc,VDACtest,188,g,true,593.5,1,r,v,5,,,
lmc,VDACtest,189,g,true,769.7000000476837,2,g,v,1,,,
lmc,VDACtest,190,g,true,721.7999999523163,2,g,h,0,,,
lmc,VDACtest,191,g,true,610,2,g,h,5,,,
lmc,VDACtest,192,g,true,539,1,r,h,5,,,
lmc,VDACtest,193,g,true,689.2000000476837,2,g,v,2,,,
lmc,VDACtest,194,g,true,567.5,1,r,h,0,,,
lmc,VDACtest,195,g,true,769.2000000476837,2,g,v,0,,,
lmc,VDACtest,196,g,true,840.2999999523163,2,g,h,4,,,
lmc,VDACtest,197,g,true,610.2999999523163,1,r,v,2,,,
lmc,VDACtest,198,g,true,584.8999998569489,1,r,h,5,,,
lmc,VDACtest,199,g,true,768.5,1,r,v,0,,,
lmc,VDACtest,200,g,true,529.4000000953674,1,r,h,0,,,
lmc,RSVPtrain,0,g,null,null,2,g,,3,1,1,
lmc,RSVPtrain,0,g,false,1665.5,1,r,,3,2,1,
lmc,RSVPtrain,0,g,true,1474.3000001907349,2,g,,1,0,1,
lmc,RSVPtrain,0,g,true,1292.9000000953674,0,b,,3,3,0,
lmc,RSVPtrain,0,g,true,1010.2999999523163,2,g,,2,2,2,
lmc,RSVPtrain,0,g,false,1547.6000001430511,1,r,,0,0,2,
lmc,RSVPtrain,0,g,true,1106.7000000476837,0,b,,1,3,0,
lmc,RSVPtrain,0,g,true,1037.0999999046326,0,b,,0,3,0,
lmc,RSVPtrain,0,g,true,909.0999999046326,1,r,,1,1,2,
lmc,RSVPtrain,0,g,true,805.7999999523163,2,g,,3,0,1,
lmc,RSVPtest,1,g,true,1214.3999998569489,2,g,,3,0,1,
lmc,RSVPtest,2,g,true,1605,0,b,,3,3,0,
lmc,RSVPtest,3,g,true,756.5,1,r,,1,0,1,
lmc,RSVPtest,4,g,false,1133.9000000953674,0,b,,3,3,0,
lmc,RSVPtest,5,g,true,1607.0999999046326,0,b,,3,3,0,
lmc,RSVPtest,6,g,true,779,2,g,,2,2,2,
lmc,RSVPtest,7,g,true,1061.5,2,g,,1,2,1,
lmc,RSVPtest,8,g,true,1061,1,r,,1,1,2,
lmc,RSVPtest,9,g,false,986.9000000953674,1,r,,3,2,1,
lmc,RSVPtest,10,g,true,844.2999999523163,2,g,,1,2,1,
lmc,RSVPtest,11,g,true,717.2000000476837,0,b,,3,3,0,
lmc,RSVPtest,12,g,true,867.2000000476837,0,b,,0,3,0,
lmc,RSVPtest,13,g,true,796.2999999523163,2,g,,0,2,1,
lmc,RSVPtest,14,g,true,1309.5,0,b,,3,3,0,
lmc,RSVPtest,15,g,true,836.5,2,g,,2,1,1,
lmc,RSVPtest,16,g,true,1395.5,1,r,,2,0,1,
lmc,RSVPtest,17,g,false,1118.2000000476837,2,g,,0,2,1,
lmc,RSVPtest,18,g,false,1043.5999999046326,1,r,,3,2,1,
lmc,RSVPtest,19,g,true,788.2000000476837,2,g,,1,0,1,
lmc,RSVPtest,20,g,true,1451.0999999046326,1,r,,2,0,1,
lmc,RSVPtest,21,g,true,850.5999999046326,1,r,,3,0,1,
lmc,RSVPtest,22,g,true,1172,0,b,,3,3,0,
lmc,RSVPtest,23,g,true,700.4000000953674,2,g,,3,0,1,
lmc,RSVPtest,24,g,true,866.5,2,g,,2,0,1,
lmc,RSVPtest,25,g,true,690.5,0,b,,3,3,0,
lmc,RSVPtest,26,g,true,883.1999998092651,2,g,,2,1,1,
lmc,RSVPtest,27,g,true,858.5999999046326,1,r,,2,1,1,
lmc,RSVPtest,28,g,true,843.7999999523163,2,g,,1,1,2,
lmc,RSVPtest,29,g,true,796.6000001430511,0,b,,2,3,0,
lmc,RSVPtest,30,g,false,787.1000001430511,0,b,,1,3,0,
lmc,RSVPtest,31,g,false,1187.5,2,g,,0,1,1,
lmc,RSVPtest,32,g,true,836.3000001907349,0,b,,0,3,0,
lmc,RSVPtest,33,g,true,684.7000000476837,2,g,,3,1,1,
lmc,RSVPtest,34,g,true,1348,0,b,,2,3,0,
lmc,RSVPtest,35,g,true,1227.1999998092651,1,r,,1,0,1,
lmc,RSVPtest,36,g,false,1066.5,2,g,,2,0,1,
lmc,RSVPtest,37,g,true,691.7999999523163,2,g,,1,0,1,
lmc,RSVPtest,38,g,true,938.2999999523163,1,r,,3,2,1,
lmc,RSVPtest,39,g,true,771.7999999523163,1,r,,3,0,1,
lmc,RSVPtest,40,g,true,970.6000001430511,1,r,,3,1,1,
lmc,RSVPtest,41,g,true,770.9000000953674,1,r,,2,2,2,
lmc,RSVPtest,42,g,true,1102.5,0,b,,2,3,0,
lmc,RSVPtest,43,g,true,859.0999999046326,2,g,,0,1,1,
lmc,RSVPtest,44,g,true,747,0,b,,3,3,0,
lmc,RSVPtest,45,g,true,760.7999999523163,1,r,,3,2,1,
lmc,RSVPtest,46,g,true,721.2000000476837,2,g,,1,2,1,
lmc,RSVPtest,47,g,false,704.9000000953674,1,r,,3,2,1,
lmc,RSVPtest,48,g,true,827.3999998569489,1,r,,1,2,1,
lmc,RSVPtest,49,g,false,1025.0999999046326,0,b,,1,3,0,
lmc,RSVPtest,50,g,true,735.4000000953674,0,b,,3,3,0,
lmc,RSVPtest,51,g,true,934.2999999523163,2,g,,3,0,1,
lmc,RSVPtest,52,g,false,757.0999999046326,1,r,,0,0,2,
lmc,RSVPtest,53,g,true,963.0999999046326,1,r,,2,1,1,
lmc,RSVPtest,54,g,true,1585,2,g,,3,1,1,
lmc,RSVPtest,55,g,true,1502.3999998569489,0,b,,2,3,0,
lmc,RSVPtest,56,g,true,1034.3999998569489,1,r,,3,2,1,
lmc,RSVPtest,57,g,true,1157.1999998092651,0,b,,3,3,0,
lmc,RSVPtest,58,g,true,971.0999999046326,1,r,,3,2,1,
lmc,RSVPtest,59,g,true,819,2,g,,1,0,1,
lmc,RSVPtest,60,g,false,1804.4000000953674,2,g,,3,0,1,
brk,brk,brk,brk,brk,brk,brk,brk,brk,brk,brk,brk,
lmc,RSVPtest,61,g,true,1210.3999998569489,0,b,,0,3,0,
lmc,RSVPtest,62,g,null,null,0,b,,2,3,0,
lmc,RSVPtest,63,g,true,666.2000000476837,2,g,,2,2,2,
lmc,RSVPtest,64,g,true,940.7999999523163,2,g,,3,1,1,
lmc,RSVPtest,65,g,true,1419.7999999523163,0,b,,3,3,0,
lmc,RSVPtest,66,g,true,1324,0,b,,3,3,0,
lmc,RSVPtest,67,g,true,740.7000000476837,2,g,,2,1,1,
lmc,RSVPtest,68,g,true,914.2999999523163,1,r,,1,0,1,
lmc,RSVPtest,69,g,true,738.7000000476837,2,g,,2,2,2,
lmc,RSVPtest,70,g,true,874.5999999046326,0,b,,2,3,0,
lmc,RSVPtest,71,g,false,746.7999999523163,2,g,,3,2,1,
lmc,RSVPtest,72,g,true,772.6000001430511,1,r,,0,1,1,
lmc,RSVPtest,73,g,true,715.6000001430511,0,b,,3,3,0,
lmc,RSVPtest,74,g,true,714.1000001430511,2,g,,0,0,2,
lmc,RSVPtest,75,g,false,748.2999999523163,0,b,,3,3,0,
lmc,RSVPtest,76,g,true,979.9000000953674,1,r,,3,0,1,
lmc,RSVPtest,77,g,true,748.4000000953674,0,b,,3,3,0,
lmc,RSVPtest,78,g,true,747.7000000476837,1,r,,0,0,2,
lmc,RSVPtest,79,g,true,1468.3999998569489,0,b,,3,3,0,
lmc,RSVPtest,80,g,true,747.2000000476837,0,b,,1,3,0,
lmc,RSVPtest,81,g,true,1100.2999999523163,2,g,,1,0,1,
lmc,RSVPtest,82,g,false,819.7000000476837,2,g,,0,1,1,
lmc,RSVPtest,83,g,true,964.2999999523163,2,g,,0,1,1,
lmc,RSVPtest,84,g,true,1289.6999998092651,0,b,,1,3,0,
lmc,RSVPtest,85,g,true,915.5,1,r,,1,1,2,
lmc,RSVPtest,86,g,true,816.2999999523163,0,b,,2,3,0,
lmc,RSVPtest,87,g,false,1026.9000000953674,0,b,,0,3,0,
lmc,RSVPtest,88,g,false,977.8999998569489,2,g,,3,1,1,
lmc,RSVPtest,89,g,true,972.2999999523163,1,r,,2,0,1,
lmc,RSVPtest,90,g,true,759.2999999523163,1,r,,0,2,1,
lmc,RSVPtest,91,g,true,713.8999998569489,1,r,,1,2,1,
lmc,RSVPtest,92,g,true,840.1000001430511,1,r,,2,0,1,
lmc,RSVPtest,93,g,true,778.2999999523163,2,g,,3,2,1,
lmc,RSVPtest,94,g,true,1170.6999998092651,1,r,,2,2,2,
lmc,RSVPtest,95,g,true,1181.6999998092651,2,g,,3,0,1,
lmc,RSVPtest,96,g,true,631.0999999046326,1,r,,1,1,2,
lmc,RSVPtest,97,g,true,858.9000000953674,2,g,,3,0,1,
lmc,RSVPtest,98,g,true,1472.3999998569489,2,g,,3,1,1,
lmc,RSVPtest,99,g,true,1490,2,g,,0,0,2,
lmc,RSVPtest,100,g,true,746.9000000953674,2,g,,1,2,1,
lmc,RSVPtest,101,g,true,1389.0999999046326,1,r,,2,2,2,
lmc,RSVPtest,102,g,true,730.7999999523163,2,g,,3,2,1,
lmc,RSVPtest,103,g,true,737.5999999046326,1,r,,3,1,1,
lmc,RSVPtest,104,g,true,665.1999998092651,2,g,,3,2,1,
lmc,RSVPtest,105,g,true,761,0,b,,3,3,0,
lmc,RSVPtest,106,g,true,1306.8999998569489,2,g,,3,1,1,
lmc,RSVPtest,107,g,true,625.2000000476837,2,g,,3,1,1,
lmc,RSVPtest,108,g,false,1658.2000000476837,2,g,,3,2,1,
lmc,RSVPtest,109,g,true,1051.7000000476837,1,r,,1,1,2,
lmc,RSVPtest,110,g,true,841.2000000476837,1,r,,3,0,1,
lmc,RSVPtest,111,g,true,792.1000001430511,2,g,,1,1,2,
lmc,RSVPtest,112,g,true,1242.1000001430511,1,r,,1,2,1,
lmc,RSVPtest,113,g,true,893.7000000476837,1,r,,3,1,1,
lmc,RSVPtest,114,g,true,890.2000000476837,1,r,,0,1,1,
lmc,RSVPtest,115,g,true,809,2,g,,2,1,1,
lmc,RSVPtest,116,g,true,1086.1000001430511,1,r,,2,1,1,
lmc,RSVPtest,117,g,true,923.4000000953674,0,b,,3,3,0,
lmc,RSVPtest,118,g,true,920.6000001430511,1,r,,0,2,1,
lmc,RSVPtest,119,g,true,779.7000000476837,1,r,,2,0,1,
lmc,RSVPtest,120,g,false,1432.7999999523163,2,g,,1,0,1,
brk,brk,brk,brk,brk,brk,brk,brk,brk,brk,brk,brk,
lmc,RSVPtest,121,g,false,1425,0,b,,3,3,0,
lmc,RSVPtest,122,g,true,1081.3999998569489,2,g,,2,0,1,
lmc,RSVPtest,123,g,true,1015.7000000476837,2,g,,2,2,2,
lmc,RSVPtest,124,g,true,1033.7999999523163,0,b,,1,3,0,
lmc,RSVPtest,125,g,true,1056.2999999523163,0,b,,0,3,0,
lmc,RSVPtest,126,g,true,1223.5,2,g,,2,0,1,
lmc,RSVPtest,127,g,true,1003.2000000476837,0,b,,2,3,0,
lmc,RSVPtest,128,g,false,2279.5999999046326,1,r,,2,2,2,
lmc,RSVPtest,129,g,true,1410.5,1,r,,3,0,1,
lmc,RSVPtest,130,g,true,1106.2999999523163,2,g,,0,0,2,
lmc,RSVPtest,131,g,true,1051.2999999523163,0,b,,0,3,0,
lmc,RSVPtest,132,g,true,1770.1999998092651,2,g,,3,1,1,
lmc,RSVPtest,133,g,true,1248.5999999046326,0,b,,2,3,0,
lmc,RSVPtest,134,g,true,1664.0999999046326,1,r,,2,1,1,
lmc,RSVPtest,135,g,true,1436,1,r,,3,0,1,
lmc,RSVPtest,136,g,true,1505.6999998092651,2,g,,3,2,1,
lmc,RSVPtest,137,g,true,1636.2999999523163,2,g,,0,2,1,
lmc,RSVPtest,138,g,true,899.7000000476837,1,r,,3,2,1,
lmc,RSVPtest,139,g,true,1339.6000001430511,1,r,,3,1,1,
lmc,RSVPtest,140,g,true,1344.3999998569489,2,g,,3,0,1,
lmc,RSVPtest,141,g,true,1707.2000000476837,2,g,,3,2,1,
lmc,RSVPtest,142,g,true,1681.7000000476837,2,g,,1,1,2,
lmc,RSVPtest,143,g,true,1264.2000000476837,2,g,,3,1,1,
lmc,RSVPtest,144,g,true,993.1000001430511,1,r,,0,2,1,
lmc,RSVPtest,145,g,true,1913.3000001907349,1,r,,3,1,1,
lmc,RSVPtest,146,g,true,1346,1,r,,0,1,1,
lmc,RSVPtest,147,g,true,1966.2000000476837,2,g,,2,0,1,
lmc,RSVPtest,148,g,true,1035.2999999523163,0,b,,1,3,0,
lmc,RSVPtest,149,g,true,1138,1,r,,3,0,1,
lmc,RSVPtest,150,g,false,1799.2000000476837,1,r,,3,0,1,
lmc,RSVPtest,151,g,true,1067.6000001430511,0,b,,0,3,0,
lmc,RSVPtest,152,g,true,1625.3000001907349,2,g,,0,1,1,
lmc,RSVPtest,153,g,true,2120.0999999046326,2,g,,2,1,1,
lmc,RSVPtest,154,g,true,872.8999998569489,0,b,,1,3,0,
lmc,RSVPtest,155,g,true,939.4000000953674,2,g,,0,0,2,
lmc,RSVPtest,156,g,true,1375.7999999523163,0,b,,1,3,0,
lmc,RSVPtest,157,g,false,1388.5,1,r,,3,1,1,
lmc,RSVPtest,158,g,true,818.5,1,r,,1,2,1,
lmc,RSVPtest,159,g,false,890.7999999523163,2,g,,3,2,1,
lmc,RSVPtest,160,g,true,867.0999999046326,2,g,,1,2,1,
lmc,RSVPtest,161,g,true,1026.4000000953674,1,r,,3,0,1,
lmc,RSVPtest,162,g,true,1346.5999999046326,1,r,,3,1,1,
lmc,RSVPtest,163,g,true,1265.7999999523163,1,r,,3,2,1,
lmc,RSVPtest,164,g,true,1216.7000000476837,1,r,,0,2,1,
lmc,RSVPtest,165,g,true,896.8999998569489,2,g,,3,0,1,
lmc,RSVPtest,166,g,true,1060.7999999523163,2,g,,1,1,2,
lmc,RSVPtest,167,g,true,956,2,g,,1,1,2,
lmc,RSVPtest,168,g,false,1232.7000000476837,1,r,,0,2,1,
lmc,RSVPtest,169,g,true,2016.5999999046326,2,g,,0,1,1,
lmc,RSVPtest,170,g,true,1695.8999998569489,2,g,,0,0,2,
lmc,RSVPtest,171,g,true,884.9000000953674,1,r,,0,0,2,
lmc,RSVPtest,172,g,true,872.3999998569489,1,r,,1,2,1,
lmc,RSVPtest,173,g,true,842.2999999523163,1,r,,3,1,1,
lmc,RSVPtest,174,g,true,826.6000001430511,0,b,,3,3,0,
lmc,RSVPtest,175,g,true,1018.0999999046326,1,r,,2,0,1,
lmc,RSVPtest,176,g,true,1562.6000001430511,2,g,,3,0,1,
lmc,RSVPtest,177,g,true,564.1000001430511,2,g,,1,2,1,
lmc,RSVPtest,178,g,true,1031.7999999523163,2,g,,0,2,1,
lmc,RSVPtest,179,g,false,1648.2000000476837,2,g,,0,2,1,
lmc,RSVPtest,180,g,true,1090.2999999523163,2,g,,0,0,2,
brk,brk,brk,brk,brk,brk,brk,brk,brk,brk,brk,brk,
lmc,RSVPtest,181,g,false,1194.6999998092651,0,b,,3,3,0,
lmc,RSVPtest,182,g,true,1233.5,2,g,,3,1,1,
lmc,RSVPtest,183,g,true,1792.5999999046326,1,r,,3,2,1,
lmc,RSVPtest,184,g,true,1458.2999999523163,1,r,,2,1,1,
lmc,RSVPtest,185,g,true,1242,2,g,,2,2,2,
lmc,RSVPtest,186,g,true,1155.0999999046326,0,b,,3,3,0,
lmc,RSVPtest,187,g,true,1304.3999998569489,0,b,,2,3,0,
lmc,RSVPtest,188,g,true,1152.5,0,b,,1,3,0,
lmc,RSVPtest,189,g,true,1257,0,b,,3,3,0,
lmc,RSVPtest,190,g,true,1017.2999999523163,1,r,,2,2,2,
lmc,RSVPtest,191,g,true,961.1000001430511,1,r,,0,0,2,
lmc,RSVPtest,192,g,false,1392.3000001907349,2,g,,2,0,1,
lmc,RSVPtest,193,g,true,1048.9000000953674,0,b,,0,3,0,
lmc,RSVPtest,194,g,true,1192,1,r,,1,0,1,
lmc,RSVPtest,195,g,true,889.0999999046326,1,r,,0,0,2,
lmc,RSVPtest,196,g,true,1096.7000000476837,2,g,,3,1,1,
lmc,RSVPtest,197,g,true,1697.2999999523163,0,b,,2,3,0,
lmc,RSVPtest,198,g,false,1895.7999999523163,2,g,,3,2,1,
lmc,RSVPtest,199,g,true,1008,0,b,,1,3,0,
lmc,RSVPtest,200,g,true,1530.0999999046326,1,r,,0,2,1,
lmc,RSVPtest,201,g,true,1317.9000000953674,2,g,,3,0,1,
lmc,RSVPtest,202,g,false,1551.0999999046326,0,b,,2,3,0,
lmc,RSVPtest,203,g,true,1418.2999999523163,1,r,,1,0,1,
lmc,RSVPtest,204,g,true,2016.5,1,r,,2,1,1,
lmc,RSVPtest,205,g,true,1175.0999999046326,2,g,,3,0,1,
lmc,RSVPtest,206,g,false,1462.6000001430511,1,r,,3,0,1,
lmc,RSVPtest,207,g,true,1400.9000000953674,0,b,,0,3,0,
lmc,RSVPtest,208,g,true,993.5999999046326,1,r,,0,0,2,
lmc,RSVPtest,209,g,true,1926.2999999523163,1,r,,3,0,1,
lmc,RSVPtest,210,g,true,1192.5999999046326,2,g,,3,2,1,
lmc,RSVPtest,211,g,true,1134.0999999046326,0,b,,1,3,0,
lmc,RSVPtest,212,g,true,1377.9000000953674,1,r,,1,1,2,
lmc,RSVPtest,213,g,true,1361.7999999523163,2,g,,2,2,2,
lmc,RSVPtest,214,g,true,1738.9000000953674,2,g,,2,1,1,
lmc,RSVPtest,215,g,true,2353.5,1,r,,0,1,1,
lmc,RSVPtest,216,g,true,1193.5999999046326,1,r,,3,1,1,
lmc,RSVPtest,217,g,true,1033.8000001907349,2,g,,3,1,1,
lmc,RSVPtest,218,g,true,1273.2000000476837,2,g,,3,0,1,
lmc,RSVPtest,219,g,true,1121.7999999523163,2,g,,0,2,1,
lmc,RSVPtest,220,g,true,1183.7999999523163,0,b,,0,3,0,
lmc,RSVPtest,221,g,true,1230.7999999523163,0,b,,3,3,0,
lmc,RSVPtest,222,g,true,1208.0999999046326,2,g,,1,0,1,
lmc,RSVPtest,223,g,true,1495.1999998092651,1,r,,0,1,1,
lmc,RSVPtest,224,g,true,1801.2999999523163,0,b,,0,3,0,
lmc,RSVPtest,225,g,true,1124.6999998092651,1,r,,3,0,1,
lmc,RSVPtest,226,g,true,2055.7999999523163,1,r,,1,0,1,
lmc,RSVPtest,227,g,true,1247.7999999523163,1,r,,3,1,1,
lmc,RSVPtest,228,g,null,null,1,r,,3,2,1,
lmc,RSVPtest,229,g,false,1662.7999999523163,1,r,,3,1,1,
lmc,RSVPtest,230,g,true,950.4000000953674,2,g,,1,1,2,
lmc,RSVPtest,231,g,true,1413.4000000953674,2,g,,3,2,1,
lmc,RSVPtest,232,g,false,1318.6000001430511,1,r,,1,1,2,
lmc,RSVPtest,233,g,true,1506.3999998569489,1,r,,3,1,1,
lmc,RSVPtest,234,g,true,1984.7999999523163,1,r,,0,1,1,
lmc,RSVPtest,235,g,true,1048,0,b,,0,3,0,
lmc,RSVPtest,236,g,false,2366.399999856949,2,g,,3,2,1,
lmc,RSVPtest,237,g,true,1208.5,1,r,,1,2,1,
lmc,RSVPtest,238,g,true,942.5999999046326,0,b,,1,3,0,
lmc,RSVPtest,239,g,true,736,1,r,,2,2,2,
lmc,RSVPtest,240,g,true,886.9000000953674,1,r,,3,2,1,
subID,trialType,trialNum,cntBalance,correct,rt,rwdType,tgtCol,tgtDir,tgtPos,colPos,colMatch,
rp9,VDACtrain,0,g,null,null,1,r,v,4,,,
rp9,VDACtrain,0,g,null,null,2,g,h,5,,,
rp9,VDACtrain,0,g,true,614.8000000119209,1,r,h,0,,,
rp9,VDACtrain,0,g,true,627.5,1,r,v,3,,,
rp9,VDACtrain,0,g,null,null,1,r,h,2,,,
rp9,VDACtrain,0,g,true,694,2,g,v,5,,,
rp9,VDACtrain,0,g,false,699.1999999880791,1,r,h,1,,,
rp9,VDACtrain,0,g,true,924.8000000119209,2,g,v,0,,,
rp9,VDACtrain,0,g,false,875.8000000119209,2,g,v,2,,,
rp9,VDACtrain,0,g,true,723.6000000238419,2,g,h,3,,,
rp9,VDACtrain,0,g,true,676.8999999761581,1,r,v,4,,,
rp9,VDACtrain,0,g,true,795,2,g,v,2,,,
rp9,VDACtrain,0,g,true,546.5,2,g,v,0,,,
rp9,VDACtrain,0,g,true,635,1,r,h,1,,,
rp9,VDACtrain,0,g,false,658.5,2,g,h,5,,,
rp9,VDACtrain,0,g,false,731.3999999761581,1,r,h,2,,,
rp9,VDACtrain,0,g,null,null,1,r,h,0,,,
rp9,VDACtrain,0,g,true,700.6000000238419,1,r,v,3,,,
rp9,VDACtrain,0,g,true,862.0999999642372,2,g,h,3,,,
rp9,VDACtrain,0,g,true,563.6999999880791,2,g,v,5,,,
rp9,VDACtest,1,g,true,623.0999999642372,2,g,v,5,,,
rp9,VDACtest,2,g,true,602.8000000119209,2,g,v,2,,,
rp9,VDACtest,3,g,true,745.8000000119209,2,g,v,1,,,
rp9,VDACtest,4,g,true,449.30000001192093,2,g,v,2,,,
rp9,VDACtest,5,g,true,468.89999997615814,2,g,v,5,,,
rp9,VDACtest,6,g,true,611.3000000119209,2,g,h,2,,,
rp9,VDACtest,7,g,true,619,2,g,v,4,,,
rp9,VDACtest,8,g,false,563.5,2,g,h,1,,,
rp9,VDACtest,9,g,false,555.1999999880791,1,r,h,5,,,
rp9,VDACtest,10,g,true,809.6999999880791,2,g,h,1,,,
rp9,VDACtest,11,g,true,739.1000000238419,1,r,v,5,,,
rp9,VDACtest,12,g,null,null,1,r,v,0,,,
rp9,VDACtest,13,g,true,806.1999999880791,2,g,h,4,,,
rp9,VDACtest,14,g,true,659.1999999880791,1,r,v,4,,,
rp9,VDACtest,15,g,true,627.0999999642372,2,g,v,3,,,
rp9,VDACtest,16,g,true,634.3000000119209,1,r,v,3,,,
rp9,VDACtest,17,g,true,497.5999999642372,2,g,v,0,,,
rp9,VDACtest,18,g,true,513.6999999880791,1,r,v,4,,,
rp9,VDACtest,19,g,true,562.1000000238419,1,r,v,0,,,
rp9,VDACtest,20,g,true,634.3000000119209,1,r,h,3,,,
rp9,VDACtest,21,g,true,729.6999999880791,2,g,h,3,,,
rp9,VDACtest,22,g,true,747.8999999761581,1,r,h,2,,,
rp9,VDACtest,23,g,true,411.39999997615814,2,g,v,4,,,
rp9,VDACtest,24,g,true,451.5,2,g,h,3,,,
rp9,VDACtest,25,g,false,426.60000002384186,2,g,v,3,,,
rp9,VDACtest,26,g,true,571.6999999880791,2,g,v,0,,,
rp9,VDACtest,27,g,false,699.1999999880791,1,r,v,1,,,
rp9,VDACtest,28,g,true,756.2999999523163,2,g,h,3,,,
rp9,VDACtest,29,g,false,715.1000000238419,2,g,h,0,,,
rp9,VDACtest,30,g,false,682.6999999880791,2,g,h,5,,,
rp9,VDACtest,31,g,false,499.19999998807907,1,r,v,3,,,
rp9,VDACtest,32,g,true,473.69999998807907,1,r,v,3,,,
rp9,VDACtest,33,g,true,553.5,2,g,h,0,,,
rp9,VDACtest,34,g,true,579.5,2,g,v,3,,,
rp9,VDACtest,35,g,true,442.19999998807907,2,g,h,2,,,
rp9,VDACtest,36,g,true,673.8000000119209,1,r,v,5,,,
rp9,VDACtest,37,g,true,467.80000001192093,2,g,v,1,,,
rp9,VDACtest,38,g,false,448.89999997615814,1,r,v,1,,,
rp9,VDACtest,39,g,false,786.8999999761581,2,g,h,4,,,
rp9,VDACtest,40,g,false,619.6999999880791,1,r,h,3,,,
rp9,VDACtest,41,g,true,666.5999999642372,2,g,h,5,,,
rp9,VDACtest,42,g,true,610.6000000238419,1,r,h,3,,,
rp9,VDACtest,43,g,true,883.6999999880791,2,g,h,1,,,
rp9,VDACtest,44,g,true,649.1000000238419,1,r,h,5,,,
rp9,VDACtest,45,g,true,649.2999999523163,1,r,v,1,,,
rp9,VDACtest,46,g,false,571,1,r,h,2,,,
rp9,VDACtest,47,g,false,674.6000000238419,1,r,v,0,,,
rp9,VDACtest,48,g,true,891.5,1,r,h,3,,,
rp9,VDACtest,49,g,true,762.7999999523163,1,r,h,0,,,
rp9,VDACtest,50,g,true,603.6999999880791,2,g,v,4,,,
