SubNum,SubNum_demo,Exp_start_time,Exp_today_date,Exp_today_time,TrialNum,Condition,Face,Name,Response,NameAcc,RespTime,StudyTrialNum,StudyFace,StudyContext,StudyFamCond,TestTrialNum,TestFace,TestContext,TestSDCond,TestFamCond,TestResponse,TestResponseTime,Exp_end_time,Distractor_1_duration,Distractor_2_duration,
c4q9mv9ags,crlyh1p8m0,Mon Oct 19 2020 23:43:49 GMT-0500 (Central Daylight Time),2020-10-19,23:43:49,1,Familiar,25,NA,NA,NA,NA,1,28,8,0,1,24,31,0,2,0,5270.669999998063,0:10:12,120022.3699999624,60046.09499999788,
c4q9mv9ags,undefined,undefined,undefined,undefined,2,Know,35,ASHLEY,ASHLEY,true,5534.875000012107,2,21,12,2,2,15,19,1,2,1,2743.979999970179,undefined,undefined,undefined,
c4q9mv9ags,undefined,undefined,undefined,undefined,3,Familiar,27,NA,NA,NA,NA,3,20,33,0,3,34,34,0,1,0,1730.3350000292994,undefined,undefined,undefined,
c4q9mv9ags,undefined,undefined,undefined,undefined,4,Know,34,MARY,MARY,true,17510.725000000093,4,14,22,0,4,2,20,1,2,1,1943.7950000283308,undefined,undefined,undefined,
c4q9mv9ags,undefined,undefined,undefined,undefined,5,Know,7,CHLOE,CHLOE,true,5138.015000033192,5,24,31,2,5,26,36,0,2,0,2403.310000023339,undefined,undefined,undefined,
c4q9mv9ags,undefined,undefined,undefined,undefined,6,Familiar,30,NA,NA,NA,NA,6,10,25,1,6,21,12,0,2,0,6235.5099999695085,undefined,undefined,undefined,
c4q9mv9ags,undefined,undefined,undefined,undefined,7,Know,5,JESSICA,JESSICA,true,7179.865000012796,7,9,1,1,7,17,5,0,2,0,2091.6650000144728,undefined,undefined,undefined,
c4q9mv9ags,undefined,undefined,undefined,undefined,8,Know,11,HAZEL,HAZEL,true,3407.1250000270084,8,22,16,2,8,13,24,1,2,0,4394.945000007283,undefined,undefined,undefined,
c4q9mv9ags,undefined,undefined,undefined,undefined,9,Familiar,28,NA,NA,NA,NA,9,35,23,1,9,12,15,1,1,1,1463.5800000396557,undefined,undefined,undefined,
c4q9mv9ags,undefined,undefined,undefined,undefined,10,Familiar,20,NA,NA,NA,NA,10,34,34,1,10,20,33,0,0,0,1279.25999998115,undefined,undefined,undefined,
c4q9mv9ags,undefined,undefined,undefined,undefined,11,Know,10,REBECCA,REBECCA,true,5356.809999968391,11,17,5,2,11,6,22,1,0,1,2033.159999991767,undefined,undefined,undefined,
c4q9mv9ags,undefined,undefined,undefined,undefined,12,Familiar,36,NA,NA,NA,NA,12,19,26,0,12,14,28,1,0,1,1903.0400000046939,undefined,undefined,undefined,
c4q9mv9ags,undefined,undefined,undefined,undefined,13,Familiar,19,NA,NA,NA,NA,13,3,18,2,13,4,4,1,0,1,1220.4349999665283,undefined,undefined,undefined,
c4q9mv9ags,undefined,undefined,undefined,undefined,14,Know,8,SOFIA,SOFIA,true,3958.0299999797717,14,18,4,0,14,18,35,1,0,1,1259.334999951534,undefined,undefined,undefined,
c4q9mv9ags,undefined,undefined,undefined,undefined,15,Know,9,JENNIFER,JENNIFER,true,6079.4300000416115,15,31,15,1,15,31,3,1,1,0,4285.710000025574,undefined,undefined,undefined,
c4q9mv9ags,undefined,undefined,undefined,undefined,16,Familiar,6,NA,NA,NA,NA,16,29,24,2,16,27,30,0,0,0,6895.550000015646,undefined,undefined,undefined,
c4q9mv9ags,undefined,undefined,undefined,undefined,17,Know,12,SARAH,SARAH,true,3216.7200000258163,17,2,19,2,17,35,23,0,1,0,4482.464999950025,undefined,undefined,undefined,
c4q9mv9ags,undefined,undefined,undefined,undefined,18,Know,31,BETTY,BETTY,true,3322.595000034198,18,25,2,0,18,7,32,0,1,0,3475.395000015851,undefined,undefined,undefined,
c4q9mv9ags,undefined,undefined,undefined,undefined,19,Familiar,4,NA,NA,NA,NA,19,13,27,2,19,22,16,0,2,0,1248.3200000133365,undefined,undefined,undefined,
c4q9mv9ags,undefined,undefined,undefined,undefined,20,Familiar,16,NA,NA,NA,NA,20,27,30,0,20,23,14,0,2,0,1212.7600000239909,undefined,undefined,undefined,
c4q9mv9ags,undefined,undefined,undefined,undefined,21,Know,1,AMANDA,AMANDA,true,3784.815000020899,21,23,14,2,21,36,13,0,0,0,1230.6899999966845,undefined,undefined,undefined,
c4q9mv9ags,undefined,undefined,undefined,undefined,22,Familiar,18,NA,NA,NA,NA,22,5,9,1,22,16,26,1,0,1,1162.2799999895506,undefined,undefined,undefined,
c4q9mv9ags,undefined,undefined,undefined,undefined,23,Familiar,14,NA,NA,NA,NA,23,36,13,0,23,10,25,0,1,0,1175.2299999934621,undefined,undefined,undefined,
c4q9mv9ags,undefined,undefined,undefined,undefined,24,Know,32,LAUREN,LAUREN,true,3369.3400000338443,24,26,36,2,24,30,6,0,0,0,1163.715000031516,undefined,undefined,undefined,
c4q9mv9ags,undefined,undefined,undefined,undefined,25,Know,5,JESSICA,HAZEL,false,16292.170000029728,25,8,29,1,25,19,21,1,0,0,1784.010000003036,undefined,undefined,undefined,
c4q9mv9ags,undefined,undefined,undefined,undefined,26,Familiar,28,NA,NA,NA,NA,26,15,20,2,26,9,10,1,1,1,1605.4349999758415,undefined,undefined,undefined,
c4q9mv9ags,undefined,undefined,undefined,undefined,27,Know,32,LAUREN,LAUREN,true,4683.575000031851,27,11,17,1,27,29,27,1,2,1,1339.250000019092,undefined,undefined,undefined,
c4q9mv9ags,undefined,undefined,undefined,undefined,28,Familiar,19,NA,NA,NA,NA,28,12,3,1,28,28,8,0,0,0,2595.1699999859557,undefined,undefined,undefined,
c4q9mv9ags,undefined,undefined,undefined,undefined,29,Familiar,36,NA,NA,NA,NA,29,16,21,0,29,25,2,0,0,1,1275.3500000108033,undefined,undefined,undefined,
c4q9mv9ags,undefined,undefined,undefined,undefined,30,Know,35,ASHLEY,HAZEL,false,29511.499999964144,30,33,7,2,30,33,18,1,2,1,993.4699999867007,undefined,undefined,undefined,
c4q9mv9ags,undefined,undefined,undefined,undefined,31,Familiar,27,NA,NA,NA,NA,31,7,32,1,31,32,1,1,1,1,2445.8900000317954,undefined,undefined,undefined,
c4q9mv9ags,undefined,undefined,undefined,undefined,32,Familiar,25,NA,NA,NA,NA,32,30,6,0,32,11,17,0,1,0,1840.7350000343286,undefined,undefined,undefined,
c4q9mv9ags,undefined,undefined,undefined,undefined,33,Know,31,BETTY,BETTY,true,10285.269999993034,33,4,35,0,33,1,29,1,1,1,1370.0749999843538,undefined,undefined,undefined,
c4q9mv9ags,undefined,undefined,undefined,undefined,34,Know,7,CHLOE,HAZEL,false,22487.334999954328,34,32,10,1,34,3,7,1,2,1,1466.5499999537133,undefined,undefined,undefined,
c4q9mv9ags,undefined,undefined,undefined,undefined,35,Familiar,6,NA,NA,NA,NA,35,1,11,1,35,8,11,1,1,0,4814.76500001736,undefined,undefined,undefined,
c4q9mv9ags,undefined,undefined,undefined,undefined,36,Know,11,HAZEL,HAZEL,true,4071.174999990035,36,6,28,0,36,5,9,0,1,0,1884.1499999980442,undefined,undefined,undefined,
c4q9mv9ags,undefined,undefined,undefined,undefined,37,Know,1,AMANDA,AMANDA,true,3035.634999978356,37,17,5,2,undefined,undefined,undefined,undefined,undefined,undefined,undefined,undefined,undefined,undefined,
c4q9mv9ags,undefined,undefined,undefined,undefined,38,Familiar,4,NA,NA,NA,NA,38,21,12,2,undefined,undefined,undefined,undefined,undefined,undefined,undefined,undefined,undefined,undefined,
c4q9mv9ags,undefined,undefined,undefined,undefined,39,Know,12,SARAH,SARAH,true,5613.674999971408,39,12,3,1,undefined,undefined,undefined,undefined,undefined,undefined,undefined,undefined,undefined,undefined,
c4q9mv9ags,undefined,undefined,undefined,undefined,40,Familiar,14,NA,NA,NA,NA,40,4,35,0,undefined,undefined,undefined,undefined,undefined,undefined,undefined,undefined,undefined,undefined,
c4q9mv9ags,undefined,undefined,undefined,undefined,41,Know,34,MARY,CHLOE,false,11140.759999980219,41,3,18,2,undefined,undefined,undefined,undefined,undefined,undefined,undefined,undefined,undefined,undefined,
c4q9mv9ags,undefined,undefined,undefined,undefined,42,Familiar,16,NA,NA,NA,NA,42,36,13,0,undefined,undefined,undefined,undefined,undefined,undefined,undefined,undefined,undefined,undefined,
c4q9mv9ags,undefined,undefined,undefined,undefined,43,Familiar,18,NA,NA,NA,NA,43,6,28,0,undefined,undefined,undefined,undefined,undefined,undefined,undefined,undefined,undefined,undefined,
c4q9mv9ags,undefined,undefined,undefined,undefined,44,Know,10,REBECCA,CHLOE,false,55668.21999999229,44,34,34,1,undefined,undefined,undefined,undefined,undefined,undefined,undefined,undefined,undefined,undefined,
c4q9mv9ags,undefined,undefined,undefined,undefined,45,Know,8,SOFIA,JENNIFER,false,12250.264999980573,45,31,15,1,undefined,undefined,undefined,undefined,undefined,undefined,undefined,undefined,undefined,undefined,
c4q9mv9ags,undefined,undefined,undefined,undefined,46,Familiar,30,NA,NA,NA,NA,46,14,22,0,undefined,undefined,undefined,undefined,undefined,undefined,undefined,undefined,undefined,undefined,
c4q9mv9ags,undefined,undefined,undefined,undefined,47,Familiar,20,NA,NA,NA,NA,47,19,26,0,undefined,undefined,undefined,undefined,undefined,undefined,undefined,undefined,undefined,undefined,
c4q9mv9ags,undefined,undefined,undefined,undefined,48,Know,9,JENNIFER,CHLOE,false,29331.68000000296,48,8,29,1,undefined,undefined,undefined,undefined,undefined,undefined,undefined,undefined,undefined,undefined,
c4q9mv9ags,undefined,undefined,undefined,undefined,49,Know,11,HAZEL,JESSICA,false,11151.449999946635,49,29,24,2,undefined,undefined,undefined,undefined,undefined,undefined,undefined,undefined,undefined,undefined,
c4q9mv9ags,undefined,undefined,undefined,undefined,50,Familiar,19,NA,NA,NA,NA,50,33,7,2,undefined,undefined,undefined,undefined,undefined,undefined,undefined,undefined,undefined,undefined,
c4q9mv9ags,undefined,undefined,undefined,undefined,51,Familiar,4,NA,NA,NA,NA,51,28,8,0,undefined,undefined,undefined,undefined,undefined,undefined,undefined,undefined,undefined,undefined,
c4q9mv9ags,undefined,undefined,undefined,undefined,52,Know,32,LAUREN,ASHLEY,false,4250.144999998156,52,22,16,2,undefined,undefined,undefined,undefined,undefined,undefined,undefined,undefined,undefined,undefined,
c4q9mv9ags,undefined,undefined,undefined,undefined,53,Familiar,18,NA,NA,NA,NA,53,9,1,1,undefined,undefined,undefined,undefined,undefined,undefined,undefined,undefined,undefined,undefined,
c4q9mv9ags,undefined,undefined,undefined,undefined,54,Know,34,MARY,ASHLEY,false,5119.5799999986775,54,35,23,1,undefined,undefined,undefined,undefined,undefined,undefined,undefined,undefined,undefined,undefined,
c4q9mv9ags,undefined,undefined,undefined,undefined,55,Know,9,JENNIFER,REBECCA,false,5947.489999991376,55,18,4,0,undefined,undefined,undefined,undefined,undefined,undefined,undefined,undefined,undefined,undefined,
c4q9mv9ags,undefined,undefined,undefined,undefined,56,Familiar,25,NA,NA,NA,NA,56,20,33,0,undefined,undefined,undefined,undefined,undefined,undefined,undefined,undefined,undefined,undefined,
c4q9mv9ags,undefined,undefined,undefined,undefined,57,Know,7,CHLOE,REBECCA,false,7921.970000024885,57,11,17,1,undefined,undefined,undefined,undefined,undefined,undefined,undefined,undefined,undefined,undefined,
c4q9mv9ags,undefined,undefined,undefined,undefined,58,Know,31,BETTY,HAZEL,false,32676.20500002522,58,16,21,0,undefined,undefined,undefined,undefined,undefined,undefined,undefined,undefined,undefined,undefined,
c4q9mv9ags,undefined,undefined,undefined,undefined,59,Familiar,6,NA,NA,NA,NA,59,15,20,2,undefined,undefined,undefined,undefined,undefined,undefined,undefined,undefined,undefined,undefined,
c4q9mv9ags,undefined,undefined,undefined,undefined,60,Familiar,28,NA,NA,NA,NA,60,2,19,2,undefined,undefined,undefined,undefined,undefined,undefined,undefined,undefined,undefined,undefined,
c4q9mv9ags,undefined,undefined,undefined,undefined,61,Know,35,ASHLEY,ASHLEY,true,6089.2750000348315,61,27,30,0,undefined,undefined,undefined,undefined,undefined,undefined,undefined,undefined,undefined,undefined,
c4q9mv9ags,undefined,undefined,undefined,undefined,62,Familiar,30,NA,NA,NA,NA,62,5,9,1,undefined,undefined,undefined,undefined,undefined,undefined,undefined,undefined,undefined,undefined,
c4q9mv9ags,undefined,undefined,undefined,undefined,63,Familiar,27,NA,NA,NA,NA,63,10,25,1,undefined,undefined,undefined,undefined,undefined,undefined,undefined,undefined,undefined,undefined,
c4q9mv9ags,undefined,undefined,undefined,undefined,64,Know,12,SARAH,SARAH,true,3827.9200000106357,64,13,27,2,undefined,undefined,undefined,undefined,undefined,undefined,undefined,undefined,undefined,undefined,
c4q9mv9ags,undefined,undefined,undefined,undefined,65,Familiar,16,NA,NA,NA,NA,65,24,31,2,undefined,undefined,undefined,undefined,undefined,undefined,undefined,undefined,undefined,undefined,
c4q9mv9ags,undefined,undefined,undefined,undefined,66,Know,8,SOFIA,REBECCA,false,9173.254999972414,66,25,2,0,undefined,undefined,undefined,undefined,undefined,undefined,undefined,undefined,undefined,undefined,
c4q9mv9ags,undefined,undefined,undefined,undefined,67,Know,10,REBECCA,REBECCA,true,3860.159999981988,67,1,11,1,undefined,undefined,undefined,undefined,undefined,undefined,undefined,undefined,undefined,undefined,
c4q9mv9ags,undefined,undefined,undefined,undefined,68,Familiar,20,NA,NA,NA,NA,68,26,36,2,undefined,undefined,undefined,undefined,undefined,undefined,undefined,undefined,undefined,undefined,
c4q9mv9ags,undefined,undefined,undefined,undefined,69,Familiar,36,NA,NA,NA,NA,69,30,6,0,undefined,undefined,undefined,undefined,undefined,undefined,undefined,undefined,undefined,undefined,
c4q9mv9ags,undefined,undefined,undefined,undefined,70,Know,5,JESSICA,CHLOE,false,11641.505000006873,70,32,10,1,undefined,undefined,undefined,undefined,undefined,undefined,undefined,undefined,undefined,undefined,
c4q9mv9ags,undefined,undefined,undefined,undefined,71,Know,1,AMANDA,AMANDA,true,5792.974999989383,71,7,32,1,undefined,undefined,undefined,undefined,undefined,undefined,undefined,undefined,undefined,undefined,
c4q9mv9ags,undefined,undefined,undefined,undefined,72,Familiar,14,NA,NA,NA,NA,72,23,14,2,undefined,undefined,undefined,undefined,undefined,undefined,undefined,undefined,undefined,undefined,
c4q9mv9ags,undefined,undefined,undefined,undefined,73,Familiar,25,NA,NA,NA,NA,undefined,undefined,undefined,undefined,undefined,undefined,undefined,undefined,undefined,undefined,undefined,undefined,undefined,undefined,
c4q9mv9ags,undefined,undefined,undefined,undefined,74,Know,12,SARAH,SARAH,true,3373.090000008233,undefined,undefined,undefined,undefined,undefined,undefined,undefined,undefined,undefined,undefined,undefined,undefined,undefined,undefined,
c4q9mv9ags,undefined,undefined,undefined,undefined,75,Familiar,20,NA,NA,NA,NA,undefined,undefined,undefined,undefined,undefined,undefined,undefined,undefined,undefined,undefined,undefined,undefined,undefined,undefined,
c4q9mv9ags,undefined,undefined,undefined,undefined,76,Know,35,ASHLEY,ASHLEY,true,4679.209999972954,undefined,undefined,undefined,undefined,undefined,undefined,undefined,undefined,undefined,undefined,undefined,undefined,undefined,undefined,
c4q9mv9ags,undefined,undefined,undefined,undefined,77,Familiar,30,NA,NA,NA,NA,undefined,undefined,undefined,undefined,undefined,undefined,undefined,undefined,undefined,undefined,undefined,undefined,undefined,undefined,
c4q9mv9ags,undefined,undefined,undefined,undefined,78,Familiar,14,NA,NA,NA,NA,undefined,undefined,undefined,undefined,undefined,undefined,undefined,undefined,undefined,undefined,undefined,undefined,undefined,undefined,
c4q9mv9ags,undefined,undefined,undefined,undefined,79,Know,9,JENNIFER,JENNIFER,true,8301.395000016782,undefined,undefined,undefined,undefined,undefined,undefined,undefined,undefined,undefined,undefined,undefined,undefined,undefined,undefined,
c4q9mv9ags,undefined,undefined,undefined,undefined,80,Know,8,SOFIA,HAZEL,false,51480.06999999052,undefined,undefined,undefined,undefined,undefined,undefined,undefined,undefined,undefined,undefined,undefined,undefined,undefined,undefined,
c4q9mv9ags,undefined,undefined,undefined,undefined,81,Familiar,36,NA,NA,NA,NA,undefined,undefined,undefined,undefined,undefined,undefined,undefined,undefined,undefined,undefined,undefined,undefined,undefined,undefined,
c4q9mv9ags,undefined,undefined,undefined,undefined,82,Know,34,MARY,MARY,true,6303.3050000085495,undefined,undefined,undefined,undefined,undefined,undefined,undefined,undefined,undefined,undefined,undefined,undefined,undefined,undefined,
c4q9mv9ags,undefined,undefined,undefined,undefined,83,Familiar,28,NA,NA,NA,NA,undefined,undefined,undefined,undefined,undefined,undefined,undefined,undefined,undefined,undefined,undefined,undefined,undefined,undefined,
c4q9mv9ags,undefined,undefined,undefined,undefined,84,Know,1,AMANDA,AMANDA,true,3530.62500001397,undefined,undefined,undefined,undefined,undefined,undefined,undefined,undefined,undefined,undefined,undefined,undefined,undefined,undefined,
c4q9mv9ags,undefined,undefined,undefined,undefined,85,Familiar,4,NA,NA,NA,NA,undefined,undefined,undefined,undefined,undefined,undefined,undefined,undefined,undefined,undefined,undefined,undefined,undefined,undefined,
c4q9mv9ags,undefined,undefined,undefined,undefined,86,Familiar,18,NA,NA,NA,NA,undefined,undefined,undefined,undefined,undefined,undefined,undefined,undefined,undefined,undefined,undefined,undefined,undefined,undefined,
c4q9mv9ags,undefined,undefined,undefined,undefined,87,Know,5,JESSICA,JESSICA,true,12025.71999997599,undefined,undefined,undefined,undefined,undefined,undefined,undefined,undefined,undefined,undefined,undefined,undefined,undefined,undefined,
c4q9mv9ags,undefined,undefined,undefined,undefined,88,Know,10,REBECCA,REBECCA,true,18290.700000012293,undefined,undefined,undefined,undefined,undefined,undefined,undefined,undefined,undefined,undefined,undefined,undefined,undefined,undefined,
c4q9mv9ags,undefined,undefined,undefined,undefined,89,Familiar,16,NA,NA,NA,NA,undefined,undefined,undefined,undefined,undefined,undefined,undefined,undefined,undefined,undefined,undefined,undefined,undefined,undefined,
c4q9mv9ags,undefined,undefined,undefined,undefined,90,Know,32,LAUREN,ASHLEY,false,5740.585000021383,undefined,undefined,undefined,undefined,undefined,undefined,undefined,undefined,undefined,undefined,undefined,undefined,undefined,undefined,
c4q9mv9ags,undefined,undefined,undefined,undefined,91,Know,7,CHLOE,HAZEK,false,11813.959999999497,undefined,undefined,undefined,undefined,undefined,undefined,undefined,undefined,undefined,undefined,undefined,undefined,undefined,undefined,
c4q9mv9ags,undefined,undefined,undefined,undefined,92,Familiar,19,NA,NA,NA,NA,undefined,undefined,undefined,undefined,undefined,undefined,undefined,undefined,undefined,undefined,undefined,undefined,undefined,undefined,
c4q9mv9ags,undefined,undefined,undefined,undefined,93,Know,31,BETTY,HAZEL,false,3660.6400000164285,undefined,undefined,undefined,undefined,undefined,undefined,undefined,undefined,undefined,undefined,undefined,undefined,undefined,undefined,
c4q9mv9ags,undefined,undefined,undefined,undefined,94,Know,11,HAZEL,JENNIFER,false,8441.36499997694,undefined,undefined,undefined,undefined,undefined,undefined,undefined,undefined,undefined,undefined,undefined,undefined,undefined,undefined,
c4q9mv9ags,undefined,undefined,undefined,undefined,95,Familiar,27,NA,NA,NA,NA,undefined,undefined,undefined,undefined,undefined,undefined,undefined,undefined,undefined,undefined,undefined,undefined,undefined,undefined,
c4q9mv9ags,undefined,undefined,undefined,undefined,96,Familiar,6,NA,NA,NA,NA,undefined,undefined,undefined,undefined,undefined,undefined,undefined,undefined,undefined,undefined,undefined,undefined,undefined,undefined,
