SubNum,SubNum_demo,Exp_start_time,Exp_today_date,Exp_today_time,TrialNum,FaceID,FaceImg,Name,Response,NameAcc,RespTime,StudyTrialNum,StudyFaceID,StudyFaceImg,StudyFamCond,StudyTime,TestTrialNum,TestFaceID,TestFaceImg,TestFamCond,TestStatusCond,TestResponse,TestResponseTime,Exp_end_time,Distractor_1_duration,Distractor_1_numT,Distractor_1_acc,Distractor_2_duration,Distractor_2_numT,Distractor_2_acc,StudyButtonRespTime,StudyButtonRespTime_mean,q1,q2,q3,
jewe1d3yzo,ckqvmt41gc,Mon Jan 04 2021 19:50:13 GMT-0600 (Central Standard Time),2021-1-4,19:50:13,1,35,4,DIANA,DIANA,true,3129.3949999962933,1,9,6,1,4000,1,27,8,0,1,0,3977.775000006659,20:17:32,146794.39500000444,35,100,119490.21999999974,55,82,2137.504999998724,1907.5899999988615,No,Didn't recognize any,No,
jewe1d3yzo,undefined,undefined,undefined,undefined,2,12,4,OLIVER,OLIVER,true,3018.7350000051083,2,13,6,1,4000,2,11,8,0,1,2,4523.365000000689,undefined,150502.0300000033,22,82,123411.58499999437,undefined,undefined,1903.245000001276,undefined,undefined,undefined,undefined,
jewe1d3yzo,undefined,undefined,undefined,undefined,3,30,4,AMBER,AMBER,true,3289.795000004233,3,26,6,0,4000,3,6,8,0,1,4,3350.8250000015832,undefined,286900.99000000185,undefined,undefined,undefined,undefined,undefined,1963.6249999967404,undefined,undefined,undefined,undefined,
jewe1d3yzo,undefined,undefined,undefined,undefined,4,5,4,ROBERT,ROBERT,true,4252.570000004198,4,21,6,0,4000,4,30,8,1,0,4,3147.1400000010617,undefined,122310.24500000058,undefined,undefined,undefined,undefined,undefined,1625.9849999987055,undefined,undefined,undefined,undefined,
jewe1d3yzo,undefined,undefined,undefined,undefined,5,1,4,KEVIN,KEVIN,true,2739.6000000007916,5,10,6,1,4000,5,18,8,0,0,2,2679.789999994682,undefined,272812.2500000028,undefined,undefined,undefined,undefined,undefined,undefined,undefined,undefined,undefined,undefined,
jewe1d3yzo,undefined,undefined,undefined,undefined,6,22,4,NATALIE,NATALIE,true,3570.1199999966775,6,22,6,1,4000,6,14,8,1,1,4,2384.649999999907,undefined,undefined,undefined,undefined,undefined,undefined,undefined,undefined,undefined,undefined,undefined,undefined,
jewe1d3yzo,undefined,undefined,undefined,undefined,7,23,4,LAUREN,LAUREN,true,2637.0050000041374,7,24,6,0,4000,7,20,8,0,0,5,1663.3950000032783,undefined,undefined,undefined,undefined,undefined,undefined,undefined,undefined,undefined,undefined,undefined,undefined,
jewe1d3yzo,undefined,undefined,undefined,undefined,8,10,4,JOSH,JOSH,true,3267.250000004424,8,8,6,0,4000,8,12,8,1,1,1,2663.8099999981932,undefined,undefined,undefined,undefined,undefined,undefined,undefined,undefined,undefined,undefined,undefined,undefined,
jewe1d3yzo,undefined,undefined,undefined,undefined,9,15,4,LARRY,LARRY,true,3201.194999994186,9,5,6,1,4000,9,31,8,0,0,1,3385.3200000012293,undefined,undefined,undefined,undefined,undefined,undefined,undefined,undefined,undefined,undefined,undefined,undefined,
jewe1d3yzo,undefined,undefined,undefined,undefined,10,37,4,JULIE,JULIE,true,2806.3050000055227,10,30,6,1,4000,10,16,8,0,1,1,3018.869999999879,undefined,undefined,undefined,undefined,undefined,undefined,undefined,undefined,undefined,undefined,undefined,undefined,
jewe1d3yzo,undefined,undefined,undefined,undefined,11,40,4,JUDY,JUDY,true,2694.2049999997835,11,28,6,0,4000,11,34,8,0,1,2,3295.7749999987427,undefined,undefined,undefined,undefined,undefined,undefined,undefined,undefined,undefined,undefined,undefined,undefined,
jewe1d3yzo,undefined,undefined,undefined,undefined,12,36,4,ASHLEY,ASHLEY,true,2612.410000001546,12,7,6,0,4000,12,1,8,1,0,3,4229.435000000987,undefined,undefined,undefined,undefined,undefined,undefined,undefined,undefined,undefined,undefined,undefined,undefined,
jewe1d3yzo,undefined,undefined,undefined,undefined,13,2,4,KYLE,KYLE,true,3159.0549999964423,13,23,6,1,4000,13,37,8,1,1,1,2551.9800000037067,undefined,undefined,undefined,undefined,undefined,undefined,undefined,undefined,undefined,undefined,undefined,undefined,
jewe1d3yzo,undefined,undefined,undefined,undefined,14,9,4,CARTER,CARTER,true,3835.994999994,14,20,6,0,4000,14,32,8,1,1,1,3869.640000004554,undefined,undefined,undefined,undefined,undefined,undefined,undefined,undefined,undefined,undefined,undefined,undefined,
jewe1d3yzo,undefined,undefined,undefined,undefined,15,32,4,ZOEY,ZOEY,true,3238.0149999953574,15,18,6,0,4000,15,29,8,1,0,4,3393.455000004731,undefined,undefined,undefined,undefined,undefined,undefined,undefined,undefined,undefined,undefined,undefined,undefined,
jewe1d3yzo,undefined,undefined,undefined,undefined,16,4,4,RYAN,RYAN,true,3672.694999993837,16,40,6,1,4000,16,40,8,1,0,5,1368.1149999976624,undefined,undefined,undefined,undefined,undefined,undefined,undefined,undefined,undefined,undefined,undefined,undefined,
jewe1d3yzo,undefined,undefined,undefined,undefined,17,29,4,GRACE,GRACE,true,2922.279999998864,17,1,6,1,4000,17,9,8,1,0,1,2237.7850000048056,undefined,undefined,undefined,undefined,undefined,undefined,undefined,undefined,undefined,undefined,undefined,undefined,
jewe1d3yzo,undefined,undefined,undefined,undefined,18,13,4,GABRIEL,GABRIEL,true,4349.849999998696,18,31,6,0,4000,18,8,8,0,0,1,2207.0399999939837,undefined,undefined,undefined,undefined,undefined,undefined,undefined,undefined,undefined,undefined,undefined,undefined,
jewe1d3yzo,undefined,undefined,undefined,undefined,19,14,4,NICK,NICK,true,3281.8199999965145,19,3,6,0,4000,19,28,8,0,0,4,4137.815000001807,undefined,undefined,undefined,undefined,undefined,undefined,undefined,undefined,undefined,undefined,undefined,undefined,
jewe1d3yzo,undefined,undefined,undefined,undefined,20,33,4,JANE,JANE,true,3153.309999994235,20,29,6,1,4000,20,35,8,1,1,2,3601.644999995129,undefined,undefined,undefined,undefined,undefined,undefined,undefined,undefined,undefined,undefined,undefined,undefined,
jewe1d3yzo,undefined,undefined,undefined,undefined,21,35,1,DIANA,LAUREN,false,18180.529999997816,undefined,undefined,undefined,undefined,undefined,21,15,8,1,1,0,2245.7300000025425,undefined,undefined,undefined,undefined,undefined,undefined,undefined,undefined,undefined,undefined,undefined,undefined,
jewe1d3yzo,undefined,undefined,undefined,undefined,22,12,1,OLIVER,CARTER,false,4288.545000003069,undefined,undefined,undefined,undefined,undefined,22,7,8,0,0,4,2902.2499999990687,undefined,undefined,undefined,undefined,undefined,undefined,undefined,undefined,undefined,undefined,undefined,undefined,
jewe1d3yzo,undefined,undefined,undefined,undefined,23,30,1,AMBER,LAURA,false,17449.704999999085,undefined,undefined,undefined,undefined,undefined,23,22,8,1,0,5,1402.3500000040513,undefined,undefined,undefined,undefined,undefined,undefined,undefined,undefined,undefined,undefined,undefined,undefined,
jewe1d3yzo,undefined,undefined,undefined,undefined,24,5,1,ROBERT,ROBERT,true,9001.960000001418,undefined,undefined,undefined,undefined,undefined,24,5,8,1,0,5,1208.1450000042096,undefined,undefined,undefined,undefined,undefined,undefined,undefined,undefined,undefined,undefined,undefined,undefined,
jewe1d3yzo,undefined,undefined,undefined,undefined,25,1,1,KEVIN,NICK,false,6518.020000003162,undefined,undefined,undefined,undefined,undefined,25,19,8,0,1,3,2134.404999997001,undefined,undefined,undefined,undefined,undefined,undefined,undefined,undefined,undefined,undefined,undefined,undefined,
jewe1d3yzo,undefined,undefined,undefined,undefined,26,22,1,NATALIE,NATALIE,true,8269.29000000382,undefined,undefined,undefined,undefined,undefined,26,17,8,0,1,1,2368.5299999995623,undefined,undefined,undefined,undefined,undefined,undefined,undefined,undefined,undefined,undefined,undefined,undefined,
jewe1d3yzo,undefined,undefined,undefined,undefined,27,23,1,LAUREN,LAUREN,true,9776.684999997145,undefined,undefined,undefined,undefined,undefined,27,2,8,1,1,1,2604.220000001136,undefined,undefined,undefined,undefined,undefined,undefined,undefined,undefined,undefined,undefined,undefined,undefined,
jewe1d3yzo,undefined,undefined,undefined,undefined,28,10,1,JOSH,NICK,false,6753.0750000005355,undefined,undefined,undefined,undefined,undefined,28,21,8,0,0,0,3018.8150000032037,undefined,undefined,undefined,undefined,undefined,undefined,undefined,undefined,undefined,undefined,undefined,undefined,
jewe1d3yzo,undefined,undefined,undefined,undefined,29,15,1,LARRY,LARRY,true,3180.7900000057416,undefined,undefined,undefined,undefined,undefined,29,24,8,0,0,0,2088.3300000058953,undefined,undefined,undefined,undefined,undefined,undefined,undefined,undefined,undefined,undefined,undefined,undefined,
jewe1d3yzo,undefined,undefined,undefined,undefined,30,37,1,JULIE,JULIE,true,5333.14999999851,undefined,undefined,undefined,undefined,undefined,30,13,8,1,0,2,2110.850000004517,undefined,undefined,undefined,undefined,undefined,undefined,undefined,undefined,undefined,undefined,undefined,undefined,
jewe1d3yzo,undefined,undefined,undefined,undefined,31,40,1,JUDY,JUDY,true,5686.689999994938,undefined,undefined,undefined,undefined,undefined,31,4,8,1,1,2,3129.1649999984074,undefined,undefined,undefined,undefined,undefined,undefined,undefined,undefined,undefined,undefined,undefined,undefined,
jewe1d3yzo,undefined,undefined,undefined,undefined,32,36,1,ASHLEY,ASHLEY,true,10296.185000006459,undefined,undefined,undefined,undefined,undefined,32,39,8,0,1,0,2034.0799999977462,undefined,undefined,undefined,undefined,undefined,undefined,undefined,undefined,undefined,undefined,undefined,undefined,
jewe1d3yzo,undefined,undefined,undefined,undefined,33,2,1,KYLE,KEVIN,false,6647.51000000257,undefined,undefined,undefined,undefined,undefined,33,38,8,0,1,0,2987.195000001462,undefined,undefined,undefined,undefined,undefined,undefined,undefined,undefined,undefined,undefined,undefined,undefined,
jewe1d3yzo,undefined,undefined,undefined,undefined,34,9,1,CARTER,KEVIN,false,11258.300000001327,undefined,undefined,undefined,undefined,undefined,34,36,8,1,1,1,3590.2449999994133,undefined,undefined,undefined,undefined,undefined,undefined,undefined,undefined,undefined,undefined,undefined,undefined,
jewe1d3yzo,undefined,undefined,undefined,undefined,35,32,1,ZOEY,GRACE,false,8192.584999997052,undefined,undefined,undefined,undefined,undefined,35,33,8,1,1,1,3373.849999996368,undefined,undefined,undefined,undefined,undefined,undefined,undefined,undefined,undefined,undefined,undefined,undefined,
jewe1d3yzo,undefined,undefined,undefined,undefined,36,4,1,RYAN,JOSH,false,11912.360000002082,undefined,undefined,undefined,undefined,undefined,36,3,8,0,0,2,2727.6449999990873,undefined,undefined,undefined,undefined,undefined,undefined,undefined,undefined,undefined,undefined,undefined,undefined,
jewe1d3yzo,undefined,undefined,undefined,undefined,37,29,1,GRACE,GRACE,true,3970.5950000060257,undefined,undefined,undefined,undefined,undefined,37,25,8,0,1,0,2153.339999997057,undefined,undefined,undefined,undefined,undefined,undefined,undefined,undefined,undefined,undefined,undefined,undefined,
jewe1d3yzo,undefined,undefined,undefined,undefined,38,13,1,GABRIEL,OLIVER,false,7871.709999999381,undefined,undefined,undefined,undefined,undefined,38,10,8,1,0,4,1952.7200000011362,undefined,undefined,undefined,undefined,undefined,undefined,undefined,undefined,undefined,undefined,undefined,undefined,
jewe1d3yzo,undefined,undefined,undefined,undefined,39,14,1,NICK,CARTER,false,10406.0449999962,undefined,undefined,undefined,undefined,undefined,39,26,8,0,0,4,2523.339999999618,undefined,undefined,undefined,undefined,undefined,undefined,undefined,undefined,undefined,undefined,undefined,undefined,
jewe1d3yzo,undefined,undefined,undefined,undefined,40,33,1,JANE,JULIE,false,9902.905000002589,undefined,undefined,undefined,undefined,undefined,40,23,8,1,0,3,3596.630000000121,undefined,undefined,undefined,undefined,undefined,undefined,undefined,undefined,undefined,undefined,undefined,undefined,
jewe1d3yzo,undefined,undefined,undefined,undefined,41,15,2,LARRY,LARRY,true,3189.839999999036,undefined,undefined,undefined,undefined,undefined,undefined,undefined,undefined,undefined,undefined,undefined,undefined,undefined,undefined,undefined,undefined,undefined,undefined,undefined,undefined,undefined,undefined,undefined,undefined,
jewe1d3yzo,undefined,undefined,undefined,undefined,42,32,2,ZOEY,AMBER,false,5336.165000000619,undefined,undefined,undefined,undefined,undefined,undefined,undefined,undefined,undefined,undefined,undefined,undefined,undefined,undefined,undefined,undefined,undefined,undefined,undefined,undefined,undefined,undefined,undefined,undefined,
jewe1d3yzo,undefined,undefined,undefined,undefined,43,10,2,JOSH,ROBERT,false,5636.35500000231,undefined,undefined,undefined,undefined,undefined,undefined,undefined,undefined,undefined,undefined,undefined,undefined,undefined,undefined,undefined,undefined,undefined,undefined,undefined,undefined,undefined,undefined,undefined,undefined,
jewe1d3yzo,undefined,undefined,undefined,undefined,44,37,2,JULIE,JANE,false,16816.254999997793,undefined,undefined,undefined,undefined,undefined,undefined,undefined,undefined,undefined,undefined,undefined,undefined,undefined,undefined,undefined,undefined,undefined,undefined,undefined,undefined,undefined,undefined,undefined,undefined,
jewe1d3yzo,undefined,undefined,undefined,undefined,45,12,2,OLIVER,CARTER,false,3549.1949999995995,undefined,undefined,undefined,undefined,undefined,undefined,undefined,undefined,undefined,undefined,undefined,undefined,undefined,undefined,undefined,undefined,undefined,undefined,undefined,undefined,undefined,undefined,undefined,undefined,
jewe1d3yzo,undefined,undefined,undefined,undefined,46,23,2,LAUREN,ZOEY,false,3560.6799999950454,undefined,undefined,undefined,undefined,undefined,undefined,undefined,undefined,undefined,undefined,undefined,undefined,undefined,undefined,undefined,undefined,undefined,undefined,undefined,undefined,undefined,undefined,undefined,undefined,
jewe1d3yzo,undefined,undefined,undefined,undefined,47,36,2,ASHLEY,AMBER,false,5099.929999996675,undefined,undefined,undefined,undefined,undefined,undefined,undefined,undefined,undefined,undefined,undefined,undefined,undefined,undefined,undefined,undefined,undefined,undefined,undefined,undefined,undefined,undefined,undefined,undefined,
jewe1d3yzo,undefined,undefined,undefined,undefined,48,9,2,CARTER,CARTER,true,4888.064999999129,undefined,undefined,undefined,undefined,undefined,undefined,undefined,undefined,undefined,undefined,undefined,undefined,undefined,undefined,undefined,undefined,undefined,undefined,undefined,undefined,undefined,undefined,undefined,undefined,
jewe1d3yzo,undefined,undefined,undefined,undefined,49,4,2,RYAN,JOSH,false,9267.10499999905,undefined,undefined,undefined,undefined,undefined,undefined,undefined,undefined,undefined,undefined,undefined,undefined,undefined,undefined,undefined,undefined,undefined,undefined,undefined,undefined,undefined,undefined,undefined,undefined,
jewe1d3yzo,undefined,undefined,undefined,undefined,50,33,2,JANE,JANE,true,4009.2099999965867,undefined,undefined,undefined,undefined,undefined,undefined,undefined,undefined,undefined,undefined,undefined,undefined,undefined,undefined,undefined,undefined,undefined,undefined,undefined,undefined,undefined,undefined,undefined,undefined,
jewe1d3yzo,undefined,undefined,undefined,undefined,51,5,2,ROBERT,ROBERT,true,3799.184999996214,undefined,undefined,undefined,undefined,undefined,undefined,undefined,undefined,undefined,undefined,undefined,undefined,undefined,undefined,undefined,undefined,undefined,undefined,undefined,undefined,undefined,undefined,undefined,undefined,
jewe1d3yzo,undefined,undefined,undefined,undefined,52,29,2,GRACE,GRACE,true,2931.6299999991897,undefined,undefined,undefined,undefined,undefined,undefined,undefined,undefined,undefined,undefined,undefined,undefined,undefined,undefined,undefined,undefined,undefined,undefined,undefined,undefined,undefined,undefined,undefined,undefined,
jewe1d3yzo,undefined,undefined,undefined,undefined,53,22,2,NATALIE,NATALIE,true,3006.9550000044983,undefined,undefined,undefined,undefined,undefined,undefined,undefined,undefined,undefined,undefined,undefined,undefined,undefined,undefined,undefined,undefined,undefined,undefined,undefined,undefined,undefined,undefined,undefined,undefined,
jewe1d3yzo,undefined,undefined,undefined,undefined,54,1,2,KEVIN,CARTER,false,7669.25500000082,undefined,undefined,undefined,undefined,undefined,undefined,undefined,undefined,undefined,undefined,undefined,undefined,undefined,undefined,undefined,undefined,undefined,undefined,undefined,undefined,undefined,undefined,undefined,undefined,
jewe1d3yzo,undefined,undefined,undefined,undefined,55,2,2,KYLE,JOSH,false,3394.1100000010338,undefined,undefined,undefined,undefined,undefined,undefined,undefined,undefined,undefined,undefined,undefined,undefined,undefined,undefined,undefined,undefined,undefined,undefined,undefined,undefined,undefined,undefined,undefined,undefined,
jewe1d3yzo,undefined,undefined,undefined,undefined,56,40,2,JUDY,JUDY,true,3097.4799999967217,undefined,undefined,undefined,undefined,undefined,undefined,undefined,undefined,undefined,undefined,undefined,undefined,undefined,undefined,undefined,undefined,undefined,undefined,undefined,undefined,undefined,undefined,undefined,undefined,
jewe1d3yzo,undefined,undefined,undefined,undefined,57,35,2,DIANA,ZOEY,false,9493.49500000244,undefined,undefined,undefined,undefined,undefined,undefined,undefined,undefined,undefined,undefined,undefined,undefined,undefined,undefined,undefined,undefined,undefined,undefined,undefined,undefined,undefined,undefined,undefined,undefined,
jewe1d3yzo,undefined,undefined,undefined,undefined,58,30,2,AMBER,JULIE,false,4082.0149999998976,undefined,undefined,undefined,undefined,undefined,undefined,undefined,undefined,undefined,undefined,undefined,undefined,undefined,undefined,undefined,undefined,undefined,undefined,undefined,undefined,undefined,undefined,undefined,undefined,
jewe1d3yzo,undefined,undefined,undefined,undefined,59,14,2,NICK,CARTER,false,3379.589999996824,undefined,undefined,undefined,undefined,undefined,undefined,undefined,undefined,undefined,undefined,undefined,undefined,undefined,undefined,undefined,undefined,undefined,undefined,undefined,undefined,undefined,undefined,undefined,undefined,
jewe1d3yzo,undefined,undefined,undefined,undefined,60,13,2,GABRIEL,GABRIEL,true,3944.3600000012666,undefined,undefined,undefined,undefined,undefined,undefined,undefined,undefined,undefined,undefined,undefined,undefined,undefined,undefined,undefined,undefined,undefined,undefined,undefined,undefined,undefined,undefined,undefined,undefined,
jewe1d3yzo,undefined,undefined,undefined,undefined,61,13,7,GABRIEL,RYAN,false,4832.524999998044,undefined,undefined,undefined,undefined,undefined,undefined,undefined,undefined,undefined,undefined,undefined,undefined,undefined,undefined,undefined,undefined,undefined,undefined,undefined,undefined,undefined,undefined,undefined,undefined,
jewe1d3yzo,undefined,undefined,undefined,undefined,62,12,7,OLIVER,JOSH,false,20661.975000002654,undefined,undefined,undefined,undefined,undefined,undefined,undefined,undefined,undefined,undefined,undefined,undefined,undefined,undefined,undefined,undefined,undefined,undefined,undefined,undefined,undefined,undefined,undefined,undefined,
jewe1d3yzo,undefined,undefined,undefined,undefined,63,36,7,ASHLEY,AMBER,false,3995.5249999983935,undefined,undefined,undefined,undefined,undefined,undefined,undefined,undefined,undefined,undefined,undefined,undefined,undefined,undefined,undefined,undefined,undefined,undefined,undefined,undefined,undefined,undefined,undefined,undefined,
jewe1d3yzo,undefined,undefined,undefined,undefined,64,22,7,NATALIE,NATALIE,true,2644.885000001639,undefined,undefined,undefined,undefined,undefined,undefined,undefined,undefined,undefined,undefined,undefined,undefined,undefined,undefined,undefined,undefined,undefined,undefined,undefined,undefined,undefined,undefined,undefined,undefined,
jewe1d3yzo,undefined,undefined,undefined,undefined,65,33,7,JANE,JANE,true,3701.994999995688,undefined,undefined,undefined,undefined,undefined,undefined,undefined,undefined,undefined,undefined,undefined,undefined,undefined,undefined,undefined,undefined,undefined,undefined,undefined,undefined,undefined,undefined,undefined,undefined,
jewe1d3yzo,undefined,undefined,undefined,undefined,66,30,7,AMBER,AMBER,true,3028.0899999997346,undefined,undefined,undefined,undefined,undefined,undefined,undefined,undefined,undefined,undefined,undefined,undefined,undefined,undefined,undefined,undefined,undefined,undefined,undefined,undefined,undefined,undefined,undefined,undefined,
jewe1d3yzo,undefined,undefined,undefined,undefined,67,23,7,LAUREN,DIANA,false,3178.5699999964563,undefined,undefined,undefined,undefined,undefined,undefined,undefined,undefined,undefined,undefined,undefined,undefined,undefined,undefined,undefined,undefined,undefined,undefined,undefined,undefined,undefined,undefined,undefined,undefined,
jewe1d3yzo,undefined,undefined,undefined,undefined,68,5,7,ROBERT,ROBERT,true,5031.390000003739,undefined,undefined,undefined,undefined,undefined,undefined,undefined,undefined,undefined,undefined,undefined,undefined,undefined,undefined,undefined,undefined,undefined,undefined,undefined,undefined,undefined,undefined,undefined,undefined,
jewe1d3yzo,undefined,undefined,undefined,undefined,69,37,7,JULIE,JULIE,true,15058.294999995269,undefined,undefined,undefined,undefined,undefined,undefined,undefined,undefined,undefined,undefined,undefined,undefined,undefined,undefined,undefined,undefined,undefined,undefined,undefined,undefined,undefined,undefined,undefined,undefined,
jewe1d3yzo,undefined,undefined,undefined,undefined,70,10,7,JOSH,RYAN,false,3240.0550000020303,undefined,undefined,undefined,undefined,undefined,undefined,undefined,undefined,undefined,undefined,undefined,undefined,undefined,undefined,undefined,undefined,undefined,undefined,undefined,undefined,undefined,undefined,undefined,undefined,
jewe1d3yzo,undefined,undefined,undefined,undefined,71,40,7,JUDY,JUDY,true,3796.565000004135,undefined,undefined,undefined,undefined,undefined,undefined,undefined,undefined,undefined,undefined,undefined,undefined,undefined,undefined,undefined,undefined,undefined,undefined,undefined,undefined,undefined,undefined,undefined,undefined,
jewe1d3yzo,undefined,undefined,undefined,undefined,72,14,7,NICK,NICK,true,3525.8200000026263,undefined,undefined,undefined,undefined,undefined,undefined,undefined,undefined,undefined,undefined,undefined,undefined,undefined,undefined,undefined,undefined,undefined,undefined,undefined,undefined,undefined,undefined,undefined,undefined,
jewe1d3yzo,undefined,undefined,undefined,undefined,73,2,7,KYLE,RYAN,false,5388.930000000983,undefined,undefined,undefined,undefined,undefined,undefined,undefined,undefined,undefined,undefined,undefined,undefined,undefined,undefined,undefined,undefined,undefined,undefined,undefined,undefined,undefined,undefined,undefined,undefined,
jewe1d3yzo,undefined,undefined,undefined,undefined,74,32,7,ZOEY,LAUREN,false,2899.969999998575,undefined,undefined,undefined,undefined,undefined,undefined,undefined,undefined,undefined,undefined,undefined,undefined,undefined,undefined,undefined,undefined,undefined,undefined,undefined,undefined,undefined,undefined,undefined,undefined,
jewe1d3yzo,undefined,undefined,undefined,undefined,75,1,7,KEVIN,RYAN,false,4884.210000003921,undefined,undefined,undefined,undefined,undefined,undefined,undefined,undefined,undefined,undefined,undefined,undefined,undefined,undefined,undefined,undefined,undefined,undefined,undefined,undefined,undefined,undefined,undefined,undefined,
jewe1d3yzo,undefined,undefined,undefined,undefined,76,15,7,LARRY,LARRY,true,2920.7749999987427,undefined,undefined,undefined,undefined,undefined,undefined,undefined,undefined,undefined,undefined,undefined,undefined,undefined,undefined,undefined,undefined,undefined,undefined,undefined,undefined,undefined,undefined,undefined,undefined,
jewe1d3yzo,undefined,undefined,undefined,undefined,77,35,7,DIANA,DIANA,true,3169.994999996503,undefined,undefined,undefined,undefined,undefined,undefined,undefined,undefined,undefined,undefined,undefined,undefined,undefined,undefined,undefined,undefined,undefined,undefined,undefined,undefined,undefined,undefined,undefined,undefined,
jewe1d3yzo,undefined,undefined,undefined,undefined,78,29,7,GRACE,GRACE,true,2813.2949999999255,undefined,undefined,undefined,undefined,undefined,undefined,undefined,undefined,undefined,undefined,undefined,undefined,undefined,undefined,undefined,undefined,undefined,undefined,undefined,undefined,undefined,undefined,undefined,undefined,
jewe1d3yzo,undefined,undefined,undefined,undefined,79,9,7,CARTER,NICK,false,6002.005000001984,undefined,undefined,undefined,undefined,undefined,undefined,undefined,undefined,undefined,undefined,undefined,undefined,undefined,undefined,undefined,undefined,undefined,undefined,undefined,undefined,undefined,undefined,undefined,undefined,
jewe1d3yzo,undefined,undefined,undefined,undefined,80,4,7,RYAN,KYLE,false,7395.08499999647,undefined,undefined,undefined,undefined,undefined,undefined,undefined,undefined,undefined,undefined,undefined,undefined,undefined,undefined,undefined,undefined,undefined,undefined,undefined,undefined,undefined,undefined,undefined,undefined,
jewe1d3yzo,undefined,undefined,undefined,undefined,81,29,3,GRACE,GRACE,true,2633.659999999567,undefined,undefined,undefined,undefined,undefined,undefined,undefined,undefined,undefined,undefined,undefined,undefined,undefined,undefined,undefined,undefined,undefined,undefined,undefined,undefined,undefined,undefined,undefined,undefined,
jewe1d3yzo,undefined,undefined,undefined,undefined,82,15,3,LARRY,LARRY,true,2581.3500000004424,undefined,undefined,undefined,undefined,undefined,undefined,undefined,undefined,undefined,undefined,undefined,undefined,undefined,undefined,undefined,undefined,undefined,undefined,undefined,undefined,undefined,undefined,undefined,undefined,
jewe1d3yzo,undefined,undefined,undefined,undefined,83,10,3,JOSH,NA,false,8704.619999996736,undefined,undefined,undefined,undefined,undefined,undefined,undefined,undefined,undefined,undefined,undefined,undefined,undefined,undefined,undefined,undefined,undefined,undefined,undefined,undefined,undefined,undefined,undefined,undefined,
jewe1d3yzo,undefined,undefined,undefined,undefined,84,36,3,ASHLEY,DIANA,false,3040.4300000009825,undefined,undefined,undefined,undefined,undefined,undefined,undefined,undefined,undefined,undefined,undefined,undefined,undefined,undefined,undefined,undefined,undefined,undefined,undefined,undefined,undefined,undefined,undefined,undefined,
jewe1d3yzo,undefined,undefined,undefined,undefined,85,2,3,KYLE,RYAN,false,7143.1349999983795,undefined,undefined,undefined,undefined,undefined,undefined,undefined,undefined,undefined,undefined,undefined,undefined,undefined,undefined,undefined,undefined,undefined,undefined,undefined,undefined,undefined,undefined,undefined,undefined,
jewe1d3yzo,undefined,undefined,undefined,undefined,86,33,3,JANE,JANE,true,3014.584999997169,undefined,undefined,undefined,undefined,undefined,undefined,undefined,undefined,undefined,undefined,undefined,undefined,undefined,undefined,undefined,undefined,undefined,undefined,undefined,undefined,undefined,undefined,undefined,undefined,
jewe1d3yzo,undefined,undefined,undefined,undefined,87,4,3,RYAN,RYAN,true,3475.044999999227,undefined,undefined,undefined,undefined,undefined,undefined,undefined,undefined,undefined,undefined,undefined,undefined,undefined,undefined,undefined,undefined,undefined,undefined,undefined,undefined,undefined,undefined,undefined,undefined,
jewe1d3yzo,undefined,undefined,undefined,undefined,88,1,3,KEVIN,KYLE,false,5359.179999999469,undefined,undefined,undefined,undefined,undefined,undefined,undefined,undefined,undefined,undefined,undefined,undefined,undefined,undefined,undefined,undefined,undefined,undefined,undefined,undefined,undefined,undefined,undefined,undefined,
jewe1d3yzo,undefined,undefined,undefined,undefined,89,5,3,ROBERT,ROBERT,true,2817.8950000002515,undefined,undefined,undefined,undefined,undefined,undefined,undefined,undefined,undefined,undefined,undefined,undefined,undefined,undefined,undefined,undefined,undefined,undefined,undefined,undefined,undefined,undefined,undefined,undefined,
jewe1d3yzo,undefined,undefined,undefined,undefined,90,30,3,AMBER,AMBER,true,2980.260000003851,undefined,undefined,undefined,undefined,undefined,undefined,undefined,undefined,undefined,undefined,undefined,undefined,undefined,undefined,undefined,undefined,undefined,undefined,undefined,undefined,undefined,undefined,undefined,undefined,
jewe1d3yzo,undefined,undefined,undefined,undefined,91,9,3,CARTER,CARTER,true,4464.045000000624,undefined,undefined,undefined,undefined,undefined,undefined,undefined,undefined,undefined,undefined,undefined,undefined,undefined,undefined,undefined,undefined,undefined,undefined,undefined,undefined,undefined,undefined,undefined,undefined,
jewe1d3yzo,undefined,undefined,undefined,undefined,92,22,3,NATALIE,NATALIE,true,1656.0049999970943,undefined,undefined,undefined,undefined,undefined,undefined,undefined,undefined,undefined,undefined,undefined,undefined,undefined,undefined,undefined,undefined,undefined,undefined,undefined,undefined,undefined,undefined,undefined,undefined,
jewe1d3yzo,undefined,undefined,undefined,undefined,93,23,3,LAUREN,ZOEY,false,2499.964999995427,undefined,undefined,undefined,undefined,undefined,undefined,undefined,undefined,undefined,undefined,undefined,undefined,undefined,undefined,undefined,undefined,undefined,undefined,undefined,undefined,undefined,undefined,undefined,undefined,
jewe1d3yzo,undefined,undefined,undefined,undefined,94,37,3,JULIE,JULIE,true,3026.9600000029895,undefined,undefined,undefined,undefined,undefined,undefined,undefined,undefined,undefined,undefined,undefined,undefined,undefined,undefined,undefined,undefined,undefined,undefined,undefined,undefined,undefined,undefined,undefined,undefined,
jewe1d3yzo,undefined,undefined,undefined,undefined,95,12,3,OLIVER,OLIVER,true,2699.2650000029244,undefined,undefined,undefined,undefined,undefined,undefined,undefined,undefined,undefined,undefined,undefined,undefined,undefined,undefined,undefined,undefined,undefined,undefined,undefined,undefined,undefined,undefined,undefined,undefined,
jewe1d3yzo,undefined,undefined,undefined,undefined,96,13,3,GABRIEL,GABRIEL,true,2621.505000002682,undefined,undefined,undefined,undefined,undefined,undefined,undefined,undefined,undefined,undefined,undefined,undefined,undefined,undefined,undefined,undefined,undefined,undefined,undefined,undefined,undefined,undefined,undefined,undefined,
jewe1d3yzo,undefined,undefined,undefined,undefined,97,35,3,DIANA,DIANA,true,3014.8850000042003,undefined,undefined,undefined,undefined,undefined,undefined,undefined,undefined,undefined,undefined,undefined,undefined,undefined,undefined,undefined,undefined,undefined,undefined,undefined,undefined,undefined,undefined,undefined,undefined,
jewe1d3yzo,undefined,undefined,undefined,undefined,98,14,3,NICK,NICK,true,2116.1450000000186,undefined,undefined,undefined,undefined,undefined,undefined,undefined,undefined,undefined,undefined,undefined,undefined,undefined,undefined,undefined,undefined,undefined,undefined,undefined,undefined,undefined,undefined,undefined,undefined,
jewe1d3yzo,undefined,undefined,undefined,undefined,99,32,3,ZOEY,ZOEY,true,2715.855000002077,undefined,undefined,undefined,undefined,undefined,undefined,undefined,undefined,undefined,undefined,undefined,undefined,undefined,undefined,undefined,undefined,undefined,undefined,undefined,undefined,undefined,undefined,undefined,undefined,
jewe1d3yzo,undefined,undefined,undefined,undefined,100,40,3,JUDY,JUDY,true,1614.4950000015087,undefined,undefined,undefined,undefined,undefined,undefined,undefined,undefined,undefined,undefined,undefined,undefined,undefined,undefined,undefined,undefined,undefined,undefined,undefined,undefined,undefined,undefined,undefined,undefined,
jewe1d3yzo,undefined,undefined,undefined,undefined,101,15,6,LARRY,LARRY,true,10591.910000002943,undefined,undefined,undefined,undefined,undefined,undefined,undefined,undefined,undefined,undefined,undefined,undefined,undefined,undefined,undefined,undefined,undefined,undefined,undefined,undefined,undefined,undefined,undefined,undefined,
jewe1d3yzo,undefined,undefined,undefined,undefined,102,29,6,GRACE,GRACE,true,1716.0550000043586,undefined,undefined,undefined,undefined,undefined,undefined,undefined,undefined,undefined,undefined,undefined,undefined,undefined,undefined,undefined,undefined,undefined,undefined,undefined,undefined,undefined,undefined,undefined,undefined,
jewe1d3yzo,undefined,undefined,undefined,undefined,103,9,6,CARTER,CARTER,true,5757.905000005849,undefined,undefined,undefined,undefined,undefined,undefined,undefined,undefined,undefined,undefined,undefined,undefined,undefined,undefined,undefined,undefined,undefined,undefined,undefined,undefined,undefined,undefined,undefined,undefined,
jewe1d3yzo,undefined,undefined,undefined,undefined,104,37,6,JULIE,JULIE,true,2128.8599999970756,undefined,undefined,undefined,undefined,undefined,undefined,undefined,undefined,undefined,undefined,undefined,undefined,undefined,undefined,undefined,undefined,undefined,undefined,undefined,undefined,undefined,undefined,undefined,undefined,
jewe1d3yzo,undefined,undefined,undefined,undefined,105,32,6,ZOEY,LAUREN,false,4004.419999997597,undefined,undefined,undefined,undefined,undefined,undefined,undefined,undefined,undefined,undefined,undefined,undefined,undefined,undefined,undefined,undefined,undefined,undefined,undefined,undefined,undefined,undefined,undefined,undefined,
jewe1d3yzo,undefined,undefined,undefined,undefined,106,36,6,ASHLEY,ASHLEY,true,2562.235000004759,undefined,undefined,undefined,undefined,undefined,undefined,undefined,undefined,undefined,undefined,undefined,undefined,undefined,undefined,undefined,undefined,undefined,undefined,undefined,undefined,undefined,undefined,undefined,undefined,
jewe1d3yzo,undefined,undefined,undefined,undefined,107,40,6,JUDY,JUDY,true,1823.315000001574,undefined,undefined,undefined,undefined,undefined,undefined,undefined,undefined,undefined,undefined,undefined,undefined,undefined,undefined,undefined,undefined,undefined,undefined,undefined,undefined,undefined,undefined,undefined,undefined,
jewe1d3yzo,undefined,undefined,undefined,undefined,108,10,6,JOSH,RYAN,false,2784.8550000055693,undefined,undefined,undefined,undefined,undefined,undefined,undefined,undefined,undefined,undefined,undefined,undefined,undefined,undefined,undefined,undefined,undefined,undefined,undefined,undefined,undefined,undefined,undefined,undefined,
jewe1d3yzo,undefined,undefined,undefined,undefined,109,13,6,GABRIEL,GABRIEL,true,2138.6899999997113,undefined,undefined,undefined,undefined,undefined,undefined,undefined,undefined,undefined,undefined,undefined,undefined,undefined,undefined,undefined,undefined,undefined,undefined,undefined,undefined,undefined,undefined,undefined,undefined,
jewe1d3yzo,undefined,undefined,undefined,undefined,110,22,6,NATALIE,NATALIE,true,1841.0799999984447,undefined,undefined,undefined,undefined,undefined,undefined,undefined,undefined,undefined,undefined,undefined,undefined,undefined,undefined,undefined,undefined,undefined,undefined,undefined,undefined,undefined,undefined,undefined,undefined,
jewe1d3yzo,undefined,undefined,undefined,undefined,111,5,6,ROBERT,ROBERT,true,2313.1349999967497,undefined,undefined,undefined,undefined,undefined,undefined,undefined,undefined,undefined,undefined,undefined,undefined,undefined,undefined,undefined,undefined,undefined,undefined,undefined,undefined,undefined,undefined,undefined,undefined,
jewe1d3yzo,undefined,undefined,undefined,undefined,112,12,6,OLIVER,OLIVER,true,2037.235000003362,undefined,undefined,undefined,undefined,undefined,undefined,undefined,undefined,undefined,undefined,undefined,undefined,undefined,undefined,undefined,undefined,undefined,undefined,undefined,undefined,undefined,undefined,undefined,undefined,
jewe1d3yzo,undefined,undefined,undefined,undefined,113,23,6,LAUREN,LAUREN,true,2608.9649999993853,undefined,undefined,undefined,undefined,undefined,undefined,undefined,undefined,undefined,undefined,undefined,undefined,undefined,undefined,undefined,undefined,undefined,undefined,undefined,undefined,undefined,undefined,undefined,undefined,
jewe1d3yzo,undefined,undefined,undefined,undefined,114,4,6,RYAN,RYAN,true,4648.119999997783,undefined,undefined,undefined,undefined,undefined,undefined,undefined,undefined,undefined,undefined,undefined,undefined,undefined,undefined,undefined,undefined,undefined,undefined,undefined,undefined,undefined,undefined,undefined,undefined,
jewe1d3yzo,undefined,undefined,undefined,undefined,115,33,6,JANE,JANE,true,1789.7449999947567,undefined,undefined,undefined,undefined,undefined,undefined,undefined,undefined,undefined,undefined,undefined,undefined,undefined,undefined,undefined,undefined,undefined,undefined,undefined,undefined,undefined,undefined,undefined,undefined,
jewe1d3yzo,undefined,undefined,undefined,undefined,116,30,6,AMBER,AMBER,true,1820.8250000025146,undefined,undefined,undefined,undefined,undefined,undefined,undefined,undefined,undefined,undefined,undefined,undefined,undefined,undefined,undefined,undefined,undefined,undefined,undefined,undefined,undefined,undefined,undefined,undefined,
jewe1d3yzo,undefined,undefined,undefined,undefined,117,35,6,DIANA,DIANA,true,1783.6749999986496,undefined,undefined,undefined,undefined,undefined,undefined,undefined,undefined,undefined,undefined,undefined,undefined,undefined,undefined,undefined,undefined,undefined,undefined,undefined,undefined,undefined,undefined,undefined,undefined,
jewe1d3yzo,undefined,undefined,undefined,undefined,118,14,6,NICK,NICK,true,2225.33999999729,undefined,undefined,undefined,undefined,undefined,undefined,undefined,undefined,undefined,undefined,undefined,undefined,undefined,undefined,undefined,undefined,undefined,undefined,undefined,undefined,undefined,undefined,undefined,undefined,
jewe1d3yzo,undefined,undefined,undefined,undefined,119,1,6,KEVIN,KEVIN,true,2193.929999993881,undefined,undefined,undefined,undefined,undefined,undefined,undefined,undefined,undefined,undefined,undefined,undefined,undefined,undefined,undefined,undefined,undefined,undefined,undefined,undefined,undefined,undefined,undefined,undefined,
jewe1d3yzo,undefined,undefined,undefined,undefined,120,2,6,KYLE,JOSH,false,3715.729999996256,undefined,undefined,undefined,undefined,undefined,undefined,undefined,undefined,undefined,undefined,undefined,undefined,undefined,undefined,undefined,undefined,undefined,undefined,undefined,undefined,undefined,undefined,undefined,undefined,
