SubNum,SubNum_demo,Exp_start_time,Exp_today_date,Exp_today_time,TrialNum,Condition,Face,Name,Response,NameAcc,RespTime,StudyTrialNum,StudyFace,StudyContext,StudyFamCond,TestTrialNum,TestFace,TestContext,TestSDCond,TestFamCond,TestResponse,TestResponseTime,Exp_end_time,Distractor_1_duration,Distractor_2_duration,
w2ojncoqzx,94a0gjmn0g,Sat Nov 21 2020 16:15:42 GMT-0600 (Central Standard Time),2020-11-21,16:15:42,1,Familiar,34,NA,NA,NA,NA,1,6,31,0,1,27,4,0,1,1,2386.0899999854155,16:34:49,120323.42999998946,61399.30999997887,
w2ojncoqzx,undefined,undefined,undefined,undefined,2,Familiar,24,NA,NA,NA,NA,2,14,36,0,2,24,35,0,0,0,1051.0400000202935,undefined,undefined,undefined,
w2ojncoqzx,undefined,undefined,undefined,undefined,3,Know,35,SOFIA,SOFIA,true,2250.004999979865,3,12,30,1,3,17,14,0,2,0,1360.3250000160187,undefined,undefined,undefined,
w2ojncoqzx,undefined,undefined,undefined,undefined,4,Know,12,STEPHANIE,STEPHANIE,true,3203.8699999975506,4,25,29,2,4,3,16,0,0,0,803.940000012517,undefined,undefined,undefined,
w2ojncoqzx,undefined,undefined,undefined,undefined,5,Familiar,14,NA,NA,NA,NA,5,18,3,2,5,14,36,0,0,0,3268.565000005765,undefined,undefined,undefined,
w2ojncoqzx,undefined,undefined,undefined,undefined,6,Familiar,31,NA,NA,NA,NA,6,9,18,0,6,4,27,1,0,1,1101.6099999833386,undefined,undefined,undefined,
w2ojncoqzx,undefined,undefined,undefined,undefined,7,Know,20,BRITTANY,BRITTANY,true,1720.8600000012666,7,5,2,2,7,8,6,0,2,1,585.705000004964,undefined,undefined,undefined,
w2ojncoqzx,undefined,undefined,undefined,undefined,8,Know,30,NICOLE,NICOLE,true,2330.405000015162,8,17,14,2,8,10,25,1,2,1,1861.1950000049546,undefined,undefined,undefined,
w2ojncoqzx,undefined,undefined,undefined,undefined,9,Familiar,3,NA,NA,NA,NA,9,13,10,1,9,21,9,1,0,1,845.0250000169035,undefined,undefined,undefined,
w2ojncoqzx,undefined,undefined,undefined,undefined,10,Familiar,6,NA,NA,NA,NA,10,15,21,0,10,28,33,1,2,1,759.9000000045635,undefined,undefined,undefined,
w2ojncoqzx,undefined,undefined,undefined,undefined,11,Know,27,ALEXIS,ALEXIS,true,1480.0049999903422,11,35,22,1,11,13,19,1,1,0,664.8500000010245,undefined,undefined,undefined,
w2ojncoqzx,undefined,undefined,undefined,undefined,12,Know,32,ELIZABETH,ELIZABETH,true,2421.1749999958556,12,36,8,2,12,1,10,1,1,1,2477.375000016764,undefined,undefined,undefined,
w2ojncoqzx,undefined,undefined,undefined,undefined,13,Familiar,15,NA,NA,NA,NA,13,4,9,0,13,31,34,0,0,1,2241.3099999830592,undefined,undefined,undefined,
w2ojncoqzx,undefined,undefined,undefined,undefined,14,Know,19,ASHLEY,ASHLEY,true,1624.1750000044703,14,24,35,0,14,29,20,1,1,1,640.8550000051036,undefined,undefined,undefined,
w2ojncoqzx,undefined,undefined,undefined,undefined,15,Familiar,11,NA,NA,NA,NA,15,8,6,2,15,25,29,0,2,0,1859.7249999875203,undefined,undefined,undefined,
w2ojncoqzx,undefined,undefined,undefined,undefined,16,Familiar,4,NA,NA,NA,NA,16,11,7,0,16,26,28,1,1,0,593.7300000223331,undefined,undefined,undefined,
w2ojncoqzx,undefined,undefined,undefined,undefined,17,Know,13,AUDREY,AUDREY,true,1585.350000008475,17,29,28,1,17,30,12,0,1,0,579.859999998007,undefined,undefined,undefined,
w2ojncoqzx,undefined,undefined,undefined,undefined,18,Familiar,9,NA,NA,NA,NA,18,23,24,2,18,22,23,1,1,1,1935.475000005681,undefined,undefined,undefined,
w2ojncoqzx,undefined,undefined,undefined,undefined,19,Know,22,REBECCA,REBECCA,true,1324.5549999992363,19,31,34,0,19,9,21,1,0,1,1933.5300000093412,undefined,undefined,undefined,
w2ojncoqzx,undefined,undefined,undefined,undefined,20,Know,26,KAREN,KAREN,true,1553.2850000017788,20,21,27,0,20,5,2,0,2,0,1826.809999998659,undefined,undefined,undefined,
w2ojncoqzx,undefined,undefined,undefined,undefined,21,Familiar,21,NA,NA,NA,NA,21,26,20,1,21,15,18,1,0,0,1692.5700000138022,undefined,undefined,undefined,
w2ojncoqzx,undefined,undefined,undefined,undefined,22,Know,29,MEGAN,MEGAN,true,1233.15499999444,22,2,26,2,22,2,26,0,2,1,1015.1650000188965,undefined,undefined,undefined,
w2ojncoqzx,undefined,undefined,undefined,undefined,23,Know,1,RACHEL,RACHEL,true,1552.2499999788124,23,27,4,1,23,34,1,0,0,0,1489.690000016708,undefined,undefined,undefined,
w2ojncoqzx,undefined,undefined,undefined,undefined,24,Familiar,7,NA,NA,NA,NA,24,33,32,2,24,23,32,1,2,0,528.3550000167452,undefined,undefined,undefined,
w2ojncoqzx,undefined,undefined,undefined,undefined,25,Know,19,ASHLEY,ASHLEY,true,3617.790000018431,25,22,17,1,25,36,8,0,2,0,1555.724999983795,undefined,undefined,undefined,
w2ojncoqzx,undefined,undefined,undefined,undefined,26,Familiar,24,NA,NA,NA,NA,26,3,16,0,26,7,7,1,0,1,926.5049999812618,undefined,undefined,undefined,
w2ojncoqzx,undefined,undefined,undefined,undefined,27,Know,30,NICOLE,MEGAN,false,2106.2850000162143,27,20,13,1,27,20,13,0,1,1,1145.63499999349,undefined,undefined,undefined,
w2ojncoqzx,undefined,undefined,undefined,undefined,28,Know,22,REBECCA,REBECCA,true,2608.8800000143237,28,30,12,1,28,11,11,1,0,1,1270.3050000127405,undefined,undefined,undefined,
w2ojncoqzx,undefined,undefined,undefined,undefined,29,Familiar,4,NA,NA,NA,NA,29,16,5,2,29,33,24,1,2,0,468.3050000166986,undefined,undefined,undefined,
w2ojncoqzx,undefined,undefined,undefined,undefined,30,Know,1,RACHEL,MEGAN,false,2840.4500000178814,30,10,33,2,30,12,30,0,1,0,2160.470000002533,undefined,undefined,undefined,
w2ojncoqzx,undefined,undefined,undefined,undefined,31,Know,29,MEGAN,MEGAN,true,1343.445000005886,31,1,19,1,31,6,31,0,0,0,1746.61499998183,undefined,undefined,undefined,
w2ojncoqzx,undefined,undefined,undefined,undefined,32,Familiar,3,NA,NA,NA,NA,32,19,23,1,32,19,17,1,1,1,655.1949999993667,undefined,undefined,undefined,
w2ojncoqzx,undefined,undefined,undefined,undefined,33,Know,35,SOFIA,STEPHANIE,false,4972.019999986514,33,34,1,0,33,18,5,1,2,0,1006.3650000083726,undefined,undefined,undefined,
w2ojncoqzx,undefined,undefined,undefined,undefined,34,Familiar,7,NA,NA,NA,NA,34,28,25,2,34,32,15,0,1,0,1097.7599999750964,undefined,undefined,undefined,
w2ojncoqzx,undefined,undefined,undefined,undefined,35,Familiar,9,NA,NA,NA,NA,35,32,15,1,35,16,3,1,2,1,1082.6649999944493,undefined,undefined,undefined,
w2ojncoqzx,undefined,undefined,undefined,undefined,36,Know,13,AUDREY,STEPHANIE,false,3627.245000010589,36,7,11,0,36,35,22,0,1,0,1051.004999986617,undefined,undefined,undefined,
w2ojncoqzx,undefined,undefined,undefined,undefined,37,Know,12,STEPHANIE,STEPHANIE,true,1633.0550000129733,37,25,29,2,undefined,undefined,undefined,undefined,undefined,undefined,undefined,undefined,undefined,undefined,
w2ojncoqzx,undefined,undefined,undefined,undefined,38,Familiar,6,NA,NA,NA,NA,38,11,7,0,undefined,undefined,undefined,undefined,undefined,undefined,undefined,undefined,undefined,undefined,
w2ojncoqzx,undefined,undefined,undefined,undefined,39,Familiar,11,NA,NA,NA,NA,39,35,22,1,undefined,undefined,undefined,undefined,undefined,undefined,undefined,undefined,undefined,undefined,
w2ojncoqzx,undefined,undefined,undefined,undefined,40,Know,27,ALEXIS,MEGAN,false,1898.1150000181515,40,30,12,1,undefined,undefined,undefined,undefined,undefined,undefined,undefined,undefined,undefined,undefined,
w2ojncoqzx,undefined,undefined,undefined,undefined,41,Familiar,21,NA,NA,NA,NA,41,23,24,2,undefined,undefined,undefined,undefined,undefined,undefined,undefined,undefined,undefined,undefined,
w2ojncoqzx,undefined,undefined,undefined,undefined,42,Know,32,ELIZABETH,NICOLE,false,2080.5399999953806,42,26,20,1,undefined,undefined,undefined,undefined,undefined,undefined,undefined,undefined,undefined,undefined,
w2ojncoqzx,undefined,undefined,undefined,undefined,43,Familiar,34,NA,NA,NA,NA,43,15,21,0,undefined,undefined,undefined,undefined,undefined,undefined,undefined,undefined,undefined,undefined,
w2ojncoqzx,undefined,undefined,undefined,undefined,44,Familiar,15,NA,NA,NA,NA,44,7,11,0,undefined,undefined,undefined,undefined,undefined,undefined,undefined,undefined,undefined,undefined,
w2ojncoqzx,undefined,undefined,undefined,undefined,45,Know,20,BRITTANY,MEGAN,false,3217.6949999993667,45,10,33,2,undefined,undefined,undefined,undefined,undefined,undefined,undefined,undefined,undefined,undefined,
w2ojncoqzx,undefined,undefined,undefined,undefined,46,Know,26,KAREN,NICOLE,false,3383.059999992838,46,4,9,0,undefined,undefined,undefined,undefined,undefined,undefined,undefined,undefined,undefined,undefined,
w2ojncoqzx,undefined,undefined,undefined,undefined,47,Familiar,14,NA,NA,NA,NA,47,29,28,1,undefined,undefined,undefined,undefined,undefined,undefined,undefined,undefined,undefined,undefined,
w2ojncoqzx,undefined,undefined,undefined,undefined,48,Familiar,31,NA,NA,NA,NA,48,3,16,0,undefined,undefined,undefined,undefined,undefined,undefined,undefined,undefined,undefined,undefined,
w2ojncoqzx,undefined,undefined,undefined,undefined,49,Know,13,AUDREY,AUDREY,true,2719.939999980852,49,21,27,0,undefined,undefined,undefined,undefined,undefined,undefined,undefined,undefined,undefined,undefined,
w2ojncoqzx,undefined,undefined,undefined,undefined,50,Familiar,11,NA,NA,NA,NA,50,19,23,1,undefined,undefined,undefined,undefined,undefined,undefined,undefined,undefined,undefined,undefined,
w2ojncoqzx,undefined,undefined,undefined,undefined,51,Know,20,BRITTANY,STEPHANIE,false,3561.1949999874923,51,20,13,1,undefined,undefined,undefined,undefined,undefined,undefined,undefined,undefined,undefined,undefined,
w2ojncoqzx,undefined,undefined,undefined,undefined,52,Familiar,9,NA,NA,NA,NA,52,9,18,0,undefined,undefined,undefined,undefined,undefined,undefined,undefined,undefined,undefined,undefined,
w2ojncoqzx,undefined,undefined,undefined,undefined,53,Familiar,15,NA,NA,NA,NA,53,31,34,0,undefined,undefined,undefined,undefined,undefined,undefined,undefined,undefined,undefined,undefined,
w2ojncoqzx,undefined,undefined,undefined,undefined,54,Know,19,ASHLEY,STEPHANIE,false,2482.239999982994,54,12,30,1,undefined,undefined,undefined,undefined,undefined,undefined,undefined,undefined,undefined,undefined,
w2ojncoqzx,undefined,undefined,undefined,undefined,55,Familiar,14,NA,NA,NA,NA,55,6,31,0,undefined,undefined,undefined,undefined,undefined,undefined,undefined,undefined,undefined,undefined,
w2ojncoqzx,undefined,undefined,undefined,undefined,56,Familiar,3,NA,NA,NA,NA,56,16,5,2,undefined,undefined,undefined,undefined,undefined,undefined,undefined,undefined,undefined,undefined,
w2ojncoqzx,undefined,undefined,undefined,undefined,57,Know,35,SOFIA,STEPHANIE,false,3589.395000017248,57,36,8,2,undefined,undefined,undefined,undefined,undefined,undefined,undefined,undefined,undefined,undefined,
w2ojncoqzx,undefined,undefined,undefined,undefined,58,Know,32,ELIZABETH,BRITTANY,false,2775.6050000025425,58,13,10,1,undefined,undefined,undefined,undefined,undefined,undefined,undefined,undefined,undefined,undefined,
w2ojncoqzx,undefined,undefined,undefined,undefined,59,Familiar,21,NA,NA,NA,NA,59,32,15,1,undefined,undefined,undefined,undefined,undefined,undefined,undefined,undefined,undefined,undefined,
w2ojncoqzx,undefined,undefined,undefined,undefined,60,Know,1,RACHEL,AUDREY,false,3419.6399999782443,60,8,6,2,undefined,undefined,undefined,undefined,undefined,undefined,undefined,undefined,undefined,undefined,
w2ojncoqzx,undefined,undefined,undefined,undefined,61,Know,30,NICOLE,STEPHANIE,false,3492.5100000109524,61,17,14,2,undefined,undefined,undefined,undefined,undefined,undefined,undefined,undefined,undefined,undefined,
w2ojncoqzx,undefined,undefined,undefined,undefined,62,Familiar,7,NA,NA,NA,NA,62,24,35,0,undefined,undefined,undefined,undefined,undefined,undefined,undefined,undefined,undefined,undefined,
w2ojncoqzx,undefined,undefined,undefined,undefined,63,Know,27,ALEXIS,BRITTANY,false,2658.54499998386,63,5,2,2,undefined,undefined,undefined,undefined,undefined,undefined,undefined,undefined,undefined,undefined,
w2ojncoqzx,undefined,undefined,undefined,undefined,64,Familiar,31,NA,NA,NA,NA,64,1,19,1,undefined,undefined,undefined,undefined,undefined,undefined,undefined,undefined,undefined,undefined,
w2ojncoqzx,undefined,undefined,undefined,undefined,65,Familiar,6,NA,NA,NA,NA,65,33,32,2,undefined,undefined,undefined,undefined,undefined,undefined,undefined,undefined,undefined,undefined,
w2ojncoqzx,undefined,undefined,undefined,undefined,66,Know,26,KAREN,KAREN,true,1974.3699999817181,66,28,25,2,undefined,undefined,undefined,undefined,undefined,undefined,undefined,undefined,undefined,undefined,
w2ojncoqzx,undefined,undefined,undefined,undefined,67,Familiar,4,NA,NA,NA,NA,67,14,36,0,undefined,undefined,undefined,undefined,undefined,undefined,undefined,undefined,undefined,undefined,
w2ojncoqzx,undefined,undefined,undefined,undefined,68,Know,22,REBECCA,REBECCA,true,3722.379999991972,68,34,1,0,undefined,undefined,undefined,undefined,undefined,undefined,undefined,undefined,undefined,undefined,
w2ojncoqzx,undefined,undefined,undefined,undefined,69,Familiar,24,NA,NA,NA,NA,69,2,26,2,undefined,undefined,undefined,undefined,undefined,undefined,undefined,undefined,undefined,undefined,
w2ojncoqzx,undefined,undefined,undefined,undefined,70,Familiar,34,NA,NA,NA,NA,70,18,3,2,undefined,undefined,undefined,undefined,undefined,undefined,undefined,undefined,undefined,undefined,
w2ojncoqzx,undefined,undefined,undefined,undefined,71,Know,29,MEGAN,RACHEL,false,5543.1099999987055,71,22,17,1,undefined,undefined,undefined,undefined,undefined,undefined,undefined,undefined,undefined,undefined,
w2ojncoqzx,undefined,undefined,undefined,undefined,72,Know,12,STEPHANIE,NICOLE,false,2278.870000009192,72,27,4,1,undefined,undefined,undefined,undefined,undefined,undefined,undefined,undefined,undefined,undefined,
w2ojncoqzx,undefined,undefined,undefined,undefined,73,Familiar,15,NA,NA,NA,NA,undefined,undefined,undefined,undefined,undefined,undefined,undefined,undefined,undefined,undefined,undefined,undefined,undefined,undefined,
w2ojncoqzx,undefined,undefined,undefined,undefined,74,Know,13,AUDREY,RACHEL,false,3883.5649999964517,undefined,undefined,undefined,undefined,undefined,undefined,undefined,undefined,undefined,undefined,undefined,undefined,undefined,undefined,
w2ojncoqzx,undefined,undefined,undefined,undefined,75,Know,19,ASHLEY,BRITTANY,false,6494.714999978896,undefined,undefined,undefined,undefined,undefined,undefined,undefined,undefined,undefined,undefined,undefined,undefined,undefined,undefined,
w2ojncoqzx,undefined,undefined,undefined,undefined,76,Familiar,6,NA,NA,NA,NA,undefined,undefined,undefined,undefined,undefined,undefined,undefined,undefined,undefined,undefined,undefined,undefined,undefined,undefined,
w2ojncoqzx,undefined,undefined,undefined,undefined,77,Know,27,ALEXIS,STEPHANIE,false,3435.7700000109617,undefined,undefined,undefined,undefined,undefined,undefined,undefined,undefined,undefined,undefined,undefined,undefined,undefined,undefined,
w2ojncoqzx,undefined,undefined,undefined,undefined,78,Know,26,KAREN,KAREN,true,4233.630000002449,undefined,undefined,undefined,undefined,undefined,undefined,undefined,undefined,undefined,undefined,undefined,undefined,undefined,undefined,
w2ojncoqzx,undefined,undefined,undefined,undefined,79,Familiar,11,NA,NA,NA,NA,undefined,undefined,undefined,undefined,undefined,undefined,undefined,undefined,undefined,undefined,undefined,undefined,undefined,undefined,
w2ojncoqzx,undefined,undefined,undefined,undefined,80,Familiar,3,NA,NA,NA,NA,undefined,undefined,undefined,undefined,undefined,undefined,undefined,undefined,undefined,undefined,undefined,undefined,undefined,undefined,
w2ojncoqzx,undefined,undefined,undefined,undefined,81,Know,1,RACHEL,RACHEL,true,1412.194999982603,undefined,undefined,undefined,undefined,undefined,undefined,undefined,undefined,undefined,undefined,undefined,undefined,undefined,undefined,
w2ojncoqzx,undefined,undefined,undefined,undefined,82,Know,32,ELIZABETH,NICOLE,false,4477.005000022473,undefined,undefined,undefined,undefined,undefined,undefined,undefined,undefined,undefined,undefined,undefined,undefined,undefined,undefined,
w2ojncoqzx,undefined,undefined,undefined,undefined,83,Familiar,31,NA,NA,NA,NA,undefined,undefined,undefined,undefined,undefined,undefined,undefined,undefined,undefined,undefined,undefined,undefined,undefined,undefined,
w2ojncoqzx,undefined,undefined,undefined,undefined,84,Familiar,34,NA,NA,NA,NA,undefined,undefined,undefined,undefined,undefined,undefined,undefined,undefined,undefined,undefined,undefined,undefined,undefined,undefined,
w2ojncoqzx,undefined,undefined,undefined,undefined,85,Know,22,REBECCA,REBECCA,true,2681.140000000596,undefined,undefined,undefined,undefined,undefined,undefined,undefined,undefined,undefined,undefined,undefined,undefined,undefined,undefined,
w2ojncoqzx,undefined,undefined,undefined,undefined,86,Familiar,7,NA,NA,NA,NA,undefined,undefined,undefined,undefined,undefined,undefined,undefined,undefined,undefined,undefined,undefined,undefined,undefined,undefined,
w2ojncoqzx,undefined,undefined,undefined,undefined,87,Familiar,21,NA,NA,NA,NA,undefined,undefined,undefined,undefined,undefined,undefined,undefined,undefined,undefined,undefined,undefined,undefined,undefined,undefined,
w2ojncoqzx,undefined,undefined,undefined,undefined,88,Know,12,STEPHANIE,BRITTANY,false,3682.4149999883957,undefined,undefined,undefined,undefined,undefined,undefined,undefined,undefined,undefined,undefined,undefined,undefined,undefined,undefined,
w2ojncoqzx,undefined,undefined,undefined,undefined,89,Know,30,NICOLE,ASHLEY,false,2681.4749999903142,undefined,undefined,undefined,undefined,undefined,undefined,undefined,undefined,undefined,undefined,undefined,undefined,undefined,undefined,
w2ojncoqzx,undefined,undefined,undefined,undefined,90,Familiar,4,NA,NA,NA,NA,undefined,undefined,undefined,undefined,undefined,undefined,undefined,undefined,undefined,undefined,undefined,undefined,undefined,undefined,
w2ojncoqzx,undefined,undefined,undefined,undefined,91,Familiar,24,NA,NA,NA,NA,undefined,undefined,undefined,undefined,undefined,undefined,undefined,undefined,undefined,undefined,undefined,undefined,undefined,undefined,
w2ojncoqzx,undefined,undefined,undefined,undefined,92,Know,20,BRITTANY,AUDREY,false,3158.46999999485,undefined,undefined,undefined,undefined,undefined,undefined,undefined,undefined,undefined,undefined,undefined,undefined,undefined,undefined,
w2ojncoqzx,undefined,undefined,undefined,undefined,93,Know,29,MEGAN,MEGAN,true,2921.4199999987613,undefined,undefined,undefined,undefined,undefined,undefined,undefined,undefined,undefined,undefined,undefined,undefined,undefined,undefined,
w2ojncoqzx,undefined,undefined,undefined,undefined,94,Familiar,9,NA,NA,NA,NA,undefined,undefined,undefined,undefined,undefined,undefined,undefined,undefined,undefined,undefined,undefined,undefined,undefined,undefined,
w2ojncoqzx,undefined,undefined,undefined,undefined,95,Know,35,SOFIA,AUDREY,false,3965.0600000168197,undefined,undefined,undefined,undefined,undefined,undefined,undefined,undefined,undefined,undefined,undefined,undefined,undefined,undefined,
w2ojncoqzx,undefined,undefined,undefined,undefined,96,Familiar,14,NA,NA,NA,NA,undefined,undefined,undefined,undefined,undefined,undefined,undefined,undefined,undefined,undefined,undefined,undefined,undefined,undefined,
