SubNum,SubNum_demo,Exp_start_time,Exp_today_date,Exp_today_time,TrialNum,Condition,Face,Name,Response,NameAcc,RespTime,StudyTrialNum,StudyFace,StudyContext,StudyFamCond,TestTrialNum,TestFace,TestContext,TestSDCond,TestFamCond,TestResponse,TestResponseTime,Exp_end_time,Distractor_1_duration,Distractor_2_duration,
ra3mocz7xn,d4hdyq32pz,Mon Oct 19 2020 16:25:11 GMT-0500 (Central Daylight Time),2020-10-19,16:25:11,1,Know,29,SOFIA,SOFIA,true,2310.8350000002247,1,8,1,1,1,29,11,0,1,0,2336.5300000004936,16:45:27,121529.46499999962,60417.70999999973,
ra3mocz7xn,undefined,undefined,undefined,undefined,2,Familiar,25,NA,NA,NA,NA,2,31,26,1,2,3,36,1,0,1,2262.0849999985658,undefined,undefined,undefined,
ra3mocz7xn,undefined,undefined,undefined,undefined,3,Familiar,18,NA,NA,NA,NA,3,17,8,0,3,13,33,1,0,1,992.4499999997206,undefined,undefined,undefined,
ra3mocz7xn,undefined,undefined,undefined,undefined,4,Know,11,HANNAH,HANNAH,true,3969.3700000007084,4,16,7,0,4,20,35,1,1,1,1090.8399999989197,undefined,undefined,undefined,
ra3mocz7xn,undefined,undefined,undefined,undefined,5,Know,27,HAZEL,HAZEL,true,3314.3749999999272,5,34,22,2,5,10,2,1,2,1,1547.3199999995995,undefined,undefined,undefined,
ra3mocz7xn,undefined,undefined,undefined,undefined,6,Familiar,5,NA,NA,NA,NA,6,5,9,0,6,36,6,0,2,0,4915.885000000475,undefined,undefined,undefined,
ra3mocz7xn,undefined,undefined,undefined,undefined,7,Familiar,14,NA,NA,NA,NA,7,10,15,2,7,14,21,0,0,0,1053.3400000003166,undefined,undefined,undefined,
ra3mocz7xn,undefined,undefined,undefined,undefined,8,Know,7,SARAH,SARAH,true,1376.140000000305,8,33,18,2,8,12,28,0,2,0,2546.8650000002235,undefined,undefined,undefined,
ra3mocz7xn,undefined,undefined,undefined,undefined,9,Familiar,16,NA,NA,NA,NA,9,30,13,1,9,1,15,1,2,1,1033.839999999851,undefined,undefined,undefined,
ra3mocz7xn,undefined,undefined,undefined,undefined,10,Familiar,24,NA,NA,NA,NA,10,26,3,2,10,28,12,0,1,0,3858.2049999986775,undefined,undefined,undefined,
ra3mocz7xn,undefined,undefined,undefined,undefined,11,Know,28,ALYSSA,ALYSSA,true,1401.4299999999057,11,14,21,0,11,33,17,1,2,1,1612.0300000002608,undefined,undefined,undefined,
ra3mocz7xn,undefined,undefined,undefined,undefined,12,Know,15,ZOEY,ZOEY,true,1326.5000000010186,12,12,28,2,12,34,22,0,2,0,1161.4050000007264,undefined,undefined,undefined,
ra3mocz7xn,undefined,undefined,undefined,undefined,13,Familiar,22,NA,NA,NA,NA,13,35,4,2,13,7,14,0,1,0,953.4600000006612,undefined,undefined,undefined,
ra3mocz7xn,undefined,undefined,undefined,undefined,14,Know,31,MEGAN,MEGAN,true,1485.7799999990675,14,7,14,1,14,16,7,0,0,0,1277.5350000010803,undefined,undefined,undefined,
ra3mocz7xn,undefined,undefined,undefined,undefined,15,Familiar,6,NA,NA,NA,NA,15,9,27,0,15,19,29,1,1,1,1106.7550000008196,undefined,undefined,undefined,
ra3mocz7xn,undefined,undefined,undefined,undefined,16,Know,30,ASHLEY,ASHLEY,true,1738.760000000184,16,32,5,2,16,15,31,0,1,0,2755.624999999767,undefined,undefined,undefined,
ra3mocz7xn,undefined,undefined,undefined,undefined,17,Know,2,EMILY,EMILY,true,1273.7999999989988,17,20,29,1,17,35,4,0,2,0,952.5649999997113,undefined,undefined,undefined,
ra3mocz7xn,undefined,undefined,undefined,undefined,18,Familiar,17,NA,NA,NA,NA,18,25,24,0,18,24,20,0,0,0,1659.684999998659,undefined,undefined,undefined,
ra3mocz7xn,undefined,undefined,undefined,undefined,19,Familiar,3,NA,NA,NA,NA,19,22,32,0,19,11,23,0,1,0,938.9800000006799,undefined,undefined,undefined,
ra3mocz7xn,undefined,undefined,undefined,undefined,20,Know,20,AMANDA,AMANDA,true,1263.5649999993038,20,29,11,1,20,32,5,0,2,0,1000.8900000010617,undefined,undefined,undefined,
ra3mocz7xn,undefined,undefined,undefined,undefined,21,Familiar,13,NA,NA,NA,NA,21,4,34,2,21,25,24,0,0,0,1212.240000000922,undefined,undefined,undefined,
ra3mocz7xn,undefined,undefined,undefined,undefined,22,Familiar,9,NA,NA,NA,NA,22,36,6,2,22,8,13,1,1,1,1302.5249999992084,undefined,undefined,undefined,
ra3mocz7xn,undefined,undefined,undefined,undefined,23,Know,19,AUDREY,AUDREY,true,1281.6250000014552,23,24,20,0,23,4,34,0,2,0,1138.3499999993946,undefined,undefined,undefined,
ra3mocz7xn,undefined,undefined,undefined,undefined,24,Know,8,BRITTANY,BRITTANY,true,2813.0049999999464,24,23,17,2,24,23,18,1,2,1,1106.6599999994505,undefined,undefined,undefined,
ra3mocz7xn,undefined,undefined,undefined,undefined,25,Familiar,5,NA,NA,NA,NA,25,28,12,1,25,21,3,1,2,1,1176.3300000000745,undefined,undefined,undefined,
ra3mocz7xn,undefined,undefined,undefined,undefined,26,Familiar,18,NA,NA,NA,NA,26,3,33,0,26,27,19,0,1,1,1768.6400000003632,undefined,undefined,undefined,
ra3mocz7xn,undefined,undefined,undefined,undefined,27,Know,15,ZOEY,ZOEY,true,7418.0849999993225,27,15,31,1,27,30,1,1,1,1,6494.204999999143,undefined,undefined,undefined,
ra3mocz7xn,undefined,undefined,undefined,undefined,28,Know,29,SOFIA,SOFIA,true,3619.710000000865,28,11,23,1,28,26,10,1,2,1,817.8600000008009,undefined,undefined,undefined,
ra3mocz7xn,undefined,undefined,undefined,undefined,29,Familiar,14,NA,NA,NA,NA,29,1,2,2,29,22,8,1,0,1,813.5449999989942,undefined,undefined,undefined,
ra3mocz7xn,undefined,undefined,undefined,undefined,30,Familiar,13,NA,NA,NA,NA,30,18,16,0,30,31,25,1,1,1,1041.1349999995437,undefined,undefined,undefined,
ra3mocz7xn,undefined,undefined,undefined,undefined,31,Know,31,MEGAN,MEGAN,true,3325.820000000007,31,6,30,0,31,18,16,0,0,0,1110.6150000013877,undefined,undefined,undefined,
ra3mocz7xn,undefined,undefined,undefined,undefined,32,Know,2,EMILY,ALYSSA,false,4992.185000000929,32,19,35,1,32,17,32,1,0,1,3163.29000000027,undefined,undefined,undefined,
ra3mocz7xn,undefined,undefined,undefined,undefined,33,Familiar,6,NA,NA,NA,NA,33,21,10,2,33,9,30,1,0,1,815.4950000005774,undefined,undefined,undefined,
ra3mocz7xn,undefined,undefined,undefined,undefined,34,Familiar,25,NA,NA,NA,NA,34,27,19,1,34,6,27,1,0,1,1061.195000000298,undefined,undefined,undefined,
ra3mocz7xn,undefined,undefined,undefined,undefined,35,Know,30,ASHLEY,ALYSSA,false,4047.0900000000256,35,2,25,1,35,5,9,0,0,0,806.5800000003073,undefined,undefined,undefined,
ra3mocz7xn,undefined,undefined,undefined,undefined,36,Familiar,17,NA,NA,NA,NA,36,13,36,0,36,2,26,1,1,1,922.6450000004843,undefined,undefined,undefined,
ra3mocz7xn,undefined,undefined,undefined,undefined,37,Familiar,24,NA,NA,NA,NA,37,15,31,1,undefined,undefined,undefined,undefined,undefined,undefined,undefined,undefined,undefined,undefined,
ra3mocz7xn,undefined,undefined,undefined,undefined,38,Know,11,HANNAH,HANNAH,true,3453.6950000001234,38,26,3,2,undefined,undefined,undefined,undefined,undefined,undefined,undefined,undefined,undefined,undefined,
ra3mocz7xn,undefined,undefined,undefined,undefined,39,Know,7,SARAH,SARAH,true,2307.5649999991874,39,16,7,0,undefined,undefined,undefined,undefined,undefined,undefined,undefined,undefined,undefined,undefined,
ra3mocz7xn,undefined,undefined,undefined,undefined,40,Familiar,3,NA,NA,NA,NA,40,28,12,1,undefined,undefined,undefined,undefined,undefined,undefined,undefined,undefined,undefined,undefined,
ra3mocz7xn,undefined,undefined,undefined,undefined,41,Know,28,ALYSSA,ALYSSA,true,6837.589999999211,41,35,4,2,undefined,undefined,undefined,undefined,undefined,undefined,undefined,undefined,undefined,undefined,
ra3mocz7xn,undefined,undefined,undefined,undefined,42,Know,8,BRITTANY,BRITTANY,true,5143.49000000034,42,32,5,2,undefined,undefined,undefined,undefined,undefined,undefined,undefined,undefined,undefined,undefined,
ra3mocz7xn,undefined,undefined,undefined,undefined,43,Familiar,9,NA,NA,NA,NA,43,5,9,0,undefined,undefined,undefined,undefined,undefined,undefined,undefined,undefined,undefined,undefined,
ra3mocz7xn,undefined,undefined,undefined,undefined,44,Familiar,22,NA,NA,NA,NA,44,22,32,0,undefined,undefined,undefined,undefined,undefined,undefined,undefined,undefined,undefined,undefined,
ra3mocz7xn,undefined,undefined,undefined,undefined,45,Know,19,AUDREY,AUDREY,true,2316.5250000001397,45,36,6,2,undefined,undefined,undefined,undefined,undefined,undefined,undefined,undefined,undefined,undefined,
ra3mocz7xn,undefined,undefined,undefined,undefined,46,Familiar,16,NA,NA,NA,NA,46,29,11,1,undefined,undefined,undefined,undefined,undefined,undefined,undefined,undefined,undefined,undefined,
ra3mocz7xn,undefined,undefined,undefined,undefined,47,Know,20,AMANDA,AMANDA,true,6310.294999999343,47,23,17,2,undefined,undefined,undefined,undefined,undefined,undefined,undefined,undefined,undefined,undefined,
ra3mocz7xn,undefined,undefined,undefined,undefined,48,Know,27,HAZEL,EMILY,false,4163.495000000694,48,1,2,2,undefined,undefined,undefined,undefined,undefined,undefined,undefined,undefined,undefined,undefined,
ra3mocz7xn,undefined,undefined,undefined,undefined,49,Familiar,17,NA,NA,NA,NA,49,31,26,1,undefined,undefined,undefined,undefined,undefined,undefined,undefined,undefined,undefined,undefined,
ra3mocz7xn,undefined,undefined,undefined,undefined,50,Know,27,HAZEL,HAZEL,true,2033.4800000000396,50,4,34,2,undefined,undefined,undefined,undefined,undefined,undefined,undefined,undefined,undefined,undefined,
ra3mocz7xn,undefined,undefined,undefined,undefined,51,Know,7,SARAH,SARAH,true,2017.455000001064,51,8,1,1,undefined,undefined,undefined,undefined,undefined,undefined,undefined,undefined,undefined,undefined,
ra3mocz7xn,undefined,undefined,undefined,undefined,52,Familiar,6,NA,NA,NA,NA,52,24,20,0,undefined,undefined,undefined,undefined,undefined,undefined,undefined,undefined,undefined,undefined,
ra3mocz7xn,undefined,undefined,undefined,undefined,53,Know,28,ALYSSA,ALYSSA,true,6418.284999999742,53,6,30,0,undefined,undefined,undefined,undefined,undefined,undefined,undefined,undefined,undefined,undefined,
ra3mocz7xn,undefined,undefined,undefined,undefined,54,Familiar,3,NA,NA,NA,NA,54,10,15,2,undefined,undefined,undefined,undefined,undefined,undefined,undefined,undefined,undefined,undefined,
ra3mocz7xn,undefined,undefined,undefined,undefined,55,Familiar,5,NA,NA,NA,NA,55,30,13,1,undefined,undefined,undefined,undefined,undefined,undefined,undefined,undefined,undefined,undefined,
ra3mocz7xn,undefined,undefined,undefined,undefined,56,Know,30,ASHLEY,EMILY,false,5414.420000000973,56,18,16,0,undefined,undefined,undefined,undefined,undefined,undefined,undefined,undefined,undefined,undefined,
ra3mocz7xn,undefined,undefined,undefined,undefined,57,Know,11,HANNAH,HANNAH,true,2017.0699999998906,57,25,24,0,undefined,undefined,undefined,undefined,undefined,undefined,undefined,undefined,undefined,undefined,
ra3mocz7xn,undefined,undefined,undefined,undefined,58,Familiar,16,NA,NA,NA,NA,58,21,10,2,undefined,undefined,undefined,undefined,undefined,undefined,undefined,undefined,undefined,undefined,
ra3mocz7xn,undefined,undefined,undefined,undefined,59,Know,19,AUDREY,AUDREY,true,2161.055000000517,59,27,19,1,undefined,undefined,undefined,undefined,undefined,undefined,undefined,undefined,undefined,undefined,
ra3mocz7xn,undefined,undefined,undefined,undefined,60,Familiar,24,NA,NA,NA,NA,60,20,29,1,undefined,undefined,undefined,undefined,undefined,undefined,undefined,undefined,undefined,undefined,
ra3mocz7xn,undefined,undefined,undefined,undefined,61,Know,2,EMILY,EMILY,true,1615.3599999997532,61,3,33,0,undefined,undefined,undefined,undefined,undefined,undefined,undefined,undefined,undefined,undefined,
ra3mocz7xn,undefined,undefined,undefined,undefined,62,Know,29,SOFIA,SOFIA,true,2562.4399999997113,62,11,23,1,undefined,undefined,undefined,undefined,undefined,undefined,undefined,undefined,undefined,undefined,
ra3mocz7xn,undefined,undefined,undefined,undefined,63,Familiar,18,NA,NA,NA,NA,63,34,22,2,undefined,undefined,undefined,undefined,undefined,undefined,undefined,undefined,undefined,undefined,
ra3mocz7xn,undefined,undefined,undefined,undefined,64,Familiar,13,NA,NA,NA,NA,64,7,14,1,undefined,undefined,undefined,undefined,undefined,undefined,undefined,undefined,undefined,undefined,
ra3mocz7xn,undefined,undefined,undefined,undefined,65,Know,8,BRITTANY,BRITTANY,true,8777.090000001364,65,2,25,1,undefined,undefined,undefined,undefined,undefined,undefined,undefined,undefined,undefined,undefined,
ra3mocz7xn,undefined,undefined,undefined,undefined,66,Familiar,9,NA,NA,NA,NA,66,13,36,0,undefined,undefined,undefined,undefined,undefined,undefined,undefined,undefined,undefined,undefined,
ra3mocz7xn,undefined,undefined,undefined,undefined,67,Know,31,MEGAN,MEGAN,true,4031.065000000992,67,19,35,1,undefined,undefined,undefined,undefined,undefined,undefined,undefined,undefined,undefined,undefined,
ra3mocz7xn,undefined,undefined,undefined,undefined,68,Know,15,ZOEY,ZOEY,true,4516.300000001094,68,17,8,0,undefined,undefined,undefined,undefined,undefined,undefined,undefined,undefined,undefined,undefined,
ra3mocz7xn,undefined,undefined,undefined,undefined,69,Familiar,25,NA,NA,NA,NA,69,9,27,0,undefined,undefined,undefined,undefined,undefined,undefined,undefined,undefined,undefined,undefined,
ra3mocz7xn,undefined,undefined,undefined,undefined,70,Familiar,22,NA,NA,NA,NA,70,12,28,2,undefined,undefined,undefined,undefined,undefined,undefined,undefined,undefined,undefined,undefined,
ra3mocz7xn,undefined,undefined,undefined,undefined,71,Know,20,AMANDA,AMANDA,true,1762.9099999994505,71,33,18,2,undefined,undefined,undefined,undefined,undefined,undefined,undefined,undefined,undefined,undefined,
ra3mocz7xn,undefined,undefined,undefined,undefined,72,Familiar,14,NA,NA,NA,NA,72,14,21,0,undefined,undefined,undefined,undefined,undefined,undefined,undefined,undefined,undefined,undefined,
ra3mocz7xn,undefined,undefined,undefined,undefined,73,Familiar,24,NA,NA,NA,NA,undefined,undefined,undefined,undefined,undefined,undefined,undefined,undefined,undefined,undefined,undefined,undefined,undefined,undefined,
ra3mocz7xn,undefined,undefined,undefined,undefined,74,Know,11,HANNAH,HANNAH,true,1710.9749999999185,undefined,undefined,undefined,undefined,undefined,undefined,undefined,undefined,undefined,undefined,undefined,undefined,undefined,undefined,
ra3mocz7xn,undefined,undefined,undefined,undefined,75,Know,20,AMANDA,AMANDA,true,2255.8349999999627,undefined,undefined,undefined,undefined,undefined,undefined,undefined,undefined,undefined,undefined,undefined,undefined,undefined,undefined,
ra3mocz7xn,undefined,undefined,undefined,undefined,76,Familiar,5,NA,NA,NA,NA,undefined,undefined,undefined,undefined,undefined,undefined,undefined,undefined,undefined,undefined,undefined,undefined,undefined,undefined,
ra3mocz7xn,undefined,undefined,undefined,undefined,77,Familiar,14,NA,NA,NA,NA,undefined,undefined,undefined,undefined,undefined,undefined,undefined,undefined,undefined,undefined,undefined,undefined,undefined,undefined,
ra3mocz7xn,undefined,undefined,undefined,undefined,78,Know,7,SARAH,SARAH,true,2008.0299999989802,undefined,undefined,undefined,undefined,undefined,undefined,undefined,undefined,undefined,undefined,undefined,undefined,undefined,undefined,
ra3mocz7xn,undefined,undefined,undefined,undefined,79,Know,30,ASHLEY,ASHLEY,true,1820.6800000006333,undefined,undefined,undefined,undefined,undefined,undefined,undefined,undefined,undefined,undefined,undefined,undefined,undefined,undefined,
ra3mocz7xn,undefined,undefined,undefined,undefined,80,Familiar,3,NA,NA,NA,NA,undefined,undefined,undefined,undefined,undefined,undefined,undefined,undefined,undefined,undefined,undefined,undefined,undefined,undefined,
ra3mocz7xn,undefined,undefined,undefined,undefined,81,Know,2,EMILY,EMILY,true,1379.9799999997485,undefined,undefined,undefined,undefined,undefined,undefined,undefined,undefined,undefined,undefined,undefined,undefined,undefined,undefined,
ra3mocz7xn,undefined,undefined,undefined,undefined,82,Familiar,18,NA,NA,NA,NA,undefined,undefined,undefined,undefined,undefined,undefined,undefined,undefined,undefined,undefined,undefined,undefined,undefined,undefined,
ra3mocz7xn,undefined,undefined,undefined,undefined,83,Know,29,SOFIA,SOFIA,true,1696.3749999995343,undefined,undefined,undefined,undefined,undefined,undefined,undefined,undefined,undefined,undefined,undefined,undefined,undefined,undefined,
ra3mocz7xn,undefined,undefined,undefined,undefined,84,Know,28,ALYSSA,ALYSSA,true,3998.7149999997346,undefined,undefined,undefined,undefined,undefined,undefined,undefined,undefined,undefined,undefined,undefined,undefined,undefined,undefined,
ra3mocz7xn,undefined,undefined,undefined,undefined,85,Familiar,6,NA,NA,NA,NA,undefined,undefined,undefined,undefined,undefined,undefined,undefined,undefined,undefined,undefined,undefined,undefined,undefined,undefined,
ra3mocz7xn,undefined,undefined,undefined,undefined,86,Know,8,BRITTANY,BRITTANY,true,3294.31000000122,undefined,undefined,undefined,undefined,undefined,undefined,undefined,undefined,undefined,undefined,undefined,undefined,undefined,undefined,
ra3mocz7xn,undefined,undefined,undefined,undefined,87,Familiar,13,NA,NA,NA,NA,undefined,undefined,undefined,undefined,undefined,undefined,undefined,undefined,undefined,undefined,undefined,undefined,undefined,undefined,
ra3mocz7xn,undefined,undefined,undefined,undefined,88,Know,31,MEGAN,MEGAN,true,1681.9399999985471,undefined,undefined,undefined,undefined,undefined,undefined,undefined,undefined,undefined,undefined,undefined,undefined,undefined,undefined,
ra3mocz7xn,undefined,undefined,undefined,undefined,89,Familiar,16,NA,NA,NA,NA,undefined,undefined,undefined,undefined,undefined,undefined,undefined,undefined,undefined,undefined,undefined,undefined,undefined,undefined,
ra3mocz7xn,undefined,undefined,undefined,undefined,90,Know,15,ZOEY,ZOEY,true,2613.0400000001537,undefined,undefined,undefined,undefined,undefined,undefined,undefined,undefined,undefined,undefined,undefined,undefined,undefined,undefined,
ra3mocz7xn,undefined,undefined,undefined,undefined,91,Know,19,AUDREY,AUDREY,true,4288.060000000754,undefined,undefined,undefined,undefined,undefined,undefined,undefined,undefined,undefined,undefined,undefined,undefined,undefined,undefined,
ra3mocz7xn,undefined,undefined,undefined,undefined,92,Familiar,17,NA,NA,NA,NA,undefined,undefined,undefined,undefined,undefined,undefined,undefined,undefined,undefined,undefined,undefined,undefined,undefined,undefined,
ra3mocz7xn,undefined,undefined,undefined,undefined,93,Familiar,9,NA,NA,NA,NA,undefined,undefined,undefined,undefined,undefined,undefined,undefined,undefined,undefined,undefined,undefined,undefined,undefined,undefined,
ra3mocz7xn,undefined,undefined,undefined,undefined,94,Know,27,HAZEL,HAZEL,true,25341.37999999989,undefined,undefined,undefined,undefined,undefined,undefined,undefined,undefined,undefined,undefined,undefined,undefined,undefined,undefined,
ra3mocz7xn,undefined,undefined,undefined,undefined,95,Familiar,25,NA,NA,NA,NA,undefined,undefined,undefined,undefined,undefined,undefined,undefined,undefined,undefined,undefined,undefined,undefined,undefined,undefined,
ra3mocz7xn,undefined,undefined,undefined,undefined,96,Familiar,22,NA,NA,NA,NA,undefined,undefined,undefined,undefined,undefined,undefined,undefined,undefined,undefined,undefined,undefined,undefined,undefined,undefined,
