SubNum,SubNum_demo,Exp_start_time,Exp_today_date,Exp_today_time,TrialNum,FaceID,FaceImg,Name,Response,NameAcc,RespTime,StudyTrialNum,StudyFaceID,StudyFaceImg,StudyFamCond,StudyTime,TestTrialNum,TestFaceID,TestFaceImg,TestFamCond,TestStatusCond,TestResponse,TestResponseTime,Exp_end_time,Distractor_1_duration,Distractor_1_numT,Distractor_1_acc,Distractor_2_duration,Distractor_2_numT,Distractor_2_acc,StudyButtonRespTime,StudyButtonRespTime_mean,q1,q2,q3,
87h90rd5n6,58pj96ojx9,Tue Jan 05 2021 10:10:03 GMT-0800 (Pacific Standard Time),2021-1-5,10:10:3,1,32,4,LORY,LORY,true,23369.624999992084,1,29,1,1,4000,1,40,6,1,1,0,3433.0300000146963,10:45:11,144093.74500002014,31,97,118370.20499998471,50,82,2315.2049999916926,2278.7499999976717,No,,This experiment violated my safe space,
87h90rd5n6,undefined,undefined,undefined,undefined,2,17,4,ANDREW,ANDREW,true,3055.049999966286,2,9,1,1,4000,2,39,6,0,0,4,6306.964999996126,undefined,153030.51000001142,19,74,121999.54499996966,undefined,undefined,2156.360000022687,undefined,undefined,undefined,undefined,
87h90rd5n6,undefined,undefined,undefined,undefined,3,10,4,JOHN,JOHN,true,2173.6849999870174,3,1,1,0,4000,3,11,6,0,1,1,6007.345000049099,undefined,299419.36499997973,undefined,undefined,undefined,undefined,undefined,2230.554999958258,undefined,undefined,undefined,undefined,
87h90rd5n6,undefined,undefined,undefined,undefined,4,18,4,OLIVER,OLIVER,true,10702.789999952074,4,7,1,0,4000,4,21,6,1,0,5,2003.1999999773689,undefined,146388.96999997087,undefined,undefined,undefined,undefined,undefined,2412.880000018049,undefined,undefined,undefined,undefined,
87h90rd5n6,undefined,undefined,undefined,undefined,5,35,4,EVELYN,EVELYN,true,2437.915000016801,5,22,1,1,4000,5,1,6,0,0,5,1810.715000028722,undefined,299419.4199999911,undefined,undefined,undefined,undefined,undefined,undefined,undefined,undefined,undefined,undefined,
87h90rd5n6,undefined,undefined,undefined,undefined,6,40,4,DIANA,DIANA,true,3760.3799999924377,6,23,1,0,4000,6,4,6,1,1,0,6082.050000026356,undefined,undefined,undefined,undefined,undefined,undefined,undefined,undefined,undefined,undefined,undefined,undefined,
87h90rd5n6,undefined,undefined,undefined,undefined,7,21,4,NATALIE,NATALIE,true,6599.335000035353,7,39,1,0,4000,7,20,6,0,0,5,1680.2649999735877,undefined,undefined,undefined,undefined,undefined,undefined,undefined,undefined,undefined,undefined,undefined,undefined,
87h90rd5n6,undefined,undefined,undefined,undefined,8,2,4,JACOB,JACOB,true,9411.28000000026,8,24,1,1,4000,8,25,6,0,1,4,4720.66500002984,undefined,undefined,undefined,undefined,undefined,undefined,undefined,undefined,undefined,undefined,undefined,undefined,
87h90rd5n6,undefined,undefined,undefined,undefined,9,14,4,WAYNE,WAYNE,true,1672.0449999556877,9,30,1,1,4000,9,37,6,0,1,0,5145.279999997001,undefined,undefined,undefined,undefined,undefined,undefined,undefined,undefined,undefined,undefined,undefined,undefined,
87h90rd5n6,undefined,undefined,undefined,undefined,10,30,4,SARAH,SARAH,true,6510.164999985136,10,20,1,0,4000,10,29,6,1,0,5,1826.7600000253879,undefined,undefined,undefined,undefined,undefined,undefined,undefined,undefined,undefined,undefined,undefined,undefined,
87h90rd5n6,undefined,undefined,undefined,undefined,11,27,4,GRACE,GRACE,true,4368.515000038315,11,5,1,0,4000,11,34,6,1,1,4,4574.939999962226,undefined,undefined,undefined,undefined,undefined,undefined,undefined,undefined,undefined,undefined,undefined,undefined,
87h90rd5n6,undefined,undefined,undefined,undefined,12,34,4,LAUREN,LAUREN,true,5324.299999978393,12,17,1,1,4000,12,3,6,1,1,0,1855.6700000190176,undefined,undefined,undefined,undefined,undefined,undefined,undefined,undefined,undefined,undefined,undefined,undefined,
87h90rd5n6,undefined,undefined,undefined,undefined,13,3,4,KEVIN,KEVIN,true,3363.1750000058673,13,13,1,0,4000,13,19,6,1,1,5,2056.54499999946,undefined,undefined,undefined,undefined,undefined,undefined,undefined,undefined,undefined,undefined,undefined,undefined,
87h90rd5n6,undefined,undefined,undefined,undefined,14,22,4,JUDY,JUDY,true,2325.230000016745,14,33,1,0,4000,14,23,6,0,0,4,2632.735000050161,undefined,undefined,undefined,undefined,undefined,undefined,undefined,undefined,undefined,undefined,undefined,undefined,
87h90rd5n6,undefined,undefined,undefined,undefined,15,24,4,JESSICA,JESSICA,true,3251.730000018142,15,21,1,1,4000,15,16,6,1,0,5,1471.6200000257231,undefined,undefined,undefined,undefined,undefined,undefined,undefined,undefined,undefined,undefined,undefined,undefined,
87h90rd5n6,undefined,undefined,undefined,undefined,16,9,4,ALLEN,ALLEN,true,1716.6100000031292,16,18,1,1,4000,16,31,6,0,1,4,11496.58500001533,undefined,undefined,undefined,undefined,undefined,undefined,undefined,undefined,undefined,undefined,undefined,undefined,
87h90rd5n6,undefined,undefined,undefined,undefined,17,16,4,ROBERT,ROBERT,true,2271.100000012666,17,38,1,0,4000,17,38,6,0,0,4,3138.6749999946915,undefined,undefined,undefined,undefined,undefined,undefined,undefined,undefined,undefined,undefined,undefined,undefined,
87h90rd5n6,undefined,undefined,undefined,undefined,18,29,4,ROSE,ROSE,true,3112.4499999568798,18,26,1,0,4000,18,28,6,0,1,5,2969.5599999977276,undefined,undefined,undefined,undefined,undefined,undefined,undefined,undefined,undefined,undefined,undefined,undefined,
87h90rd5n6,undefined,undefined,undefined,undefined,19,4,4,TYLER,TYLER,true,2368.834999972023,19,16,1,1,4000,19,17,6,1,0,5,1383.9900000020862,undefined,undefined,undefined,undefined,undefined,undefined,undefined,undefined,undefined,undefined,undefined,undefined,
87h90rd5n6,undefined,undefined,undefined,undefined,20,19,4,JOSH,JOSH,true,5093.270000012126,20,14,1,1,4000,20,9,6,1,0,5,1735.8299999614246,undefined,undefined,undefined,undefined,undefined,undefined,undefined,undefined,undefined,undefined,undefined,undefined,
87h90rd5n6,undefined,undefined,undefined,undefined,21,32,5,LORY,LORY,true,19890.75000002049,undefined,undefined,undefined,undefined,undefined,21,27,6,1,1,0,1411.2500000046566,undefined,undefined,undefined,undefined,undefined,undefined,undefined,undefined,undefined,undefined,undefined,undefined,
87h90rd5n6,undefined,undefined,undefined,undefined,22,17,5,ANDREW,ANDREW,true,11901.539999991655,undefined,undefined,undefined,undefined,undefined,22,7,6,0,0,4,2153.214999998454,undefined,undefined,undefined,undefined,undefined,undefined,undefined,undefined,undefined,undefined,undefined,undefined,
87h90rd5n6,undefined,undefined,undefined,undefined,23,10,5,JOHN,ROBERT,false,5414.945000025909,undefined,undefined,undefined,undefined,undefined,23,35,6,1,1,4,4710.5849999934435,undefined,undefined,undefined,undefined,undefined,undefined,undefined,undefined,undefined,undefined,undefined,undefined,
87h90rd5n6,undefined,undefined,undefined,undefined,24,18,5,OLIVER,OLIVER,true,14141.364999988582,undefined,undefined,undefined,undefined,undefined,24,18,6,1,0,5,1619.1150000086054,undefined,undefined,undefined,undefined,undefined,undefined,undefined,undefined,undefined,undefined,undefined,undefined,
87h90rd5n6,undefined,undefined,undefined,undefined,25,35,5,EVELYN,DIANA,false,3836.70499996515,undefined,undefined,undefined,undefined,undefined,25,6,6,0,1,2,10144.380000012461,undefined,undefined,undefined,undefined,undefined,undefined,undefined,undefined,undefined,undefined,undefined,undefined,
87h90rd5n6,undefined,undefined,undefined,undefined,26,40,5,DIANA,DIANA,true,9399.28500005044,undefined,undefined,undefined,undefined,undefined,26,15,6,0,1,4,3112.0549999759533,undefined,undefined,undefined,undefined,undefined,undefined,undefined,undefined,undefined,undefined,undefined,undefined,
87h90rd5n6,undefined,undefined,undefined,undefined,27,21,5,NATALIE,NATALIE,true,8793.135000043549,undefined,undefined,undefined,undefined,undefined,27,24,6,1,0,4,4050.694999983534,undefined,undefined,undefined,undefined,undefined,undefined,undefined,undefined,undefined,undefined,undefined,undefined,
87h90rd5n6,undefined,undefined,undefined,undefined,28,2,5,JACOB,WAYNE,false,2748.7749999854714,undefined,undefined,undefined,undefined,undefined,28,36,6,0,1,4,5328.269999998156,undefined,undefined,undefined,undefined,undefined,undefined,undefined,undefined,undefined,undefined,undefined,undefined,
87h90rd5n6,undefined,undefined,undefined,undefined,29,14,5,WAYNE,TYLER,false,72935.51999999909,undefined,undefined,undefined,undefined,undefined,29,32,6,1,1,0,2992.9799999808893,undefined,undefined,undefined,undefined,undefined,undefined,undefined,undefined,undefined,undefined,undefined,undefined,
87h90rd5n6,undefined,undefined,undefined,undefined,30,30,5,SARAH,SARAH,true,11165.290000033565,undefined,undefined,undefined,undefined,undefined,30,26,6,0,0,5,2286.1699999775738,undefined,undefined,undefined,undefined,undefined,undefined,undefined,undefined,undefined,undefined,undefined,undefined,
87h90rd5n6,undefined,undefined,undefined,undefined,31,27,5,GRACE,GRACE,true,6159.309999959078,undefined,undefined,undefined,undefined,undefined,31,13,6,0,0,3,5282.04999997979,undefined,undefined,undefined,undefined,undefined,undefined,undefined,undefined,undefined,undefined,undefined,undefined,
87h90rd5n6,undefined,undefined,undefined,undefined,32,34,5,LAUREN,LAUREN,true,15640.625,undefined,undefined,undefined,undefined,undefined,32,14,6,1,0,5,1484.8500000080094,undefined,undefined,undefined,undefined,undefined,undefined,undefined,undefined,undefined,undefined,undefined,undefined,
87h90rd5n6,undefined,undefined,undefined,undefined,33,3,5,KEVIN,KEVIN,true,3104.6299999579787,undefined,undefined,undefined,undefined,undefined,33,33,6,0,0,1,2738.5149999754503,undefined,undefined,undefined,undefined,undefined,undefined,undefined,undefined,undefined,undefined,undefined,undefined,
87h90rd5n6,undefined,undefined,undefined,undefined,34,22,5,JUDY,NATALIE,false,11635.325000039302,undefined,undefined,undefined,undefined,undefined,34,2,6,1,1,4,2447.325000015553,undefined,undefined,undefined,undefined,undefined,undefined,undefined,undefined,undefined,undefined,undefined,undefined,
87h90rd5n6,undefined,undefined,undefined,undefined,35,24,5,JESSICA,DIANA,false,23063.685000000987,undefined,undefined,undefined,undefined,undefined,35,10,6,1,1,4,5759.849999973085,undefined,undefined,undefined,undefined,undefined,undefined,undefined,undefined,undefined,undefined,undefined,undefined,
87h90rd5n6,undefined,undefined,undefined,undefined,36,9,5,ALLEN,KEVIN,false,6000.479999987874,undefined,undefined,undefined,undefined,undefined,36,12,6,0,1,0,1751.7600000137463,undefined,undefined,undefined,undefined,undefined,undefined,undefined,undefined,undefined,undefined,undefined,undefined,
87h90rd5n6,undefined,undefined,undefined,undefined,37,16,5,ROBERT,JACOB,false,25002.810000034515,undefined,undefined,undefined,undefined,undefined,37,30,6,1,0,4,3836.6599999717437,undefined,undefined,undefined,undefined,undefined,undefined,undefined,undefined,undefined,undefined,undefined,undefined,
87h90rd5n6,undefined,undefined,undefined,undefined,38,29,5,ROSE,LAUREN,false,27580.620000022464,undefined,undefined,undefined,undefined,undefined,38,8,6,0,1,0,2162.624999997206,undefined,undefined,undefined,undefined,undefined,undefined,undefined,undefined,undefined,undefined,undefined,undefined,
87h90rd5n6,undefined,undefined,undefined,undefined,39,4,5,TYLER,TYLER,true,2446.1149999988265,undefined,undefined,undefined,undefined,undefined,39,22,6,1,0,5,1459.084999980405,undefined,undefined,undefined,undefined,undefined,undefined,undefined,undefined,undefined,undefined,undefined,undefined,
87h90rd5n6,undefined,undefined,undefined,undefined,40,19,5,JOSH,JOSH,true,1896.1450000060722,undefined,undefined,undefined,undefined,undefined,40,5,6,0,0,4,10081.810000003316,undefined,undefined,undefined,undefined,undefined,undefined,undefined,undefined,undefined,undefined,undefined,undefined,
87h90rd5n6,undefined,undefined,undefined,undefined,41,4,8,TYLER,TYLER,true,20919.88499998115,undefined,undefined,undefined,undefined,undefined,undefined,undefined,undefined,undefined,undefined,undefined,undefined,undefined,undefined,undefined,undefined,undefined,undefined,undefined,undefined,undefined,undefined,undefined,undefined,
87h90rd5n6,undefined,undefined,undefined,undefined,42,35,8,EVELYN,LORY,false,26423.160000005737,undefined,undefined,undefined,undefined,undefined,undefined,undefined,undefined,undefined,undefined,undefined,undefined,undefined,undefined,undefined,undefined,undefined,undefined,undefined,undefined,undefined,undefined,undefined,undefined,
87h90rd5n6,undefined,undefined,undefined,undefined,43,14,8,WAYNE,WAYNE,true,19561.50999997044,undefined,undefined,undefined,undefined,undefined,undefined,undefined,undefined,undefined,undefined,undefined,undefined,undefined,undefined,undefined,undefined,undefined,undefined,undefined,undefined,undefined,undefined,undefined,undefined,
87h90rd5n6,undefined,undefined,undefined,undefined,44,2,8,JACOB,JACOB,true,12039.144999987911,undefined,undefined,undefined,undefined,undefined,undefined,undefined,undefined,undefined,undefined,undefined,undefined,undefined,undefined,undefined,undefined,undefined,undefined,undefined,undefined,undefined,undefined,undefined,undefined,
87h90rd5n6,undefined,undefined,undefined,undefined,45,22,8,JUDY,LAUREN,false,5046.470000001136,undefined,undefined,undefined,undefined,undefined,undefined,undefined,undefined,undefined,undefined,undefined,undefined,undefined,undefined,undefined,undefined,undefined,undefined,undefined,undefined,undefined,undefined,undefined,undefined,
87h90rd5n6,undefined,undefined,undefined,undefined,46,24,8,JESSICA,EVELYN,false,7564.5199999562465,undefined,undefined,undefined,undefined,undefined,undefined,undefined,undefined,undefined,undefined,undefined,undefined,undefined,undefined,undefined,undefined,undefined,undefined,undefined,undefined,undefined,undefined,undefined,undefined,
87h90rd5n6,undefined,undefined,undefined,undefined,47,29,8,ROSE,ROSE,true,7159.24000000814,undefined,undefined,undefined,undefined,undefined,undefined,undefined,undefined,undefined,undefined,undefined,undefined,undefined,undefined,undefined,undefined,undefined,undefined,undefined,undefined,undefined,undefined,undefined,undefined,
87h90rd5n6,undefined,undefined,undefined,undefined,48,27,8,GRACE,GRACE,true,11417.859999986831,undefined,undefined,undefined,undefined,undefined,undefined,undefined,undefined,undefined,undefined,undefined,undefined,undefined,undefined,undefined,undefined,undefined,undefined,undefined,undefined,undefined,undefined,undefined,undefined,
87h90rd5n6,undefined,undefined,undefined,undefined,49,40,8,DIANA,DIANA,true,2847.6450000307523,undefined,undefined,undefined,undefined,undefined,undefined,undefined,undefined,undefined,undefined,undefined,undefined,undefined,undefined,undefined,undefined,undefined,undefined,undefined,undefined,undefined,undefined,undefined,undefined,
87h90rd5n6,undefined,undefined,undefined,undefined,50,21,8,NATALIE,NATALIE,true,9708.975000015926,undefined,undefined,undefined,undefined,undefined,undefined,undefined,undefined,undefined,undefined,undefined,undefined,undefined,undefined,undefined,undefined,undefined,undefined,undefined,undefined,undefined,undefined,undefined,undefined,
87h90rd5n6,undefined,undefined,undefined,undefined,51,9,8,ALLEN,KEVIN,false,8564.475000021048,undefined,undefined,undefined,undefined,undefined,undefined,undefined,undefined,undefined,undefined,undefined,undefined,undefined,undefined,undefined,undefined,undefined,undefined,undefined,undefined,undefined,undefined,undefined,undefined,
87h90rd5n6,undefined,undefined,undefined,undefined,52,17,8,ANDREW,ANDY,false,16862.685000000056,undefined,undefined,undefined,undefined,undefined,undefined,undefined,undefined,undefined,undefined,undefined,undefined,undefined,undefined,undefined,undefined,undefined,undefined,undefined,undefined,undefined,undefined,undefined,undefined,
87h90rd5n6,undefined,undefined,undefined,undefined,53,32,8,LORY,LORY,true,5987.695000017993,undefined,undefined,undefined,undefined,undefined,undefined,undefined,undefined,undefined,undefined,undefined,undefined,undefined,undefined,undefined,undefined,undefined,undefined,undefined,undefined,undefined,undefined,undefined,undefined,
87h90rd5n6,undefined,undefined,undefined,undefined,54,34,8,LAUREN,LAUREN,true,10251.910000049975,undefined,undefined,undefined,undefined,undefined,undefined,undefined,undefined,undefined,undefined,undefined,undefined,undefined,undefined,undefined,undefined,undefined,undefined,undefined,undefined,undefined,undefined,undefined,undefined,
87h90rd5n6,undefined,undefined,undefined,undefined,55,10,8,JOHN,JOHN,true,5803.460000024643,undefined,undefined,undefined,undefined,undefined,undefined,undefined,undefined,undefined,undefined,undefined,undefined,undefined,undefined,undefined,undefined,undefined,undefined,undefined,undefined,undefined,undefined,undefined,undefined,
87h90rd5n6,undefined,undefined,undefined,undefined,56,30,8,SARAH,GRACE,false,7450.865000020713,undefined,undefined,undefined,undefined,undefined,undefined,undefined,undefined,undefined,undefined,undefined,undefined,undefined,undefined,undefined,undefined,undefined,undefined,undefined,undefined,undefined,undefined,undefined,undefined,
87h90rd5n6,undefined,undefined,undefined,undefined,57,3,8,KEVIN,KEVIN,true,2000.6100000464357,undefined,undefined,undefined,undefined,undefined,undefined,undefined,undefined,undefined,undefined,undefined,undefined,undefined,undefined,undefined,undefined,undefined,undefined,undefined,undefined,undefined,undefined,undefined,undefined,
87h90rd5n6,undefined,undefined,undefined,undefined,58,18,8,OLIVER,JOHN,false,23437.304999970365,undefined,undefined,undefined,undefined,undefined,undefined,undefined,undefined,undefined,undefined,undefined,undefined,undefined,undefined,undefined,undefined,undefined,undefined,undefined,undefined,undefined,undefined,undefined,undefined,
87h90rd5n6,undefined,undefined,undefined,undefined,59,16,8,ROBERT,JACOB,false,12490.77999999281,undefined,undefined,undefined,undefined,undefined,undefined,undefined,undefined,undefined,undefined,undefined,undefined,undefined,undefined,undefined,undefined,undefined,undefined,undefined,undefined,undefined,undefined,undefined,undefined,
87h90rd5n6,undefined,undefined,undefined,undefined,60,19,8,JOSH,JOSH,true,2108.8200000231154,undefined,undefined,undefined,undefined,undefined,undefined,undefined,undefined,undefined,undefined,undefined,undefined,undefined,undefined,undefined,undefined,undefined,undefined,undefined,undefined,undefined,undefined,undefined,undefined,
87h90rd5n6,undefined,undefined,undefined,undefined,61,16,2,ROBERT,JACOB,false,2110.424999962561,undefined,undefined,undefined,undefined,undefined,undefined,undefined,undefined,undefined,undefined,undefined,undefined,undefined,undefined,undefined,undefined,undefined,undefined,undefined,undefined,undefined,undefined,undefined,undefined,
87h90rd5n6,undefined,undefined,undefined,undefined,62,3,2,KEVIN,KEVIN,true,1881.1100000166334,undefined,undefined,undefined,undefined,undefined,undefined,undefined,undefined,undefined,undefined,undefined,undefined,undefined,undefined,undefined,undefined,undefined,undefined,undefined,undefined,undefined,undefined,undefined,undefined,
87h90rd5n6,undefined,undefined,undefined,undefined,63,21,2,NATALIE,NATALIE,true,6590.214999974705,undefined,undefined,undefined,undefined,undefined,undefined,undefined,undefined,undefined,undefined,undefined,undefined,undefined,undefined,undefined,undefined,undefined,undefined,undefined,undefined,undefined,undefined,undefined,undefined,
87h90rd5n6,undefined,undefined,undefined,undefined,64,27,2,GRACE,GRACE,true,14335.97000001464,undefined,undefined,undefined,undefined,undefined,undefined,undefined,undefined,undefined,undefined,undefined,undefined,undefined,undefined,undefined,undefined,undefined,undefined,undefined,undefined,undefined,undefined,undefined,undefined,
87h90rd5n6,undefined,undefined,undefined,undefined,65,22,2,JUDY,JUDY,true,6190.055000013672,undefined,undefined,undefined,undefined,undefined,undefined,undefined,undefined,undefined,undefined,undefined,undefined,undefined,undefined,undefined,undefined,undefined,undefined,undefined,undefined,undefined,undefined,undefined,undefined,
87h90rd5n6,undefined,undefined,undefined,undefined,66,30,2,SARAH,SARAH,true,5845.780000032391,undefined,undefined,undefined,undefined,undefined,undefined,undefined,undefined,undefined,undefined,undefined,undefined,undefined,undefined,undefined,undefined,undefined,undefined,undefined,undefined,undefined,undefined,undefined,undefined,
87h90rd5n6,undefined,undefined,undefined,undefined,67,19,2,JOSH,JOSH,true,2152.990000031423,undefined,undefined,undefined,undefined,undefined,undefined,undefined,undefined,undefined,undefined,undefined,undefined,undefined,undefined,undefined,undefined,undefined,undefined,undefined,undefined,undefined,undefined,undefined,undefined,
87h90rd5n6,undefined,undefined,undefined,undefined,68,18,2,OLIVER,KEVIN,false,8952.9249999905,undefined,undefined,undefined,undefined,undefined,undefined,undefined,undefined,undefined,undefined,undefined,undefined,undefined,undefined,undefined,undefined,undefined,undefined,undefined,undefined,undefined,undefined,undefined,undefined,
87h90rd5n6,undefined,undefined,undefined,undefined,69,34,2,LAUREN,LAUREN,true,5630.550000001676,undefined,undefined,undefined,undefined,undefined,undefined,undefined,undefined,undefined,undefined,undefined,undefined,undefined,undefined,undefined,undefined,undefined,undefined,undefined,undefined,undefined,undefined,undefined,undefined,
87h90rd5n6,undefined,undefined,undefined,undefined,70,40,2,DIANA,DAINA,false,1684.0399999637157,undefined,undefined,undefined,undefined,undefined,undefined,undefined,undefined,undefined,undefined,undefined,undefined,undefined,undefined,undefined,undefined,undefined,undefined,undefined,undefined,undefined,undefined,undefined,undefined,
87h90rd5n6,undefined,undefined,undefined,undefined,71,14,2,WAYNE,WAYNE,true,3524.954999971669,undefined,undefined,undefined,undefined,undefined,undefined,undefined,undefined,undefined,undefined,undefined,undefined,undefined,undefined,undefined,undefined,undefined,undefined,undefined,undefined,undefined,undefined,undefined,undefined,
87h90rd5n6,undefined,undefined,undefined,undefined,72,35,2,EVELYN,EVELYN,true,4620.545000012498,undefined,undefined,undefined,undefined,undefined,undefined,undefined,undefined,undefined,undefined,undefined,undefined,undefined,undefined,undefined,undefined,undefined,undefined,undefined,undefined,undefined,undefined,undefined,undefined,
87h90rd5n6,undefined,undefined,undefined,undefined,73,32,2,LORY,LORY,true,13862.91500000516,undefined,undefined,undefined,undefined,undefined,undefined,undefined,undefined,undefined,undefined,undefined,undefined,undefined,undefined,undefined,undefined,undefined,undefined,undefined,undefined,undefined,undefined,undefined,undefined,
87h90rd5n6,undefined,undefined,undefined,undefined,74,29,2,ROSE,ROSE,true,2132.7349999919534,undefined,undefined,undefined,undefined,undefined,undefined,undefined,undefined,undefined,undefined,undefined,undefined,undefined,undefined,undefined,undefined,undefined,undefined,undefined,undefined,undefined,undefined,undefined,undefined,
87h90rd5n6,undefined,undefined,undefined,undefined,75,9,2,ALLEN,WANYE,false,15654.015000036452,undefined,undefined,undefined,undefined,undefined,undefined,undefined,undefined,undefined,undefined,undefined,undefined,undefined,undefined,undefined,undefined,undefined,undefined,undefined,undefined,undefined,undefined,undefined,undefined,
87h90rd5n6,undefined,undefined,undefined,undefined,76,17,2,ANDREW,ANDREW,true,6056.585000013001,undefined,undefined,undefined,undefined,undefined,undefined,undefined,undefined,undefined,undefined,undefined,undefined,undefined,undefined,undefined,undefined,undefined,undefined,undefined,undefined,undefined,undefined,undefined,undefined,
87h90rd5n6,undefined,undefined,undefined,undefined,77,2,2,JACOB,JACOB,true,11820.78500004718,undefined,undefined,undefined,undefined,undefined,undefined,undefined,undefined,undefined,undefined,undefined,undefined,undefined,undefined,undefined,undefined,undefined,undefined,undefined,undefined,undefined,undefined,undefined,undefined,
87h90rd5n6,undefined,undefined,undefined,undefined,78,4,2,TYLER,TYLER,true,2341.054999968037,undefined,undefined,undefined,undefined,undefined,undefined,undefined,undefined,undefined,undefined,undefined,undefined,undefined,undefined,undefined,undefined,undefined,undefined,undefined,undefined,undefined,undefined,undefined,undefined,
87h90rd5n6,undefined,undefined,undefined,undefined,79,10,2,JOHN,JOHN,true,6898.784999968484,undefined,undefined,undefined,undefined,undefined,undefined,undefined,undefined,undefined,undefined,undefined,undefined,undefined,undefined,undefined,undefined,undefined,undefined,undefined,undefined,undefined,undefined,undefined,undefined,
87h90rd5n6,undefined,undefined,undefined,undefined,80,24,2,JESSICA,LAUREN,false,2544.739999982994,undefined,undefined,undefined,undefined,undefined,undefined,undefined,undefined,undefined,undefined,undefined,undefined,undefined,undefined,undefined,undefined,undefined,undefined,undefined,undefined,undefined,undefined,undefined,undefined,
87h90rd5n6,undefined,undefined,undefined,undefined,81,29,3,ROSE,ROSE,true,1681.3850000035018,undefined,undefined,undefined,undefined,undefined,undefined,undefined,undefined,undefined,undefined,undefined,undefined,undefined,undefined,undefined,undefined,undefined,undefined,undefined,undefined,undefined,undefined,undefined,undefined,
87h90rd5n6,undefined,undefined,undefined,undefined,82,3,3,KEVIN,KEVIN,true,1846.7049999744631,undefined,undefined,undefined,undefined,undefined,undefined,undefined,undefined,undefined,undefined,undefined,undefined,undefined,undefined,undefined,undefined,undefined,undefined,undefined,undefined,undefined,undefined,undefined,undefined,
87h90rd5n6,undefined,undefined,undefined,undefined,83,19,3,JOSH,WAYNE,false,3720.6899999873713,undefined,undefined,undefined,undefined,undefined,undefined,undefined,undefined,undefined,undefined,undefined,undefined,undefined,undefined,undefined,undefined,undefined,undefined,undefined,undefined,undefined,undefined,undefined,undefined,
87h90rd5n6,undefined,undefined,undefined,undefined,84,10,3,JOHN,JOHN,true,2834.7300000023097,undefined,undefined,undefined,undefined,undefined,undefined,undefined,undefined,undefined,undefined,undefined,undefined,undefined,undefined,undefined,undefined,undefined,undefined,undefined,undefined,undefined,undefined,undefined,undefined,
87h90rd5n6,undefined,undefined,undefined,undefined,85,9,3,ALLEN,OLIVER,false,3573.0099999927916,undefined,undefined,undefined,undefined,undefined,undefined,undefined,undefined,undefined,undefined,undefined,undefined,undefined,undefined,undefined,undefined,undefined,undefined,undefined,undefined,undefined,undefined,undefined,undefined,
87h90rd5n6,undefined,undefined,undefined,undefined,86,27,3,GRACE,GRACE,true,2278.4000000101514,undefined,undefined,undefined,undefined,undefined,undefined,undefined,undefined,undefined,undefined,undefined,undefined,undefined,undefined,undefined,undefined,undefined,undefined,undefined,undefined,undefined,undefined,undefined,undefined,
87h90rd5n6,undefined,undefined,undefined,undefined,87,17,3,ANDREW,ANDREW,true,2443.9300000085495,undefined,undefined,undefined,undefined,undefined,undefined,undefined,undefined,undefined,undefined,undefined,undefined,undefined,undefined,undefined,undefined,undefined,undefined,undefined,undefined,undefined,undefined,undefined,undefined,
87h90rd5n6,undefined,undefined,undefined,undefined,88,24,3,JESSICA,EVELYN,false,4802.785000007134,undefined,undefined,undefined,undefined,undefined,undefined,undefined,undefined,undefined,undefined,undefined,undefined,undefined,undefined,undefined,undefined,undefined,undefined,undefined,undefined,undefined,undefined,undefined,undefined,
87h90rd5n6,undefined,undefined,undefined,undefined,89,2,3,JACOB,JACOB,true,8833.45500001451,undefined,undefined,undefined,undefined,undefined,undefined,undefined,undefined,undefined,undefined,undefined,undefined,undefined,undefined,undefined,undefined,undefined,undefined,undefined,undefined,undefined,undefined,undefined,undefined,
87h90rd5n6,undefined,undefined,undefined,undefined,90,34,3,LAUREN,EVELYN,false,6960.829999996349,undefined,undefined,undefined,undefined,undefined,undefined,undefined,undefined,undefined,undefined,undefined,undefined,undefined,undefined,undefined,undefined,undefined,undefined,undefined,undefined,undefined,undefined,undefined,undefined,
87h90rd5n6,undefined,undefined,undefined,undefined,91,32,3,LORY,LORY,true,2078.6000000080094,undefined,undefined,undefined,undefined,undefined,undefined,undefined,undefined,undefined,undefined,undefined,undefined,undefined,undefined,undefined,undefined,undefined,undefined,undefined,undefined,undefined,undefined,undefined,undefined,
87h90rd5n6,undefined,undefined,undefined,undefined,92,4,3,TYLER,TYLER,true,4100.87999998359,undefined,undefined,undefined,undefined,undefined,undefined,undefined,undefined,undefined,undefined,undefined,undefined,undefined,undefined,undefined,undefined,undefined,undefined,undefined,undefined,undefined,undefined,undefined,undefined,
87h90rd5n6,undefined,undefined,undefined,undefined,93,30,3,SARAH,SARAH,true,7838.214999996126,undefined,undefined,undefined,undefined,undefined,undefined,undefined,undefined,undefined,undefined,undefined,undefined,undefined,undefined,undefined,undefined,undefined,undefined,undefined,undefined,undefined,undefined,undefined,undefined,
87h90rd5n6,undefined,undefined,undefined,undefined,94,35,3,EVELYN,EVELYN,true,5505.629999970552,undefined,undefined,undefined,undefined,undefined,undefined,undefined,undefined,undefined,undefined,undefined,undefined,undefined,undefined,undefined,undefined,undefined,undefined,undefined,undefined,undefined,undefined,undefined,undefined,
87h90rd5n6,undefined,undefined,undefined,undefined,95,40,3,DIANA,DIANA,true,2016.4699999731965,undefined,undefined,undefined,undefined,undefined,undefined,undefined,undefined,undefined,undefined,undefined,undefined,undefined,undefined,undefined,undefined,undefined,undefined,undefined,undefined,undefined,undefined,undefined,undefined,
87h90rd5n6,undefined,undefined,undefined,undefined,96,21,3,NATALIE,NATALIE,true,20115.344999998342,undefined,undefined,undefined,undefined,undefined,undefined,undefined,undefined,undefined,undefined,undefined,undefined,undefined,undefined,undefined,undefined,undefined,undefined,undefined,undefined,undefined,undefined,undefined,undefined,
87h90rd5n6,undefined,undefined,undefined,undefined,97,18,3,OLIVER,ALLEN,false,6030.020000005607,undefined,undefined,undefined,undefined,undefined,undefined,undefined,undefined,undefined,undefined,undefined,undefined,undefined,undefined,undefined,undefined,undefined,undefined,undefined,undefined,undefined,undefined,undefined,undefined,
87h90rd5n6,undefined,undefined,undefined,undefined,98,22,3,JUDY,JUDY,true,9644.449999963399,undefined,undefined,undefined,undefined,undefined,undefined,undefined,undefined,undefined,undefined,undefined,undefined,undefined,undefined,undefined,undefined,undefined,undefined,undefined,undefined,undefined,undefined,undefined,undefined,
87h90rd5n6,undefined,undefined,undefined,undefined,99,16,3,ROBERT,JACOB,false,5113.505000015721,undefined,undefined,undefined,undefined,undefined,undefined,undefined,undefined,undefined,undefined,undefined,undefined,undefined,undefined,undefined,undefined,undefined,undefined,undefined,undefined,undefined,undefined,undefined,undefined,
87h90rd5n6,undefined,undefined,undefined,undefined,100,14,3,WAYNE,OLIVER,false,16433.889999985695,undefined,undefined,undefined,undefined,undefined,undefined,undefined,undefined,undefined,undefined,undefined,undefined,undefined,undefined,undefined,undefined,undefined,undefined,undefined,undefined,undefined,undefined,undefined,undefined,
87h90rd5n6,undefined,undefined,undefined,undefined,101,22,1,JUDY,JUDY,true,6454.889999993611,undefined,undefined,undefined,undefined,undefined,undefined,undefined,undefined,undefined,undefined,undefined,undefined,undefined,undefined,undefined,undefined,undefined,undefined,undefined,undefined,undefined,undefined,undefined,undefined,
87h90rd5n6,undefined,undefined,undefined,undefined,102,40,1,DIANA,DIANA,true,1744.8850000509992,undefined,undefined,undefined,undefined,undefined,undefined,undefined,undefined,undefined,undefined,undefined,undefined,undefined,undefined,undefined,undefined,undefined,undefined,undefined,undefined,undefined,undefined,undefined,undefined,
87h90rd5n6,undefined,undefined,undefined,undefined,103,9,1,ALLEN,ALLEN,true,3840.150000003632,undefined,undefined,undefined,undefined,undefined,undefined,undefined,undefined,undefined,undefined,undefined,undefined,undefined,undefined,undefined,undefined,undefined,undefined,undefined,undefined,undefined,undefined,undefined,undefined,
87h90rd5n6,undefined,undefined,undefined,undefined,104,35,1,EVELYN,EVELYN,true,3097.2949999850243,undefined,undefined,undefined,undefined,undefined,undefined,undefined,undefined,undefined,undefined,undefined,undefined,undefined,undefined,undefined,undefined,undefined,undefined,undefined,undefined,undefined,undefined,undefined,undefined,
87h90rd5n6,undefined,undefined,undefined,undefined,105,24,1,JESSICA,LAUREN,false,1913.1950000301003,undefined,undefined,undefined,undefined,undefined,undefined,undefined,undefined,undefined,undefined,undefined,undefined,undefined,undefined,undefined,undefined,undefined,undefined,undefined,undefined,undefined,undefined,undefined,undefined,
87h90rd5n6,undefined,undefined,undefined,undefined,106,21,1,NATALIE,NATALIE,true,2819.314999971539,undefined,undefined,undefined,undefined,undefined,undefined,undefined,undefined,undefined,undefined,undefined,undefined,undefined,undefined,undefined,undefined,undefined,undefined,undefined,undefined,undefined,undefined,undefined,undefined,
87h90rd5n6,undefined,undefined,undefined,undefined,107,16,1,ROBERT,ROBERT,true,21716.929999995045,undefined,undefined,undefined,undefined,undefined,undefined,undefined,undefined,undefined,undefined,undefined,undefined,undefined,undefined,undefined,undefined,undefined,undefined,undefined,undefined,undefined,undefined,undefined,undefined,
87h90rd5n6,undefined,undefined,undefined,undefined,108,34,1,LAUREN,LAUREN,true,2117.4100000062026,undefined,undefined,undefined,undefined,undefined,undefined,undefined,undefined,undefined,undefined,undefined,undefined,undefined,undefined,undefined,undefined,undefined,undefined,undefined,undefined,undefined,undefined,undefined,undefined,
87h90rd5n6,undefined,undefined,undefined,undefined,109,32,1,LORY,LORY,true,2962.0599999907427,undefined,undefined,undefined,undefined,undefined,undefined,undefined,undefined,undefined,undefined,undefined,undefined,undefined,undefined,undefined,undefined,undefined,undefined,undefined,undefined,undefined,undefined,undefined,undefined,
87h90rd5n6,undefined,undefined,undefined,undefined,110,3,1,KEVIN,KEVIN,true,2241.4800000260584,undefined,undefined,undefined,undefined,undefined,undefined,undefined,undefined,undefined,undefined,undefined,undefined,undefined,undefined,undefined,undefined,undefined,undefined,undefined,undefined,undefined,undefined,undefined,undefined,
87h90rd5n6,undefined,undefined,undefined,undefined,111,27,1,GRACE,GRACE,true,2399.4750000420026,undefined,undefined,undefined,undefined,undefined,undefined,undefined,undefined,undefined,undefined,undefined,undefined,undefined,undefined,undefined,undefined,undefined,undefined,undefined,undefined,undefined,undefined,undefined,undefined,
87h90rd5n6,undefined,undefined,undefined,undefined,112,19,1,JOSH,JOSH,true,2411.0799999907613,undefined,undefined,undefined,undefined,undefined,undefined,undefined,undefined,undefined,undefined,undefined,undefined,undefined,undefined,undefined,undefined,undefined,undefined,undefined,undefined,undefined,undefined,undefined,undefined,
87h90rd5n6,undefined,undefined,undefined,undefined,113,29,1,ROSE,ROSE,true,1655.3050000220537,undefined,undefined,undefined,undefined,undefined,undefined,undefined,undefined,undefined,undefined,undefined,undefined,undefined,undefined,undefined,undefined,undefined,undefined,undefined,undefined,undefined,undefined,undefined,undefined,
87h90rd5n6,undefined,undefined,undefined,undefined,114,17,1,ANDREW,ANDREW,true,2400.4800000111572,undefined,undefined,undefined,undefined,undefined,undefined,undefined,undefined,undefined,undefined,undefined,undefined,undefined,undefined,undefined,undefined,undefined,undefined,undefined,undefined,undefined,undefined,undefined,undefined,
87h90rd5n6,undefined,undefined,undefined,undefined,115,4,1,TYLER,TYLER,true,3918.8900000299327,undefined,undefined,undefined,undefined,undefined,undefined,undefined,undefined,undefined,undefined,undefined,undefined,undefined,undefined,undefined,undefined,undefined,undefined,undefined,undefined,undefined,undefined,undefined,undefined,
87h90rd5n6,undefined,undefined,undefined,undefined,116,2,1,JACOB,JACOB,true,5142.434999987017,undefined,undefined,undefined,undefined,undefined,undefined,undefined,undefined,undefined,undefined,undefined,undefined,undefined,undefined,undefined,undefined,undefined,undefined,undefined,undefined,undefined,undefined,undefined,undefined,
87h90rd5n6,undefined,undefined,undefined,undefined,117,10,1,JOHN,JOHN,true,4404.280000017025,undefined,undefined,undefined,undefined,undefined,undefined,undefined,undefined,undefined,undefined,undefined,undefined,undefined,undefined,undefined,undefined,undefined,undefined,undefined,undefined,undefined,undefined,undefined,undefined,
87h90rd5n6,undefined,undefined,undefined,undefined,118,30,1,SARAH,SARAH,true,7846.389999962412,undefined,undefined,undefined,undefined,undefined,undefined,undefined,undefined,undefined,undefined,undefined,undefined,undefined,undefined,undefined,undefined,undefined,undefined,undefined,undefined,undefined,undefined,undefined,undefined,
87h90rd5n6,undefined,undefined,undefined,undefined,119,14,1,WAYNE,WAYNE,true,10121.0199999623,undefined,undefined,undefined,undefined,undefined,undefined,undefined,undefined,undefined,undefined,undefined,undefined,undefined,undefined,undefined,undefined,undefined,undefined,undefined,undefined,undefined,undefined,undefined,undefined,
87h90rd5n6,undefined,undefined,undefined,undefined,120,18,1,OLIVER,ALLEN,false,4280.78499995172,undefined,undefined,undefined,undefined,undefined,undefined,undefined,undefined,undefined,undefined,undefined,undefined,undefined,undefined,undefined,undefined,undefined,undefined,undefined,undefined,undefined,undefined,undefined,undefined,
