SubNum,SubNum_demo,Exp_start_time,Exp_today_date,Exp_today_time,TrialNum,FaceID,FaceImg,Name,Response,NameAcc,RespTime,StudyTrialNum,StudyFaceID,StudyFaceImg,StudyFamCond,StudyTime,TestTrialNum,TestFaceID,TestFaceImg,TestFamCond,TestStatusCond,TestResponse,TestResponseTime,Exp_end_time,Distractor_1_duration,Distractor_1_numT,Distractor_1_acc,Distractor_2_duration,Distractor_2_numT,Distractor_2_acc,StudyButtonRespTime,StudyButtonRespTime_mean,q1,q2,q3,
bnva8oohrm,c5kca7qjq2,Mon Jan 04 2021 12:40:23 GMT-0600 (Central Standard Time),2021-1-4,12:40:23,1,40,5,AMBER,AMBER,true,2238.8150000479072,1,39,3,1,4000,1,22,1,0,0,4,5670.154999941587,13:6:37,147237.17999993823,32,94,116951.00999996066,49,71,2683.3250001072884,2400.595000013709,No,NA - I didn't recognize any of them.,,
bnva8oohrm,undefined,undefined,undefined,undefined,2,6,5,ANDREW,ANDREW,true,2758.0949999392033,2,4,3,1,4000,2,36,1,1,0,2,5848.509999923408,undefined,150225.37499992177,23,70,120986.71499988995,undefined,undefined,3475.354999769479,undefined,undefined,undefined,undefined,
bnva8oohrm,undefined,undefined,undefined,undefined,3,34,5,DIANA,DIANA,true,2051.994999870658,3,1,3,0,4000,3,29,1,1,0,5,4793.06499985978,undefined,303289.1899999231,undefined,undefined,undefined,undefined,undefined,1408.7700000964105,undefined,undefined,undefined,undefined,
bnva8oohrm,undefined,undefined,undefined,undefined,4,28,5,EMILY,EMILY,true,2172.169999917969,4,22,3,0,4000,4,1,1,0,0,3,2994.270000141114,undefined,153063.93499998376,undefined,undefined,undefined,undefined,undefined,2034.9300000816584,undefined,undefined,undefined,undefined,
bnva8oohrm,undefined,undefined,undefined,undefined,5,19,5,RYAN,RYAN,true,1797.7899999823421,5,14,3,1,4000,5,39,1,1,0,4,2785.9800001606345,undefined,303289.2799999099,undefined,undefined,undefined,undefined,undefined,undefined,undefined,undefined,undefined,undefined,
bnva8oohrm,undefined,undefined,undefined,undefined,6,36,5,ROSE,ROSE,true,1722.9950001928955,6,36,3,1,4000,6,18,1,0,0,2,1994.684999808669,undefined,undefined,undefined,undefined,undefined,undefined,undefined,undefined,undefined,undefined,undefined,undefined,
bnva8oohrm,undefined,undefined,undefined,undefined,7,39,5,JULIE,JULIE,true,2342.675000196323,7,26,3,0,4000,7,24,1,0,1,1,3804.4600000139326,undefined,undefined,undefined,undefined,undefined,undefined,undefined,undefined,undefined,undefined,undefined,undefined,
bnva8oohrm,undefined,undefined,undefined,undefined,8,7,5,TYLER,TYLER,true,2121.5099999681115,8,18,3,0,4000,8,16,1,0,0,4,4273.889999836683,undefined,undefined,undefined,undefined,undefined,undefined,undefined,undefined,undefined,undefined,undefined,undefined,
bnva8oohrm,undefined,undefined,undefined,undefined,9,8,5,KEVIN,KEVIN,true,1542.8299999330193,9,7,3,1,4000,9,7,1,1,0,5,1537.270000204444,undefined,undefined,undefined,undefined,undefined,undefined,undefined,undefined,undefined,undefined,undefined,undefined,
bnva8oohrm,undefined,undefined,undefined,undefined,10,13,5,BRANDON,BRANDON,true,1682.8900000546128,10,32,3,1,4000,10,13,1,1,1,2,3604.2549998965114,undefined,undefined,undefined,undefined,undefined,undefined,undefined,undefined,undefined,undefined,undefined,undefined,
bnva8oohrm,undefined,undefined,undefined,undefined,11,32,5,CHLOE,CHLOE,true,1659.1700001154095,11,12,3,0,4000,11,27,1,0,1,2,2544.2800000309944,undefined,undefined,undefined,undefined,undefined,undefined,undefined,undefined,undefined,undefined,undefined,undefined,
bnva8oohrm,undefined,undefined,undefined,undefined,12,11,5,CHRIS,CHRIS,true,2031.5050000790507,12,20,3,0,4000,12,6,1,1,1,2,1607.8749999869615,undefined,undefined,undefined,undefined,undefined,undefined,undefined,undefined,undefined,undefined,undefined,undefined,
bnva8oohrm,undefined,undefined,undefined,undefined,13,5,5,JOHN,JOHN,true,1383.2099998835474,13,35,3,1,4000,13,15,1,0,1,2,3276.425000047311,undefined,undefined,undefined,undefined,undefined,undefined,undefined,undefined,undefined,undefined,undefined,undefined,
bnva8oohrm,undefined,undefined,undefined,undefined,14,14,5,KYLE,KYLE,true,1224.4949999731034,14,21,3,0,4000,14,11,1,1,1,2,4941.085000056773,undefined,undefined,undefined,undefined,undefined,undefined,undefined,undefined,undefined,undefined,undefined,undefined,
bnva8oohrm,undefined,undefined,undefined,undefined,15,23,5,JESSICA,JESSICA,true,1915.5850000679493,15,33,3,0,4000,15,31,1,1,1,2,4859.389999881387,undefined,undefined,undefined,undefined,undefined,undefined,undefined,undefined,undefined,undefined,undefined,undefined,
bnva8oohrm,undefined,undefined,undefined,undefined,16,31,5,JANE,JANE,true,1216.275000013411,16,5,3,1,4000,16,20,1,0,0,1,2917.1200001146644,undefined,undefined,undefined,undefined,undefined,undefined,undefined,undefined,undefined,undefined,undefined,undefined,
bnva8oohrm,undefined,undefined,undefined,undefined,17,10,5,LOGAN,LOGAN,true,1309.6950000617653,17,29,3,1,4000,17,3,1,0,1,1,1985.7149999588728,undefined,undefined,undefined,undefined,undefined,undefined,undefined,undefined,undefined,undefined,undefined,undefined,
bnva8oohrm,undefined,undefined,undefined,undefined,18,4,5,NICK,NICK,true,1068.6250000726432,18,37,3,0,4000,18,30,1,0,1,0,2128.8350000977516,undefined,undefined,undefined,undefined,undefined,undefined,undefined,undefined,undefined,undefined,undefined,undefined,
bnva8oohrm,undefined,undefined,undefined,undefined,19,29,5,AMANDA,AMANDA,true,1493.175000185147,19,16,3,0,4000,19,34,1,1,1,2,5344.210000010207,undefined,undefined,undefined,undefined,undefined,undefined,undefined,undefined,undefined,undefined,undefined,undefined,
bnva8oohrm,undefined,undefined,undefined,undefined,20,35,5,LAUREN,LAUREN,true,1550.054999999702,20,19,3,1,4000,20,5,1,1,0,5,1876.79999996908,undefined,undefined,undefined,undefined,undefined,undefined,undefined,undefined,undefined,undefined,undefined,undefined,
bnva8oohrm,undefined,undefined,undefined,undefined,21,40,6,AMBER,AMBER,true,4392.310000024736,undefined,undefined,undefined,undefined,undefined,21,17,1,0,1,2,2198.050000006333,undefined,undefined,undefined,undefined,undefined,undefined,undefined,undefined,undefined,undefined,undefined,undefined,
bnva8oohrm,undefined,undefined,undefined,undefined,22,6,6,ANDREW,ANDREW,true,2450.3599999006838,undefined,undefined,undefined,undefined,undefined,22,12,1,0,0,1,2218.5450000688434,undefined,undefined,undefined,undefined,undefined,undefined,undefined,undefined,undefined,undefined,undefined,undefined,
bnva8oohrm,undefined,undefined,undefined,undefined,23,34,6,DIANA,DIANA,true,4524.1900000255555,undefined,undefined,undefined,undefined,undefined,23,35,1,1,0,3,4395.634999964386,undefined,undefined,undefined,undefined,undefined,undefined,undefined,undefined,undefined,undefined,undefined,undefined,
bnva8oohrm,undefined,undefined,undefined,undefined,24,28,6,EMILY,JESSICA,false,8029.880000045523,undefined,undefined,undefined,undefined,undefined,24,38,1,0,1,2,3284.5949998591095,undefined,undefined,undefined,undefined,undefined,undefined,undefined,undefined,undefined,undefined,undefined,undefined,
bnva8oohrm,undefined,undefined,undefined,undefined,25,19,6,RYAN,NICK,false,3097.119999816641,undefined,undefined,undefined,undefined,undefined,25,32,1,1,0,5,1872.4449998699129,undefined,undefined,undefined,undefined,undefined,undefined,undefined,undefined,undefined,undefined,undefined,undefined,
bnva8oohrm,undefined,undefined,undefined,undefined,26,36,6,ROSE,ROSE,true,2438.4749999735504,undefined,undefined,undefined,undefined,undefined,26,10,1,1,1,3,2471.8949999660254,undefined,undefined,undefined,undefined,undefined,undefined,undefined,undefined,undefined,undefined,undefined,undefined,
bnva8oohrm,undefined,undefined,undefined,undefined,27,39,6,JULIE,JESSICA,false,5439.250000054017,undefined,undefined,undefined,undefined,undefined,27,28,1,1,1,2,5490.304999984801,undefined,undefined,undefined,undefined,undefined,undefined,undefined,undefined,undefined,undefined,undefined,undefined,
bnva8oohrm,undefined,undefined,undefined,undefined,28,7,6,TYLER,RYAN,false,3627.800000132993,undefined,undefined,undefined,undefined,undefined,28,19,1,1,0,2,2225.8200000505894,undefined,undefined,undefined,undefined,undefined,undefined,undefined,undefined,undefined,undefined,undefined,undefined,
bnva8oohrm,undefined,undefined,undefined,undefined,29,8,6,KEVIN,KEVIN,true,2333.6450001224875,undefined,undefined,undefined,undefined,undefined,29,9,1,0,1,4,1917.0450000092387,undefined,undefined,undefined,undefined,undefined,undefined,undefined,undefined,undefined,undefined,undefined,undefined,
bnva8oohrm,undefined,undefined,undefined,undefined,30,13,6,BRANDON,ANDREW,false,6934.580000117421,undefined,undefined,undefined,undefined,undefined,30,23,1,1,1,2,1749.6700000483543,undefined,undefined,undefined,undefined,undefined,undefined,undefined,undefined,undefined,undefined,undefined,undefined,
bnva8oohrm,undefined,undefined,undefined,undefined,31,32,6,CHLOE,DIANA,false,5011.124999960884,undefined,undefined,undefined,undefined,undefined,31,25,1,0,1,4,2985.255000181496,undefined,undefined,undefined,undefined,undefined,undefined,undefined,undefined,undefined,undefined,undefined,undefined,
bnva8oohrm,undefined,undefined,undefined,undefined,32,11,6,CHRIS,ANDREW,false,5764.729999937117,undefined,undefined,undefined,undefined,undefined,32,21,1,0,0,2,1924.790000077337,undefined,undefined,undefined,undefined,undefined,undefined,undefined,undefined,undefined,undefined,undefined,undefined,
bnva8oohrm,undefined,undefined,undefined,undefined,33,5,6,JOHN,NICK,false,6501.295000081882,undefined,undefined,undefined,undefined,undefined,33,26,1,0,0,3,2399.6300001163036,undefined,undefined,undefined,undefined,undefined,undefined,undefined,undefined,undefined,undefined,undefined,undefined,
bnva8oohrm,undefined,undefined,undefined,undefined,34,14,6,KYLE,JOHN,false,8528.004999971017,undefined,undefined,undefined,undefined,undefined,34,40,1,1,1,0,1608.3599999547005,undefined,undefined,undefined,undefined,undefined,undefined,undefined,undefined,undefined,undefined,undefined,undefined,
bnva8oohrm,undefined,undefined,undefined,undefined,35,23,6,JESSICA,CHLOE,false,2986.8950000964105,undefined,undefined,undefined,undefined,undefined,35,8,1,1,1,3,4194.605000084266,undefined,undefined,undefined,undefined,undefined,undefined,undefined,undefined,undefined,undefined,undefined,undefined,
bnva8oohrm,undefined,undefined,undefined,undefined,36,31,6,JANE,CHLOE,false,4104.324999963865,undefined,undefined,undefined,undefined,undefined,36,2,1,0,1,2,1449.0400000941008,undefined,undefined,undefined,undefined,undefined,undefined,undefined,undefined,undefined,undefined,undefined,undefined,
bnva8oohrm,undefined,undefined,undefined,undefined,37,10,6,LOGAN,NICK,false,13799.979999894276,undefined,undefined,undefined,undefined,undefined,37,4,1,1,0,4,2307.384999934584,undefined,undefined,undefined,undefined,undefined,undefined,undefined,undefined,undefined,undefined,undefined,undefined,
bnva8oohrm,undefined,undefined,undefined,undefined,38,4,6,NICK,JOHN,false,3713.834999827668,undefined,undefined,undefined,undefined,undefined,38,33,1,0,0,3,3253.484999993816,undefined,undefined,undefined,undefined,undefined,undefined,undefined,undefined,undefined,undefined,undefined,undefined,
bnva8oohrm,undefined,undefined,undefined,undefined,39,29,6,AMANDA,JESSICA,false,6436.410000082105,undefined,undefined,undefined,undefined,undefined,39,37,1,0,0,1,2426.519999979064,undefined,undefined,undefined,undefined,undefined,undefined,undefined,undefined,undefined,undefined,undefined,undefined,
bnva8oohrm,undefined,undefined,undefined,undefined,40,35,6,LAUREN,DIANA,false,2321.659999899566,undefined,undefined,undefined,undefined,undefined,40,14,1,1,0,5,1611.8850000202656,undefined,undefined,undefined,undefined,undefined,undefined,undefined,undefined,undefined,undefined,undefined,undefined,
bnva8oohrm,undefined,undefined,undefined,undefined,41,8,2,KEVIN,KEVIN,true,2553.4800000023097,undefined,undefined,undefined,undefined,undefined,undefined,undefined,undefined,undefined,undefined,undefined,undefined,undefined,undefined,undefined,undefined,undefined,undefined,undefined,undefined,undefined,undefined,undefined,undefined,
bnva8oohrm,undefined,undefined,undefined,undefined,42,34,2,DIANA,ROSE,false,2966.1650001071393,undefined,undefined,undefined,undefined,undefined,undefined,undefined,undefined,undefined,undefined,undefined,undefined,undefined,undefined,undefined,undefined,undefined,undefined,undefined,undefined,undefined,undefined,undefined,undefined,
bnva8oohrm,undefined,undefined,undefined,undefined,43,6,2,ANDREW,TYLER,false,5664.644999895245,undefined,undefined,undefined,undefined,undefined,undefined,undefined,undefined,undefined,undefined,undefined,undefined,undefined,undefined,undefined,undefined,undefined,undefined,undefined,undefined,undefined,undefined,undefined,undefined,
bnva8oohrm,undefined,undefined,undefined,undefined,44,28,2,EMILY,DIANA,false,3977.1799999289215,undefined,undefined,undefined,undefined,undefined,undefined,undefined,undefined,undefined,undefined,undefined,undefined,undefined,undefined,undefined,undefined,undefined,undefined,undefined,undefined,undefined,undefined,undefined,undefined,
bnva8oohrm,undefined,undefined,undefined,undefined,45,14,2,KYLE,JOHN,false,3409.6950001548976,undefined,undefined,undefined,undefined,undefined,undefined,undefined,undefined,undefined,undefined,undefined,undefined,undefined,undefined,undefined,undefined,undefined,undefined,undefined,undefined,undefined,undefined,undefined,undefined,
bnva8oohrm,undefined,undefined,undefined,undefined,46,19,2,RYAN,LOGAN,false,13403.064999962226,undefined,undefined,undefined,undefined,undefined,undefined,undefined,undefined,undefined,undefined,undefined,undefined,undefined,undefined,undefined,undefined,undefined,undefined,undefined,undefined,undefined,undefined,undefined,undefined,
bnva8oohrm,undefined,undefined,undefined,undefined,47,29,2,AMANDA,EMILY,false,3384.2800001148134,undefined,undefined,undefined,undefined,undefined,undefined,undefined,undefined,undefined,undefined,undefined,undefined,undefined,undefined,undefined,undefined,undefined,undefined,undefined,undefined,undefined,undefined,undefined,undefined,
bnva8oohrm,undefined,undefined,undefined,undefined,48,40,2,AMBER,AMBER,true,2563.319999957457,undefined,undefined,undefined,undefined,undefined,undefined,undefined,undefined,undefined,undefined,undefined,undefined,undefined,undefined,undefined,undefined,undefined,undefined,undefined,undefined,undefined,undefined,undefined,undefined,
bnva8oohrm,undefined,undefined,undefined,undefined,49,10,2,LOGAN,JOHN,false,2523.0049998499453,undefined,undefined,undefined,undefined,undefined,undefined,undefined,undefined,undefined,undefined,undefined,undefined,undefined,undefined,undefined,undefined,undefined,undefined,undefined,undefined,undefined,undefined,undefined,undefined,
bnva8oohrm,undefined,undefined,undefined,undefined,50,31,2,JANE,DIANA,false,2468.5249999165535,undefined,undefined,undefined,undefined,undefined,undefined,undefined,undefined,undefined,undefined,undefined,undefined,undefined,undefined,undefined,undefined,undefined,undefined,undefined,undefined,undefined,undefined,undefined,undefined,
bnva8oohrm,undefined,undefined,undefined,undefined,51,32,2,CHLOE,JESSICA,false,3727.540000109002,undefined,undefined,undefined,undefined,undefined,undefined,undefined,undefined,undefined,undefined,undefined,undefined,undefined,undefined,undefined,undefined,undefined,undefined,undefined,undefined,undefined,undefined,undefined,undefined,
bnva8oohrm,undefined,undefined,undefined,undefined,52,23,2,JESSICA,JESSICA,true,2361.130000092089,undefined,undefined,undefined,undefined,undefined,undefined,undefined,undefined,undefined,undefined,undefined,undefined,undefined,undefined,undefined,undefined,undefined,undefined,undefined,undefined,undefined,undefined,undefined,undefined,
bnva8oohrm,undefined,undefined,undefined,undefined,53,11,2,CHRIS,RYAN,false,2334.844999946654,undefined,undefined,undefined,undefined,undefined,undefined,undefined,undefined,undefined,undefined,undefined,undefined,undefined,undefined,undefined,undefined,undefined,undefined,undefined,undefined,undefined,undefined,undefined,undefined,
bnva8oohrm,undefined,undefined,undefined,undefined,54,36,2,ROSE,ROSE,true,2415.955000091344,undefined,undefined,undefined,undefined,undefined,undefined,undefined,undefined,undefined,undefined,undefined,undefined,undefined,undefined,undefined,undefined,undefined,undefined,undefined,undefined,undefined,undefined,undefined,undefined,
bnva8oohrm,undefined,undefined,undefined,undefined,55,35,2,LAUREN,AMANDA,false,12368.114999961108,undefined,undefined,undefined,undefined,undefined,undefined,undefined,undefined,undefined,undefined,undefined,undefined,undefined,undefined,undefined,undefined,undefined,undefined,undefined,undefined,undefined,undefined,undefined,undefined,
bnva8oohrm,undefined,undefined,undefined,undefined,56,13,2,BRANDON,ANDREW,false,5509.110000217333,undefined,undefined,undefined,undefined,undefined,undefined,undefined,undefined,undefined,undefined,undefined,undefined,undefined,undefined,undefined,undefined,undefined,undefined,undefined,undefined,undefined,undefined,undefined,undefined,
bnva8oohrm,undefined,undefined,undefined,undefined,57,4,2,NICK,LOGAN,false,2375.440000090748,undefined,undefined,undefined,undefined,undefined,undefined,undefined,undefined,undefined,undefined,undefined,undefined,undefined,undefined,undefined,undefined,undefined,undefined,undefined,undefined,undefined,undefined,undefined,undefined,
bnva8oohrm,undefined,undefined,undefined,undefined,58,7,2,TYLER,KEVIN,false,1949.16500011459,undefined,undefined,undefined,undefined,undefined,undefined,undefined,undefined,undefined,undefined,undefined,undefined,undefined,undefined,undefined,undefined,undefined,undefined,undefined,undefined,undefined,undefined,undefined,undefined,
bnva8oohrm,undefined,undefined,undefined,undefined,59,39,2,JULIE,DIANA,false,5025.220000185072,undefined,undefined,undefined,undefined,undefined,undefined,undefined,undefined,undefined,undefined,undefined,undefined,undefined,undefined,undefined,undefined,undefined,undefined,undefined,undefined,undefined,undefined,undefined,undefined,
bnva8oohrm,undefined,undefined,undefined,undefined,60,5,2,JOHN,JOHN,true,3933.1350000575185,undefined,undefined,undefined,undefined,undefined,undefined,undefined,undefined,undefined,undefined,undefined,undefined,undefined,undefined,undefined,undefined,undefined,undefined,undefined,undefined,undefined,undefined,undefined,undefined,
bnva8oohrm,undefined,undefined,undefined,undefined,61,19,7,RYAN,TYLER,false,2972.9450000450015,undefined,undefined,undefined,undefined,undefined,undefined,undefined,undefined,undefined,undefined,undefined,undefined,undefined,undefined,undefined,undefined,undefined,undefined,undefined,undefined,undefined,undefined,undefined,undefined,
bnva8oohrm,undefined,undefined,undefined,undefined,62,31,7,JANE,JULIE,false,3907.009999966249,undefined,undefined,undefined,undefined,undefined,undefined,undefined,undefined,undefined,undefined,undefined,undefined,undefined,undefined,undefined,undefined,undefined,undefined,undefined,undefined,undefined,undefined,undefined,undefined,
bnva8oohrm,undefined,undefined,undefined,undefined,63,13,7,BRANDON,ANDREW,false,3666.590000037104,undefined,undefined,undefined,undefined,undefined,undefined,undefined,undefined,undefined,undefined,undefined,undefined,undefined,undefined,undefined,undefined,undefined,undefined,undefined,undefined,undefined,undefined,undefined,undefined,
bnva8oohrm,undefined,undefined,undefined,undefined,64,35,7,LAUREN,JULIE,false,4254.790000151843,undefined,undefined,undefined,undefined,undefined,undefined,undefined,undefined,undefined,undefined,undefined,undefined,undefined,undefined,undefined,undefined,undefined,undefined,undefined,undefined,undefined,undefined,undefined,undefined,
bnva8oohrm,undefined,undefined,undefined,undefined,65,6,7,ANDREW,ANDREW,true,2924.820000072941,undefined,undefined,undefined,undefined,undefined,undefined,undefined,undefined,undefined,undefined,undefined,undefined,undefined,undefined,undefined,undefined,undefined,undefined,undefined,undefined,undefined,undefined,undefined,undefined,
bnva8oohrm,undefined,undefined,undefined,undefined,66,34,7,DIANA,DIANA,true,3447.7399999741465,undefined,undefined,undefined,undefined,undefined,undefined,undefined,undefined,undefined,undefined,undefined,undefined,undefined,undefined,undefined,undefined,undefined,undefined,undefined,undefined,undefined,undefined,undefined,undefined,
bnva8oohrm,undefined,undefined,undefined,undefined,67,36,7,ROSE,ROSE,true,1560.2400000207126,undefined,undefined,undefined,undefined,undefined,undefined,undefined,undefined,undefined,undefined,undefined,undefined,undefined,undefined,undefined,undefined,undefined,undefined,undefined,undefined,undefined,undefined,undefined,undefined,
bnva8oohrm,undefined,undefined,undefined,undefined,68,40,7,AMBER,AMBER,true,2328.3649999648333,undefined,undefined,undefined,undefined,undefined,undefined,undefined,undefined,undefined,undefined,undefined,undefined,undefined,undefined,undefined,undefined,undefined,undefined,undefined,undefined,undefined,undefined,undefined,undefined,
bnva8oohrm,undefined,undefined,undefined,undefined,69,7,7,TYLER,TYLER,true,4834.855000022799,undefined,undefined,undefined,undefined,undefined,undefined,undefined,undefined,undefined,undefined,undefined,undefined,undefined,undefined,undefined,undefined,undefined,undefined,undefined,undefined,undefined,undefined,undefined,undefined,
bnva8oohrm,undefined,undefined,undefined,undefined,70,8,7,KEVIN,KEVIN,true,1605.280000017956,undefined,undefined,undefined,undefined,undefined,undefined,undefined,undefined,undefined,undefined,undefined,undefined,undefined,undefined,undefined,undefined,undefined,undefined,undefined,undefined,undefined,undefined,undefined,undefined,
bnva8oohrm,undefined,undefined,undefined,undefined,71,4,7,NICK,LOGAN,false,2693.4400000609457,undefined,undefined,undefined,undefined,undefined,undefined,undefined,undefined,undefined,undefined,undefined,undefined,undefined,undefined,undefined,undefined,undefined,undefined,undefined,undefined,undefined,undefined,undefined,undefined,
bnva8oohrm,undefined,undefined,undefined,undefined,72,5,7,JOHN,JOHN,true,1765.4399999883026,undefined,undefined,undefined,undefined,undefined,undefined,undefined,undefined,undefined,undefined,undefined,undefined,undefined,undefined,undefined,undefined,undefined,undefined,undefined,undefined,undefined,undefined,undefined,undefined,
bnva8oohrm,undefined,undefined,undefined,undefined,73,39,7,JULIE,JULIE,true,2767.729999963194,undefined,undefined,undefined,undefined,undefined,undefined,undefined,undefined,undefined,undefined,undefined,undefined,undefined,undefined,undefined,undefined,undefined,undefined,undefined,undefined,undefined,undefined,undefined,undefined,
bnva8oohrm,undefined,undefined,undefined,undefined,74,23,7,JESSICA,DIANA,false,9924.455000087619,undefined,undefined,undefined,undefined,undefined,undefined,undefined,undefined,undefined,undefined,undefined,undefined,undefined,undefined,undefined,undefined,undefined,undefined,undefined,undefined,undefined,undefined,undefined,undefined,
bnva8oohrm,undefined,undefined,undefined,undefined,75,32,7,CHLOE,AMANDA,false,4056.235000025481,undefined,undefined,undefined,undefined,undefined,undefined,undefined,undefined,undefined,undefined,undefined,undefined,undefined,undefined,undefined,undefined,undefined,undefined,undefined,undefined,undefined,undefined,undefined,undefined,
bnva8oohrm,undefined,undefined,undefined,undefined,76,11,7,CHRIS,RYAN,false,2223.814999917522,undefined,undefined,undefined,undefined,undefined,undefined,undefined,undefined,undefined,undefined,undefined,undefined,undefined,undefined,undefined,undefined,undefined,undefined,undefined,undefined,undefined,undefined,undefined,undefined,
bnva8oohrm,undefined,undefined,undefined,undefined,77,28,7,EMILY,AMANDA,false,7983.394999988377,undefined,undefined,undefined,undefined,undefined,undefined,undefined,undefined,undefined,undefined,undefined,undefined,undefined,undefined,undefined,undefined,undefined,undefined,undefined,undefined,undefined,undefined,undefined,undefined,
bnva8oohrm,undefined,undefined,undefined,undefined,78,14,7,KYLE,LOGAN,false,2628.7100000772625,undefined,undefined,undefined,undefined,undefined,undefined,undefined,undefined,undefined,undefined,undefined,undefined,undefined,undefined,undefined,undefined,undefined,undefined,undefined,undefined,undefined,undefined,undefined,undefined,
bnva8oohrm,undefined,undefined,undefined,undefined,79,29,7,AMANDA,AMANDA,true,2623.2350000645965,undefined,undefined,undefined,undefined,undefined,undefined,undefined,undefined,undefined,undefined,undefined,undefined,undefined,undefined,undefined,undefined,undefined,undefined,undefined,undefined,undefined,undefined,undefined,undefined,
bnva8oohrm,undefined,undefined,undefined,undefined,80,10,7,LOGAN,LOGAN,true,3066.2749998737127,undefined,undefined,undefined,undefined,undefined,undefined,undefined,undefined,undefined,undefined,undefined,undefined,undefined,undefined,undefined,undefined,undefined,undefined,undefined,undefined,undefined,undefined,undefined,undefined,
bnva8oohrm,undefined,undefined,undefined,undefined,81,8,8,KEVIN,BRANDON,false,3842.285000020638,undefined,undefined,undefined,undefined,undefined,undefined,undefined,undefined,undefined,undefined,undefined,undefined,undefined,undefined,undefined,undefined,undefined,undefined,undefined,undefined,undefined,undefined,undefined,undefined,
bnva8oohrm,undefined,undefined,undefined,undefined,82,31,8,JANE,DIANA,false,2176.8199999351054,undefined,undefined,undefined,undefined,undefined,undefined,undefined,undefined,undefined,undefined,undefined,undefined,undefined,undefined,undefined,undefined,undefined,undefined,undefined,undefined,undefined,undefined,undefined,undefined,
bnva8oohrm,undefined,undefined,undefined,undefined,83,10,8,LOGAN,NICK,false,2910.42000008747,undefined,undefined,undefined,undefined,undefined,undefined,undefined,undefined,undefined,undefined,undefined,undefined,undefined,undefined,undefined,undefined,undefined,undefined,undefined,undefined,undefined,undefined,undefined,undefined,
bnva8oohrm,undefined,undefined,undefined,undefined,84,7,8,TYLER,TYLER,true,3249.2750000674278,undefined,undefined,undefined,undefined,undefined,undefined,undefined,undefined,undefined,undefined,undefined,undefined,undefined,undefined,undefined,undefined,undefined,undefined,undefined,undefined,undefined,undefined,undefined,undefined,
bnva8oohrm,undefined,undefined,undefined,undefined,85,5,8,JOHN,JOHN,true,1689.754999941215,undefined,undefined,undefined,undefined,undefined,undefined,undefined,undefined,undefined,undefined,undefined,undefined,undefined,undefined,undefined,undefined,undefined,undefined,undefined,undefined,undefined,undefined,undefined,undefined,
bnva8oohrm,undefined,undefined,undefined,undefined,86,40,8,AMBER,AMBER,true,2095.8300000056624,undefined,undefined,undefined,undefined,undefined,undefined,undefined,undefined,undefined,undefined,undefined,undefined,undefined,undefined,undefined,undefined,undefined,undefined,undefined,undefined,undefined,undefined,undefined,undefined,
bnva8oohrm,undefined,undefined,undefined,undefined,87,29,8,AMANDA,AMANDA,true,2419.599999906495,undefined,undefined,undefined,undefined,undefined,undefined,undefined,undefined,undefined,undefined,undefined,undefined,undefined,undefined,undefined,undefined,undefined,undefined,undefined,undefined,undefined,undefined,undefined,undefined,
bnva8oohrm,undefined,undefined,undefined,undefined,88,39,8,JULIE,JULIE,true,2879.194999812171,undefined,undefined,undefined,undefined,undefined,undefined,undefined,undefined,undefined,undefined,undefined,undefined,undefined,undefined,undefined,undefined,undefined,undefined,undefined,undefined,undefined,undefined,undefined,undefined,
bnva8oohrm,undefined,undefined,undefined,undefined,89,36,8,ROSE,ROSE,true,1665.4650000855327,undefined,undefined,undefined,undefined,undefined,undefined,undefined,undefined,undefined,undefined,undefined,undefined,undefined,undefined,undefined,undefined,undefined,undefined,undefined,undefined,undefined,undefined,undefined,undefined,
bnva8oohrm,undefined,undefined,undefined,undefined,90,11,8,CHRIS,CHRIS,true,5218.349999981001,undefined,undefined,undefined,undefined,undefined,undefined,undefined,undefined,undefined,undefined,undefined,undefined,undefined,undefined,undefined,undefined,undefined,undefined,undefined,undefined,undefined,undefined,undefined,undefined,
bnva8oohrm,undefined,undefined,undefined,undefined,91,6,8,ANDREW,RYAN,false,2436.9350001215935,undefined,undefined,undefined,undefined,undefined,undefined,undefined,undefined,undefined,undefined,undefined,undefined,undefined,undefined,undefined,undefined,undefined,undefined,undefined,undefined,undefined,undefined,undefined,undefined,
bnva8oohrm,undefined,undefined,undefined,undefined,92,34,8,DIANA,DIANA,true,2252.5750000495464,undefined,undefined,undefined,undefined,undefined,undefined,undefined,undefined,undefined,undefined,undefined,undefined,undefined,undefined,undefined,undefined,undefined,undefined,undefined,undefined,undefined,undefined,undefined,undefined,
bnva8oohrm,undefined,undefined,undefined,undefined,93,35,8,LAUREN,EMILY,false,6111.9800000451505,undefined,undefined,undefined,undefined,undefined,undefined,undefined,undefined,undefined,undefined,undefined,undefined,undefined,undefined,undefined,undefined,undefined,undefined,undefined,undefined,undefined,undefined,undefined,undefined,
bnva8oohrm,undefined,undefined,undefined,undefined,94,14,8,KYLE,LOGAN,false,5492.815000005066,undefined,undefined,undefined,undefined,undefined,undefined,undefined,undefined,undefined,undefined,undefined,undefined,undefined,undefined,undefined,undefined,undefined,undefined,undefined,undefined,undefined,undefined,undefined,undefined,
bnva8oohrm,undefined,undefined,undefined,undefined,95,23,8,JESSICA,EMILY,false,2540.8799999859184,undefined,undefined,undefined,undefined,undefined,undefined,undefined,undefined,undefined,undefined,undefined,undefined,undefined,undefined,undefined,undefined,undefined,undefined,undefined,undefined,undefined,undefined,undefined,undefined,
bnva8oohrm,undefined,undefined,undefined,undefined,96,32,8,CHLOE,EMILY,false,1972.7000000420958,undefined,undefined,undefined,undefined,undefined,undefined,undefined,undefined,undefined,undefined,undefined,undefined,undefined,undefined,undefined,undefined,undefined,undefined,undefined,undefined,undefined,undefined,undefined,undefined,
bnva8oohrm,undefined,undefined,undefined,undefined,97,19,8,RYAN,RYAN,true,7699.994999915361,undefined,undefined,undefined,undefined,undefined,undefined,undefined,undefined,undefined,undefined,undefined,undefined,undefined,undefined,undefined,undefined,undefined,undefined,undefined,undefined,undefined,undefined,undefined,undefined,
bnva8oohrm,undefined,undefined,undefined,undefined,98,4,8,NICK,LOGAN,false,2770.8099998999387,undefined,undefined,undefined,undefined,undefined,undefined,undefined,undefined,undefined,undefined,undefined,undefined,undefined,undefined,undefined,undefined,undefined,undefined,undefined,undefined,undefined,undefined,undefined,undefined,
bnva8oohrm,undefined,undefined,undefined,undefined,99,13,8,BRANDON,KEVIN,false,2018.720000050962,undefined,undefined,undefined,undefined,undefined,undefined,undefined,undefined,undefined,undefined,undefined,undefined,undefined,undefined,undefined,undefined,undefined,undefined,undefined,undefined,undefined,undefined,undefined,undefined,
bnva8oohrm,undefined,undefined,undefined,undefined,100,28,8,EMILY,EMILY,true,7871.5099999681115,undefined,undefined,undefined,undefined,undefined,undefined,undefined,undefined,undefined,undefined,undefined,undefined,undefined,undefined,undefined,undefined,undefined,undefined,undefined,undefined,undefined,undefined,undefined,undefined,
bnva8oohrm,undefined,undefined,undefined,undefined,101,29,3,AMANDA,AMANDA,true,2445.219999877736,undefined,undefined,undefined,undefined,undefined,undefined,undefined,undefined,undefined,undefined,undefined,undefined,undefined,undefined,undefined,undefined,undefined,undefined,undefined,undefined,undefined,undefined,undefined,undefined,
bnva8oohrm,undefined,undefined,undefined,undefined,102,7,3,TYLER,TYLER,true,2122.759999940172,undefined,undefined,undefined,undefined,undefined,undefined,undefined,undefined,undefined,undefined,undefined,undefined,undefined,undefined,undefined,undefined,undefined,undefined,undefined,undefined,undefined,undefined,undefined,undefined,
bnva8oohrm,undefined,undefined,undefined,undefined,103,39,3,JULIE,JULIE,true,2080.9500000905246,undefined,undefined,undefined,undefined,undefined,undefined,undefined,undefined,undefined,undefined,undefined,undefined,undefined,undefined,undefined,undefined,undefined,undefined,undefined,undefined,undefined,undefined,undefined,undefined,
bnva8oohrm,undefined,undefined,undefined,undefined,104,40,3,AMBER,AMBER,true,3104.439999908209,undefined,undefined,undefined,undefined,undefined,undefined,undefined,undefined,undefined,undefined,undefined,undefined,undefined,undefined,undefined,undefined,undefined,undefined,undefined,undefined,undefined,undefined,undefined,undefined,
bnva8oohrm,undefined,undefined,undefined,undefined,105,14,3,KYLE,KEVIN,false,2276.5500000678003,undefined,undefined,undefined,undefined,undefined,undefined,undefined,undefined,undefined,undefined,undefined,undefined,undefined,undefined,undefined,undefined,undefined,undefined,undefined,undefined,undefined,undefined,undefined,undefined,
bnva8oohrm,undefined,undefined,undefined,undefined,106,23,3,JESSICA,EMILY,false,5723.625000100583,undefined,undefined,undefined,undefined,undefined,undefined,undefined,undefined,undefined,undefined,undefined,undefined,undefined,undefined,undefined,undefined,undefined,undefined,undefined,undefined,undefined,undefined,undefined,undefined,
bnva8oohrm,undefined,undefined,undefined,undefined,107,6,3,ANDREW,ANDREW,true,2441.7499999981374,undefined,undefined,undefined,undefined,undefined,undefined,undefined,undefined,undefined,undefined,undefined,undefined,undefined,undefined,undefined,undefined,undefined,undefined,undefined,undefined,undefined,undefined,undefined,undefined,
bnva8oohrm,undefined,undefined,undefined,undefined,108,13,3,BRANDON,RYAN,false,2988.6849999893457,undefined,undefined,undefined,undefined,undefined,undefined,undefined,undefined,undefined,undefined,undefined,undefined,undefined,undefined,undefined,undefined,undefined,undefined,undefined,undefined,undefined,undefined,undefined,undefined,
bnva8oohrm,undefined,undefined,undefined,undefined,109,8,3,KEVIN,KEVIN,true,1988.5299999732524,undefined,undefined,undefined,undefined,undefined,undefined,undefined,undefined,undefined,undefined,undefined,undefined,undefined,undefined,undefined,undefined,undefined,undefined,undefined,undefined,undefined,undefined,undefined,undefined,
bnva8oohrm,undefined,undefined,undefined,undefined,110,35,3,LAUREN,CHLOE,false,3370.379999978468,undefined,undefined,undefined,undefined,undefined,undefined,undefined,undefined,undefined,undefined,undefined,undefined,undefined,undefined,undefined,undefined,undefined,undefined,undefined,undefined,undefined,undefined,undefined,undefined,
bnva8oohrm,undefined,undefined,undefined,undefined,111,11,3,CHRIS,RYAN,false,6492.580000078306,undefined,undefined,undefined,undefined,undefined,undefined,undefined,undefined,undefined,undefined,undefined,undefined,undefined,undefined,undefined,undefined,undefined,undefined,undefined,undefined,undefined,undefined,undefined,undefined,
bnva8oohrm,undefined,undefined,undefined,undefined,112,4,3,NICK,NICK,true,3015.055000083521,undefined,undefined,undefined,undefined,undefined,undefined,undefined,undefined,undefined,undefined,undefined,undefined,undefined,undefined,undefined,undefined,undefined,undefined,undefined,undefined,undefined,undefined,undefined,undefined,
bnva8oohrm,undefined,undefined,undefined,undefined,113,32,3,CHLOE,JESSICA,false,8352.57999994792,undefined,undefined,undefined,undefined,undefined,undefined,undefined,undefined,undefined,undefined,undefined,undefined,undefined,undefined,undefined,undefined,undefined,undefined,undefined,undefined,undefined,undefined,undefined,undefined,
bnva8oohrm,undefined,undefined,undefined,undefined,114,10,3,LOGAN,LOGAN,true,6249.889999860898,undefined,undefined,undefined,undefined,undefined,undefined,undefined,undefined,undefined,undefined,undefined,undefined,undefined,undefined,undefined,undefined,undefined,undefined,undefined,undefined,undefined,undefined,undefined,undefined,
bnva8oohrm,undefined,undefined,undefined,undefined,115,34,3,DIANA,DIANA,true,5746.2049999739975,undefined,undefined,undefined,undefined,undefined,undefined,undefined,undefined,undefined,undefined,undefined,undefined,undefined,undefined,undefined,undefined,undefined,undefined,undefined,undefined,undefined,undefined,undefined,undefined,
bnva8oohrm,undefined,undefined,undefined,undefined,116,5,3,JOHN,JOHN,true,3525.02500009723,undefined,undefined,undefined,undefined,undefined,undefined,undefined,undefined,undefined,undefined,undefined,undefined,undefined,undefined,undefined,undefined,undefined,undefined,undefined,undefined,undefined,undefined,undefined,undefined,
bnva8oohrm,undefined,undefined,undefined,undefined,117,31,3,JANE,EMILY,false,3179.5699999202043,undefined,undefined,undefined,undefined,undefined,undefined,undefined,undefined,undefined,undefined,undefined,undefined,undefined,undefined,undefined,undefined,undefined,undefined,undefined,undefined,undefined,undefined,undefined,undefined,
bnva8oohrm,undefined,undefined,undefined,undefined,118,19,3,RYAN,RYAN,true,6514.935000101104,undefined,undefined,undefined,undefined,undefined,undefined,undefined,undefined,undefined,undefined,undefined,undefined,undefined,undefined,undefined,undefined,undefined,undefined,undefined,undefined,undefined,undefined,undefined,undefined,
bnva8oohrm,undefined,undefined,undefined,undefined,119,28,3,EMILY,JESSICA,false,4502.765000099316,undefined,undefined,undefined,undefined,undefined,undefined,undefined,undefined,undefined,undefined,undefined,undefined,undefined,undefined,undefined,undefined,undefined,undefined,undefined,undefined,undefined,undefined,undefined,undefined,
bnva8oohrm,undefined,undefined,undefined,undefined,120,36,3,ROSE,ROSE,true,1798.4599999617785,undefined,undefined,undefined,undefined,undefined,undefined,undefined,undefined,undefined,undefined,undefined,undefined,undefined,undefined,undefined,undefined,undefined,undefined,undefined,undefined,undefined,undefined,undefined,undefined,
