SubNum,SubNum_demo,Exp_start_time,Exp_today_date,Exp_today_time,TrialNum,Condition,Face,Name,Response,NameAcc,RespTime,StudyTrialNum,StudyFace,StudyContext,StudyFamCond,TestTrialNum,TestFace,TestContext,TestSDCond,TestFamCond,TestResponse,TestResponseTime,Exp_end_time,Distractor_1_duration,Distractor_2_duration,
q4rnszbmw0,5a29kudnup,Sun Nov 29 2020 13:13:13 GMT-0600 (Central Standard Time),2020-11-29,13:13:13,1,Familiar,13,NA,NA,NA,NA,1,6,1,1,1,34,8,1,1,1,2118.140000035055,13:33:22,121060.82000001334,63306.08000000939,
q4rnszbmw0,undefined,undefined,undefined,undefined,2,Familiar,2,NA,NA,NA,NA,2,9,24,2,2,13,3,0,0,0,967.4850000301376,undefined,undefined,undefined,
q4rnszbmw0,undefined,undefined,undefined,undefined,3,Know,20,ALEXIS,ALEXIS,true,2320.8050000248477,3,34,5,1,3,16,16,0,2,0,867.9500001017004,undefined,undefined,undefined,
q4rnszbmw0,undefined,undefined,undefined,undefined,4,Familiar,11,NA,NA,NA,NA,4,23,25,2,4,25,33,0,1,1,1316.8099999893457,undefined,undefined,undefined,
q4rnszbmw0,undefined,undefined,undefined,undefined,5,Know,33,BETTY,BETTY,true,1783.8400000473484,5,4,8,1,5,32,29,0,0,0,944.4149999180809,undefined,undefined,undefined,
q4rnszbmw0,undefined,undefined,undefined,undefined,6,Know,28,MARY,MARY,true,2153.6700000287965,6,27,2,1,6,35,22,0,0,0,1541.164999944158,undefined,undefined,undefined,
q4rnszbmw0,undefined,undefined,undefined,undefined,7,Familiar,32,NA,NA,NA,NA,7,21,30,2,7,27,2,0,1,1,995.5400000326335,undefined,undefined,undefined,
q4rnszbmw0,undefined,undefined,undefined,undefined,8,Know,25,LAUREN,LAUREN,true,1509.1600000159815,8,14,9,1,8,2,11,0,0,0,1593.5949999839067,undefined,undefined,undefined,
q4rnszbmw0,undefined,undefined,undefined,undefined,9,Know,3,VICTORIA,VICTORIA,true,1840.5849999981,9,5,36,0,9,24,18,0,0,0,1383.559999987483,undefined,undefined,undefined,
q4rnszbmw0,undefined,undefined,undefined,undefined,10,Familiar,35,NA,NA,NA,NA,10,15,26,0,10,17,17,0,2,0,1586.079999920912,undefined,undefined,undefined,
q4rnszbmw0,undefined,undefined,undefined,undefined,11,Know,27,PATRICIA,PATRICIA,true,1804.8999999882653,11,28,7,1,11,4,5,1,1,1,1399.6299999998882,undefined,undefined,undefined,
q4rnszbmw0,undefined,undefined,undefined,undefined,12,Know,6,MADISON,MADISON,true,1548.9899999229237,12,31,6,1,12,5,4,1,0,1,1390.6549999956042,undefined,undefined,undefined,
q4rnszbmw0,undefined,undefined,undefined,undefined,13,Familiar,24,NA,NA,NA,NA,13,18,21,2,13,21,30,0,2,0,1109.1849999502301,undefined,undefined,undefined,
q4rnszbmw0,undefined,undefined,undefined,undefined,14,Know,31,HANNAH,HANNAH,true,1571.1900000460446,14,12,10,1,14,20,20,0,1,1,1158.3450000034645,undefined,undefined,undefined,
q4rnszbmw0,undefined,undefined,undefined,undefined,15,Know,12,ASHLEY,ASHLEY,true,1342.9550000000745,15,16,16,2,15,33,14,0,1,0,1558.504999964498,undefined,undefined,undefined,
q4rnszbmw0,undefined,undefined,undefined,undefined,16,Familiar,5,NA,NA,NA,NA,16,13,3,0,16,8,21,1,2,0,1054.3599999509752,undefined,undefined,undefined,
q4rnszbmw0,undefined,undefined,undefined,undefined,17,Familiar,7,NA,NA,NA,NA,17,1,23,2,17,26,36,1,0,1,610.3199999779463,undefined,undefined,undefined,
q4rnszbmw0,undefined,undefined,undefined,undefined,18,Know,34,ALYSSA,ALYSSA,true,1403.1749999849126,18,29,12,2,18,18,28,1,2,1,1528.995000058785,undefined,undefined,undefined,
q4rnszbmw0,undefined,undefined,undefined,undefined,19,Familiar,30,NA,NA,NA,NA,19,35,22,0,19,11,15,0,0,1,1612.3199999565259,undefined,undefined,undefined,
q4rnszbmw0,undefined,undefined,undefined,undefined,20,Familiar,10,NA,NA,NA,NA,20,7,27,0,20,12,9,1,1,0,1266.5450000204146,undefined,undefined,undefined,
q4rnszbmw0,undefined,undefined,undefined,undefined,21,Know,14,AUDREY,AUDREY,true,2126.4850000152364,21,33,14,1,21,28,7,0,1,0,1076.2800000375137,undefined,undefined,undefined,
q4rnszbmw0,undefined,undefined,undefined,undefined,22,Familiar,15,NA,NA,NA,NA,22,17,17,2,22,1,13,1,2,1,827.1800000220537,undefined,undefined,undefined,
q4rnszbmw0,undefined,undefined,undefined,undefined,23,Familiar,26,NA,NA,NA,NA,23,32,29,0,23,36,23,1,2,1,864.3200000515208,undefined,undefined,undefined,
q4rnszbmw0,undefined,undefined,undefined,undefined,24,Know,4,COURTNEY,COURTNEY,true,2163.789999904111,24,8,28,2,24,22,12,1,2,0,1266.520000062883,undefined,undefined,undefined,
q4rnszbmw0,undefined,undefined,undefined,undefined,25,Familiar,5,NA,NA,NA,NA,25,26,4,0,25,9,24,0,2,0,968.5499999905005,undefined,undefined,undefined,
q4rnszbmw0,undefined,undefined,undefined,undefined,26,Familiar,32,NA,NA,NA,NA,26,25,33,1,26,23,25,0,2,0,1234.8399999318644,undefined,undefined,undefined,
q4rnszbmw0,undefined,undefined,undefined,undefined,27,Know,4,COURTNEY,MARY,false,2615.1600000448525,27,11,15,0,27,7,32,1,0,1,893.7800000421703,undefined,undefined,undefined,
q4rnszbmw0,undefined,undefined,undefined,undefined,28,Know,20,ALEXIS,ASHLEY,false,2160.329999984242,28,2,11,0,28,14,10,1,1,0,1318.0050000082701,undefined,undefined,undefined,
q4rnszbmw0,undefined,undefined,undefined,undefined,29,Familiar,30,NA,NA,NA,NA,29,36,13,2,29,31,1,1,1,1,811.6699999663979,undefined,undefined,undefined,
q4rnszbmw0,undefined,undefined,undefined,undefined,30,Familiar,13,NA,NA,NA,NA,30,19,35,2,30,19,35,0,2,1,718.6600000131875,undefined,undefined,undefined,
q4rnszbmw0,undefined,undefined,undefined,undefined,31,Know,28,MARY,MARY,true,2982.7500000828877,31,10,31,0,31,29,19,1,2,0,1259.0250000357628,undefined,undefined,undefined,
q4rnszbmw0,undefined,undefined,undefined,undefined,32,Know,3,VICTORIA,VICTORIA,true,2477.424999931827,32,20,20,1,32,3,34,0,1,0,460.49999992828816,undefined,undefined,undefined,
q4rnszbmw0,undefined,undefined,undefined,undefined,33,Familiar,7,NA,NA,NA,NA,33,22,19,2,33,30,27,1,0,1,1437.015000032261,undefined,undefined,undefined,
q4rnszbmw0,undefined,undefined,undefined,undefined,34,Know,34,ALYSSA,ALYSSA,true,1734.4250000314787,34,30,32,0,34,10,26,1,0,0,1178.2550000352785,undefined,undefined,undefined,
q4rnszbmw0,undefined,undefined,undefined,undefined,35,Familiar,26,NA,NA,NA,NA,35,3,34,1,35,15,31,1,0,1,1107.4700000463054,undefined,undefined,undefined,
q4rnszbmw0,undefined,undefined,undefined,undefined,36,Know,14,AUDREY,COURTNEY,false,4668.109999969602,36,24,18,0,36,6,6,1,1,0,2019.4650000194088,undefined,undefined,undefined,
q4rnszbmw0,undefined,undefined,undefined,undefined,37,Know,31,HANNAH,MARY,false,5745.970000047237,37,2,11,0,undefined,undefined,undefined,undefined,undefined,undefined,undefined,undefined,undefined,undefined,
q4rnszbmw0,undefined,undefined,undefined,undefined,38,Familiar,24,NA,NA,NA,NA,38,19,35,2,undefined,undefined,undefined,undefined,undefined,undefined,undefined,undefined,undefined,undefined,
q4rnszbmw0,undefined,undefined,undefined,undefined,39,Familiar,2,NA,NA,NA,NA,39,28,7,1,undefined,undefined,undefined,undefined,undefined,undefined,undefined,undefined,undefined,undefined,
q4rnszbmw0,undefined,undefined,undefined,undefined,40,Know,33,BETTY,COURTNEY,false,4459.904999937862,40,10,31,0,undefined,undefined,undefined,undefined,undefined,undefined,undefined,undefined,undefined,undefined,
q4rnszbmw0,undefined,undefined,undefined,undefined,41,Know,27,PATRICIA,AUBREY,false,5608.55000000447,41,5,36,0,undefined,undefined,undefined,undefined,undefined,undefined,undefined,undefined,undefined,undefined,
q4rnszbmw0,undefined,undefined,undefined,undefined,42,Familiar,11,NA,NA,NA,NA,42,12,10,1,undefined,undefined,undefined,undefined,undefined,undefined,undefined,undefined,undefined,undefined,
q4rnszbmw0,undefined,undefined,undefined,undefined,43,Know,25,LAUREN,MARY,false,6964.33500002604,43,33,14,1,undefined,undefined,undefined,undefined,undefined,undefined,undefined,undefined,undefined,undefined,
q4rnszbmw0,undefined,undefined,undefined,undefined,44,Familiar,35,NA,NA,NA,NA,44,36,13,2,undefined,undefined,undefined,undefined,undefined,undefined,undefined,undefined,undefined,undefined,
q4rnszbmw0,undefined,undefined,undefined,undefined,45,Familiar,15,NA,NA,NA,NA,45,6,1,1,undefined,undefined,undefined,undefined,undefined,undefined,undefined,undefined,undefined,undefined,
q4rnszbmw0,undefined,undefined,undefined,undefined,46,Know,12,ASHLEY,AUDREY,false,3238.08000003919,46,8,28,2,undefined,undefined,undefined,undefined,undefined,undefined,undefined,undefined,undefined,undefined,
q4rnszbmw0,undefined,undefined,undefined,undefined,47,Familiar,10,NA,NA,NA,NA,47,24,18,0,undefined,undefined,undefined,undefined,undefined,undefined,undefined,undefined,undefined,undefined,
q4rnszbmw0,undefined,undefined,undefined,undefined,48,Know,6,MADISON,MARY,false,2542.3700000392273,48,7,27,0,undefined,undefined,undefined,undefined,undefined,undefined,undefined,undefined,undefined,undefined,
q4rnszbmw0,undefined,undefined,undefined,undefined,49,Know,6,MADISON,MADISON,true,2450.9850000031292,49,21,30,2,undefined,undefined,undefined,undefined,undefined,undefined,undefined,undefined,undefined,undefined,
q4rnszbmw0,undefined,undefined,undefined,undefined,50,Familiar,11,NA,NA,NA,NA,50,34,5,1,undefined,undefined,undefined,undefined,undefined,undefined,undefined,undefined,undefined,undefined,
q4rnszbmw0,undefined,undefined,undefined,undefined,51,Know,27,PATRICIA,COURNEY,false,3980.900000082329,51,17,17,2,undefined,undefined,undefined,undefined,undefined,undefined,undefined,undefined,undefined,undefined,
q4rnszbmw0,undefined,undefined,undefined,undefined,52,Familiar,24,NA,NA,NA,NA,52,16,16,2,undefined,undefined,undefined,undefined,undefined,undefined,undefined,undefined,undefined,undefined,
q4rnszbmw0,undefined,undefined,undefined,undefined,53,Familiar,32,NA,NA,NA,NA,53,26,4,0,undefined,undefined,undefined,undefined,undefined,undefined,undefined,undefined,undefined,undefined,
q4rnszbmw0,undefined,undefined,undefined,undefined,54,Know,4,COURTNEY,MARY,false,2277.044999995269,54,11,15,0,undefined,undefined,undefined,undefined,undefined,undefined,undefined,undefined,undefined,undefined,
q4rnszbmw0,undefined,undefined,undefined,undefined,55,Know,28,MARY,MARY,true,2289.1499999677762,55,14,9,1,undefined,undefined,undefined,undefined,undefined,undefined,undefined,undefined,undefined,undefined,
q4rnszbmw0,undefined,undefined,undefined,undefined,56,Familiar,13,NA,NA,NA,NA,56,31,6,1,undefined,undefined,undefined,undefined,undefined,undefined,undefined,undefined,undefined,undefined,
q4rnszbmw0,undefined,undefined,undefined,undefined,57,Familiar,35,NA,NA,NA,NA,57,13,3,0,undefined,undefined,undefined,undefined,undefined,undefined,undefined,undefined,undefined,undefined,
q4rnszbmw0,undefined,undefined,undefined,undefined,58,Know,12,ASHLEY,MADISON,false,5030.250000068918,58,9,24,2,undefined,undefined,undefined,undefined,undefined,undefined,undefined,undefined,undefined,undefined,
q4rnszbmw0,undefined,undefined,undefined,undefined,59,Familiar,26,NA,NA,NA,NA,59,35,22,0,undefined,undefined,undefined,undefined,undefined,undefined,undefined,undefined,undefined,undefined,
q4rnszbmw0,undefined,undefined,undefined,undefined,60,Familiar,2,NA,NA,NA,NA,60,22,19,2,undefined,undefined,undefined,undefined,undefined,undefined,undefined,undefined,undefined,undefined,
q4rnszbmw0,undefined,undefined,undefined,undefined,61,Know,25,LAUREN,COURNET,false,2751.3249999610707,61,18,21,2,undefined,undefined,undefined,undefined,undefined,undefined,undefined,undefined,undefined,undefined,
q4rnszbmw0,undefined,undefined,undefined,undefined,62,Familiar,15,NA,NA,NA,NA,62,4,8,1,undefined,undefined,undefined,undefined,undefined,undefined,undefined,undefined,undefined,undefined,
q4rnszbmw0,undefined,undefined,undefined,undefined,63,Know,20,ALEXIS,PATRICIA,false,6549.420000053942,63,23,25,2,undefined,undefined,undefined,undefined,undefined,undefined,undefined,undefined,undefined,undefined,
q4rnszbmw0,undefined,undefined,undefined,undefined,64,Familiar,10,NA,NA,NA,NA,64,32,29,0,undefined,undefined,undefined,undefined,undefined,undefined,undefined,undefined,undefined,undefined,
q4rnszbmw0,undefined,undefined,undefined,undefined,65,Know,34,ALYSSA,ALYSSA,true,1966.1550000309944,65,30,32,0,undefined,undefined,undefined,undefined,undefined,undefined,undefined,undefined,undefined,undefined,
q4rnszbmw0,undefined,undefined,undefined,undefined,66,Familiar,5,NA,NA,NA,NA,66,25,33,1,undefined,undefined,undefined,undefined,undefined,undefined,undefined,undefined,undefined,undefined,
q4rnszbmw0,undefined,undefined,undefined,undefined,67,Know,33,BETTY,LAUREN,false,2835.2400000439957,67,3,34,1,undefined,undefined,undefined,undefined,undefined,undefined,undefined,undefined,undefined,undefined,
q4rnszbmw0,undefined,undefined,undefined,undefined,68,Know,3,VICTORIA,VICTORIA,true,5931.649999925867,68,1,23,2,undefined,undefined,undefined,undefined,undefined,undefined,undefined,undefined,undefined,undefined,
q4rnszbmw0,undefined,undefined,undefined,undefined,69,Familiar,7,NA,NA,NA,NA,69,15,26,0,undefined,undefined,undefined,undefined,undefined,undefined,undefined,undefined,undefined,undefined,
q4rnszbmw0,undefined,undefined,undefined,undefined,70,Know,14,AUDREY,BETTY,false,3181.374999927357,70,20,20,1,undefined,undefined,undefined,undefined,undefined,undefined,undefined,undefined,undefined,undefined,
q4rnszbmw0,undefined,undefined,undefined,undefined,71,Familiar,30,NA,NA,NA,NA,71,29,12,2,undefined,undefined,undefined,undefined,undefined,undefined,undefined,undefined,undefined,undefined,
q4rnszbmw0,undefined,undefined,undefined,undefined,72,Know,31,HANNAH,BETTY,false,2509.0349999954924,72,27,2,1,undefined,undefined,undefined,undefined,undefined,undefined,undefined,undefined,undefined,undefined,
q4rnszbmw0,undefined,undefined,undefined,undefined,73,Know,28,MARY,MARY,true,3891.829999978654,undefined,undefined,undefined,undefined,undefined,undefined,undefined,undefined,undefined,undefined,undefined,undefined,undefined,undefined,
q4rnszbmw0,undefined,undefined,undefined,undefined,74,Familiar,35,NA,NA,NA,NA,undefined,undefined,undefined,undefined,undefined,undefined,undefined,undefined,undefined,undefined,undefined,undefined,undefined,undefined,
q4rnszbmw0,undefined,undefined,undefined,undefined,75,Familiar,30,NA,NA,NA,NA,undefined,undefined,undefined,undefined,undefined,undefined,undefined,undefined,undefined,undefined,undefined,undefined,undefined,undefined,
q4rnszbmw0,undefined,undefined,undefined,undefined,76,Know,14,AUDREY,BETTY,false,2807.410000008531,undefined,undefined,undefined,undefined,undefined,undefined,undefined,undefined,undefined,undefined,undefined,undefined,undefined,undefined,
q4rnszbmw0,undefined,undefined,undefined,undefined,77,Know,33,BETTY,BETTY,true,4016.6800000006333,undefined,undefined,undefined,undefined,undefined,undefined,undefined,undefined,undefined,undefined,undefined,undefined,undefined,undefined,
q4rnszbmw0,undefined,undefined,undefined,undefined,78,Familiar,5,NA,NA,NA,NA,undefined,undefined,undefined,undefined,undefined,undefined,undefined,undefined,undefined,undefined,undefined,undefined,undefined,undefined,
q4rnszbmw0,undefined,undefined,undefined,undefined,79,Familiar,15,NA,NA,NA,NA,undefined,undefined,undefined,undefined,undefined,undefined,undefined,undefined,undefined,undefined,undefined,undefined,undefined,undefined,
q4rnszbmw0,undefined,undefined,undefined,undefined,80,Know,3,VICTORIA,VICTORIA,true,2001.7300000181422,undefined,undefined,undefined,undefined,undefined,undefined,undefined,undefined,undefined,undefined,undefined,undefined,undefined,undefined,
q4rnszbmw0,undefined,undefined,undefined,undefined,81,Know,27,PATRICIA,PATRICIA,true,4894.3949999520555,undefined,undefined,undefined,undefined,undefined,undefined,undefined,undefined,undefined,undefined,undefined,undefined,undefined,undefined,
q4rnszbmw0,undefined,undefined,undefined,undefined,82,Familiar,2,NA,NA,NA,NA,undefined,undefined,undefined,undefined,undefined,undefined,undefined,undefined,undefined,undefined,undefined,undefined,undefined,undefined,
q4rnszbmw0,undefined,undefined,undefined,undefined,83,Familiar,11,NA,NA,NA,NA,undefined,undefined,undefined,undefined,undefined,undefined,undefined,undefined,undefined,undefined,undefined,undefined,undefined,undefined,
q4rnszbmw0,undefined,undefined,undefined,undefined,84,Know,34,ALYSSA,ALYSSA,true,2562.459999928251,undefined,undefined,undefined,undefined,undefined,undefined,undefined,undefined,undefined,undefined,undefined,undefined,undefined,undefined,
q4rnszbmw0,undefined,undefined,undefined,undefined,85,Familiar,7,NA,NA,NA,NA,undefined,undefined,undefined,undefined,undefined,undefined,undefined,undefined,undefined,undefined,undefined,undefined,undefined,undefined,
q4rnszbmw0,undefined,undefined,undefined,undefined,86,Familiar,13,NA,NA,NA,NA,undefined,undefined,undefined,undefined,undefined,undefined,undefined,undefined,undefined,undefined,undefined,undefined,undefined,undefined,
q4rnszbmw0,undefined,undefined,undefined,undefined,87,Know,12,ASHLEY,ASHLEY,true,11117.205000016838,undefined,undefined,undefined,undefined,undefined,undefined,undefined,undefined,undefined,undefined,undefined,undefined,undefined,undefined,
q4rnszbmw0,undefined,undefined,undefined,undefined,88,Know,31,HANNAH,ALUREM,false,4863.760000094771,undefined,undefined,undefined,undefined,undefined,undefined,undefined,undefined,undefined,undefined,undefined,undefined,undefined,undefined,
q4rnszbmw0,undefined,undefined,undefined,undefined,89,Familiar,10,NA,NA,NA,NA,undefined,undefined,undefined,undefined,undefined,undefined,undefined,undefined,undefined,undefined,undefined,undefined,undefined,undefined,
q4rnszbmw0,undefined,undefined,undefined,undefined,90,Familiar,32,NA,NA,NA,NA,undefined,undefined,undefined,undefined,undefined,undefined,undefined,undefined,undefined,undefined,undefined,undefined,undefined,undefined,
q4rnszbmw0,undefined,undefined,undefined,undefined,91,Know,25,LAUREN,BETTY,false,3270.8700000075623,undefined,undefined,undefined,undefined,undefined,undefined,undefined,undefined,undefined,undefined,undefined,undefined,undefined,undefined,
q4rnszbmw0,undefined,undefined,undefined,undefined,92,Familiar,26,NA,NA,NA,NA,undefined,undefined,undefined,undefined,undefined,undefined,undefined,undefined,undefined,undefined,undefined,undefined,undefined,undefined,
q4rnszbmw0,undefined,undefined,undefined,undefined,93,Know,4,COURTNEY,COURTNEY,true,7424.585000029765,undefined,undefined,undefined,undefined,undefined,undefined,undefined,undefined,undefined,undefined,undefined,undefined,undefined,undefined,
q4rnszbmw0,undefined,undefined,undefined,undefined,94,Know,20,ALEXIS,ALEXIS,true,6354.76999997627,undefined,undefined,undefined,undefined,undefined,undefined,undefined,undefined,undefined,undefined,undefined,undefined,undefined,undefined,
q4rnszbmw0,undefined,undefined,undefined,undefined,95,Familiar,24,NA,NA,NA,NA,undefined,undefined,undefined,undefined,undefined,undefined,undefined,undefined,undefined,undefined,undefined,undefined,undefined,undefined,
q4rnszbmw0,undefined,undefined,undefined,undefined,96,Know,6,MADISON,COURTNEY,false,6143.434999976307,undefined,undefined,undefined,undefined,undefined,undefined,undefined,undefined,undefined,undefined,undefined,undefined,undefined,undefined,
