SubNum,SubNum_demo,Exp_start_time,Exp_today_date,Exp_today_time,TrialNum,Condition,Face,Name,Response,NameAcc,RespTime,StudyTrialNum,StudyFace,StudyContext,StudyFamCond,TestTrialNum,TestFace,TestContext,TestSDCond,TestFamCond,TestResponse,TestResponseTime,Exp_end_time,Distractor_1_duration,Distractor_2_duration,
nadme0gcke,d1jnozvze2,Sat Nov 14 2020 23:44:24 GMT-0600 (Central Standard Time),2020-11-14,23:44:24,1,Know,28,REBECCA,REBECCA,true,6322.245000003022,1,14,13,2,1,14,13,0,2,0,3023.424999992363,0:7:20,122051.68999999296,61028.24999998836,
nadme0gcke,undefined,undefined,undefined,undefined,2,Know,25,JENNIFER,JENNIFER,true,7807.195000001229,2,26,26,2,2,5,8,1,2,1,1719.109999991022,undefined,undefined,undefined,
nadme0gcke,undefined,undefined,undefined,undefined,3,Familiar,15,NA,NA,NA,NA,3,36,29,1,3,17,2,0,1,1,1231.4400000032037,undefined,undefined,undefined,
nadme0gcke,undefined,undefined,undefined,undefined,4,Know,17,AMANDA,AMANDA,true,4076.7199999972945,4,22,35,0,4,6,1,0,1,1,1502.5549999990035,undefined,undefined,undefined,
nadme0gcke,undefined,undefined,undefined,undefined,5,Familiar,24,NA,NA,NA,NA,5,35,20,1,5,2,35,1,0,1,1466.7550000012852,undefined,undefined,undefined,
nadme0gcke,undefined,undefined,undefined,undefined,6,Familiar,32,NA,NA,NA,NA,6,9,27,1,6,35,31,1,1,1,1547.2100000041537,undefined,undefined,undefined,
nadme0gcke,undefined,undefined,undefined,undefined,7,Know,19,PATRICIA,PATRICIA,true,4876.450000010664,7,7,17,2,7,22,24,1,0,0,1402.2350000012666,undefined,undefined,undefined,
nadme0gcke,undefined,undefined,undefined,undefined,8,Familiar,11,NA,NA,NA,NA,8,3,31,1,8,3,20,1,1,0,1980.8000000047032,undefined,undefined,undefined,
nadme0gcke,undefined,undefined,undefined,undefined,9,Know,6,NANCY,NANCY,true,3626.9050000119023,9,17,2,1,9,32,3,0,0,0,1197.4300000001676,undefined,undefined,undefined,
nadme0gcke,undefined,undefined,undefined,undefined,10,Know,27,ELIZABETH,ELIZABETH ,false,4472.5150000012945,10,33,19,2,10,16,11,1,2,1,1430.5900000035763,undefined,undefined,undefined,
nadme0gcke,undefined,undefined,undefined,undefined,11,Familiar,10,NA,NA,NA,NA,11,8,16,0,11,4,16,1,0,1,1614.970000009751,undefined,undefined,undefined,
nadme0gcke,undefined,undefined,undefined,undefined,12,Know,3,STEPHANIE,STEPHANIE,true,4567.29500000074,12,29,7,2,12,9,10,1,1,0,1260.2449999975506,undefined,undefined,undefined,
nadme0gcke,undefined,undefined,undefined,undefined,13,Know,21,LAUREN,LAUREN,true,2342.9749999922933,13,5,11,2,13,11,6,0,0,1,1149.690000005532,undefined,undefined,undefined,
nadme0gcke,undefined,undefined,undefined,undefined,14,Familiar,30,NA,NA,NA,NA,14,19,12,1,14,34,7,1,2,1,1433.299999989802,undefined,undefined,undefined,
nadme0gcke,undefined,undefined,undefined,undefined,15,Know,35,MEGAN,MEGAN,true,2566.8799999984913,15,28,36,1,15,28,36,0,1,1,2032.8899999877904,undefined,undefined,undefined,
nadme0gcke,undefined,undefined,undefined,undefined,16,Familiar,22,NA,NA,NA,NA,16,32,3,0,16,13,34,0,2,1,1994.5949999964796,undefined,undefined,undefined,
nadme0gcke,undefined,undefined,undefined,undefined,17,Familiar,8,NA,NA,NA,NA,17,27,4,1,17,8,30,1,0,0,3684.974999996368,undefined,undefined,undefined,
nadme0gcke,undefined,undefined,undefined,undefined,18,Know,36,GRACE,GRACE,true,1861.4500000112457,18,6,1,1,18,26,26,0,2,1,1673.534999994561,undefined,undefined,undefined,
nadme0gcke,undefined,undefined,undefined,undefined,19,Know,9,COURTNEY,COURTNEY,true,5829.040000011446,19,16,8,2,19,12,21,0,2,1,6300.054999999702,undefined,undefined,undefined,
nadme0gcke,undefined,undefined,undefined,undefined,20,Familiar,2,NA,NA,NA,NA,20,31,10,1,20,31,27,1,1,1,946.8499999928754,undefined,undefined,undefined,
nadme0gcke,undefined,undefined,undefined,undefined,21,Familiar,23,NA,NA,NA,NA,21,1,15,2,21,27,4,0,1,1,1466.2150000077672,undefined,undefined,undefined,
nadme0gcke,undefined,undefined,undefined,undefined,22,Know,31,ALYSSA,ALYSSA,true,2849.9100000044564,22,18,28,2,22,29,32,1,2,1,1923.190000001341,undefined,undefined,undefined,
nadme0gcke,undefined,undefined,undefined,undefined,23,Familiar,20,NA,NA,NA,NA,23,30,22,0,23,25,18,0,1,1,2213.8349999878556,undefined,undefined,undefined,
nadme0gcke,undefined,undefined,undefined,undefined,24,Familiar,4,NA,NA,NA,NA,24,2,24,0,24,21,29,1,1,1,1467.8249999997206,undefined,undefined,undefined,
nadme0gcke,undefined,undefined,undefined,undefined,25,Know,28,REBECCA,REBECCA,true,6334.9100000050385,25,12,21,2,25,30,22,0,0,0,1704.1299999984913,undefined,undefined,undefined,
nadme0gcke,undefined,undefined,undefined,undefined,26,Familiar,24,NA,NA,NA,NA,26,10,23,0,26,24,33,0,0,1,1583.0550000101794,undefined,undefined,undefined,
nadme0gcke,undefined,undefined,undefined,undefined,27,Know,25,JENNIFER,ELIZABETH,false,20537.3649999965,27,13,34,2,27,19,12,0,1,0,2462.154999986291,undefined,undefined,undefined,
nadme0gcke,undefined,undefined,undefined,undefined,28,Know,3,STEPHANIE,ALYSSA,false,9298.534999994445,28,23,9,0,28,15,25,0,0,1,1715.1149999990594,undefined,undefined,undefined,
nadme0gcke,undefined,undefined,undefined,undefined,29,Familiar,11,NA,NA,NA,NA,29,24,33,0,29,18,28,0,2,1,1686.514999993844,undefined,undefined,undefined,
nadme0gcke,undefined,undefined,undefined,undefined,30,Familiar,20,NA,NA,NA,NA,30,21,14,1,30,20,9,1,0,1,2568.1049999983516,undefined,undefined,undefined,
nadme0gcke,undefined,undefined,undefined,undefined,31,Know,35,MEGAN,GRACE,false,5154.865000004065,31,20,5,0,31,36,14,1,1,1,962.679999996908,undefined,undefined,undefined,
nadme0gcke,undefined,undefined,undefined,undefined,32,Familiar,22,NA,NA,NA,NA,32,15,25,0,32,33,19,0,2,1,1482.440000006929,undefined,undefined,undefined,
nadme0gcke,undefined,undefined,undefined,undefined,33,Know,17,AMANDA,PATRICIA,false,3796.1100000102306,33,34,32,2,33,23,5,1,0,1,1067.5650000048336,undefined,undefined,undefined,
nadme0gcke,undefined,undefined,undefined,undefined,34,Familiar,8,NA,NA,NA,NA,34,4,30,0,34,7,15,1,2,1,1042.9100000036415,undefined,undefined,undefined,
nadme0gcke,undefined,undefined,undefined,undefined,35,Familiar,4,NA,NA,NA,NA,35,11,6,0,35,1,17,1,2,0,1753.3299999921583,undefined,undefined,undefined,
nadme0gcke,undefined,undefined,undefined,undefined,36,Know,21,LAUREN,PATRICIA,false,5072.29000001098,36,25,18,1,36,10,23,0,0,1,1196.6799999936484,undefined,undefined,undefined,
nadme0gcke,undefined,undefined,undefined,undefined,37,Familiar,2,NA,NA,NA,NA,37,24,33,0,undefined,undefined,undefined,undefined,undefined,undefined,undefined,undefined,undefined,undefined,
nadme0gcke,undefined,undefined,undefined,undefined,38,Know,19,PATRICIA,PATRICIA,true,6317.320000001928,38,8,16,0,undefined,undefined,undefined,undefined,undefined,undefined,undefined,undefined,undefined,undefined,
nadme0gcke,undefined,undefined,undefined,undefined,39,Know,6,NANCY,ALYSSA,false,8394.944999992731,39,33,19,2,undefined,undefined,undefined,undefined,undefined,undefined,undefined,undefined,undefined,undefined,
nadme0gcke,undefined,undefined,undefined,undefined,40,Familiar,30,NA,NA,NA,NA,40,15,25,0,undefined,undefined,undefined,undefined,undefined,undefined,undefined,undefined,undefined,undefined,
nadme0gcke,undefined,undefined,undefined,undefined,41,Familiar,10,NA,NA,NA,NA,41,5,11,2,undefined,undefined,undefined,undefined,undefined,undefined,undefined,undefined,undefined,undefined,
nadme0gcke,undefined,undefined,undefined,undefined,42,Know,36,GRACE,ALYSSA,false,3248.9649999915855,42,19,12,1,undefined,undefined,undefined,undefined,undefined,undefined,undefined,undefined,undefined,undefined,
nadme0gcke,undefined,undefined,undefined,undefined,43,Know,31,ALYSSA,ALYSSA,true,3623.7699999910546,43,3,31,1,undefined,undefined,undefined,undefined,undefined,undefined,undefined,undefined,undefined,undefined,
nadme0gcke,undefined,undefined,undefined,undefined,44,Familiar,32,NA,NA,NA,NA,44,11,6,0,undefined,undefined,undefined,undefined,undefined,undefined,undefined,undefined,undefined,undefined,
nadme0gcke,undefined,undefined,undefined,undefined,45,Know,27,ELIZABETH,COURTNEY,false,5194.264999998268,45,31,10,1,undefined,undefined,undefined,undefined,undefined,undefined,undefined,undefined,undefined,undefined,
nadme0gcke,undefined,undefined,undefined,undefined,46,Know,9,COURTNEY,COURTNEY ,false,6322.585000001709,46,4,30,0,undefined,undefined,undefined,undefined,undefined,undefined,undefined,undefined,undefined,undefined,
nadme0gcke,undefined,undefined,undefined,undefined,47,Familiar,15,NA,NA,NA,NA,47,32,3,0,undefined,undefined,undefined,undefined,undefined,undefined,undefined,undefined,undefined,undefined,
nadme0gcke,undefined,undefined,undefined,undefined,48,Familiar,23,NA,NA,NA,NA,48,9,27,1,undefined,undefined,undefined,undefined,undefined,undefined,undefined,undefined,undefined,undefined,
nadme0gcke,undefined,undefined,undefined,undefined,49,Know,21,LAUREN,NANCY,false,4705.354999998235,49,21,14,1,undefined,undefined,undefined,undefined,undefined,undefined,undefined,undefined,undefined,undefined,
nadme0gcke,undefined,undefined,undefined,undefined,50,Familiar,11,NA,NA,NA,NA,50,10,23,0,undefined,undefined,undefined,undefined,undefined,undefined,undefined,undefined,undefined,undefined,
nadme0gcke,undefined,undefined,undefined,undefined,51,Know,3,STEPHANIE,AMANDA,false,19396.04499998677,51,34,32,2,undefined,undefined,undefined,undefined,undefined,undefined,undefined,undefined,undefined,undefined,
nadme0gcke,undefined,undefined,undefined,undefined,52,Know,35,MEGAN,AMANDA,false,4563.500000003842,52,17,2,1,undefined,undefined,undefined,undefined,undefined,undefined,undefined,undefined,undefined,undefined,
nadme0gcke,undefined,undefined,undefined,undefined,53,Familiar,23,NA,NA,NA,NA,53,7,17,2,undefined,undefined,undefined,undefined,undefined,undefined,undefined,undefined,undefined,undefined,
nadme0gcke,undefined,undefined,undefined,undefined,54,Know,19,PATRICIA,NANCY,false,3591.9299999950454,54,25,18,1,undefined,undefined,undefined,undefined,undefined,undefined,undefined,undefined,undefined,undefined,
nadme0gcke,undefined,undefined,undefined,undefined,55,Know,9,COURTNEY,AMANDA,false,14206.440000009025,55,26,26,2,undefined,undefined,undefined,undefined,undefined,undefined,undefined,undefined,undefined,undefined,
nadme0gcke,undefined,undefined,undefined,undefined,56,Familiar,4,NA,NA,NA,NA,56,16,8,2,undefined,undefined,undefined,undefined,undefined,undefined,undefined,undefined,undefined,undefined,
nadme0gcke,undefined,undefined,undefined,undefined,57,Familiar,32,NA,NA,NA,NA,57,6,1,1,undefined,undefined,undefined,undefined,undefined,undefined,undefined,undefined,undefined,undefined,
nadme0gcke,undefined,undefined,undefined,undefined,58,Know,27,ELIZABETH,NANCY,false,2876.409999997122,58,29,7,2,undefined,undefined,undefined,undefined,undefined,undefined,undefined,undefined,undefined,undefined,
nadme0gcke,undefined,undefined,undefined,undefined,59,Know,36,GRACE,LAUREN,false,3730.025000011665,59,1,15,2,undefined,undefined,undefined,undefined,undefined,undefined,undefined,undefined,undefined,undefined,
nadme0gcke,undefined,undefined,undefined,undefined,60,Familiar,8,NA,NA,NA,NA,60,20,5,0,undefined,undefined,undefined,undefined,undefined,undefined,undefined,undefined,undefined,undefined,
nadme0gcke,undefined,undefined,undefined,undefined,61,Familiar,22,NA,NA,NA,NA,61,2,24,0,undefined,undefined,undefined,undefined,undefined,undefined,undefined,undefined,undefined,undefined,
nadme0gcke,undefined,undefined,undefined,undefined,62,Know,31,ALYSSA,PATRICIA,false,7938.565000003902,62,36,29,1,undefined,undefined,undefined,undefined,undefined,undefined,undefined,undefined,undefined,undefined,
nadme0gcke,undefined,undefined,undefined,undefined,63,Familiar,10,NA,NA,NA,NA,63,14,13,2,undefined,undefined,undefined,undefined,undefined,undefined,undefined,undefined,undefined,undefined,
nadme0gcke,undefined,undefined,undefined,undefined,64,Familiar,15,NA,NA,NA,NA,64,13,34,2,undefined,undefined,undefined,undefined,undefined,undefined,undefined,undefined,undefined,undefined,
nadme0gcke,undefined,undefined,undefined,undefined,65,Know,25,JENNIFER,NANCY,false,4186.055000012973,65,35,20,1,undefined,undefined,undefined,undefined,undefined,undefined,undefined,undefined,undefined,undefined,
nadme0gcke,undefined,undefined,undefined,undefined,66,Familiar,24,NA,NA,NA,NA,66,23,9,0,undefined,undefined,undefined,undefined,undefined,undefined,undefined,undefined,undefined,undefined,
nadme0gcke,undefined,undefined,undefined,undefined,67,Know,6,NANCY,NANCY,true,4471.079999988433,67,30,22,0,undefined,undefined,undefined,undefined,undefined,undefined,undefined,undefined,undefined,undefined,
nadme0gcke,undefined,undefined,undefined,undefined,68,Familiar,30,NA,NA,NA,NA,68,12,21,2,undefined,undefined,undefined,undefined,undefined,undefined,undefined,undefined,undefined,undefined,
nadme0gcke,undefined,undefined,undefined,undefined,69,Familiar,2,NA,NA,NA,NA,69,22,35,0,undefined,undefined,undefined,undefined,undefined,undefined,undefined,undefined,undefined,undefined,
nadme0gcke,undefined,undefined,undefined,undefined,70,Know,28,REBECCA,REBECCA,true,7138.344999999506,70,18,28,2,undefined,undefined,undefined,undefined,undefined,undefined,undefined,undefined,undefined,undefined,
nadme0gcke,undefined,undefined,undefined,undefined,71,Familiar,20,NA,NA,NA,NA,71,28,36,1,undefined,undefined,undefined,undefined,undefined,undefined,undefined,undefined,undefined,undefined,
nadme0gcke,undefined,undefined,undefined,undefined,72,Know,17,AMANDA,ELIZABETH,false,9369.504999994999,72,27,4,1,undefined,undefined,undefined,undefined,undefined,undefined,undefined,undefined,undefined,undefined,
nadme0gcke,undefined,undefined,undefined,undefined,73,Know,31,ALYSSA,ALYSSA,true,7449.140000011772,undefined,undefined,undefined,undefined,undefined,undefined,undefined,undefined,undefined,undefined,undefined,undefined,undefined,undefined,
nadme0gcke,undefined,undefined,undefined,undefined,74,Familiar,30,NA,NA,NA,NA,undefined,undefined,undefined,undefined,undefined,undefined,undefined,undefined,undefined,undefined,undefined,undefined,undefined,undefined,
nadme0gcke,undefined,undefined,undefined,undefined,75,Familiar,4,NA,NA,NA,NA,undefined,undefined,undefined,undefined,undefined,undefined,undefined,undefined,undefined,undefined,undefined,undefined,undefined,undefined,
nadme0gcke,undefined,undefined,undefined,undefined,76,Know,17,AMANDA,AMANDA,true,4295.324999999022,undefined,undefined,undefined,undefined,undefined,undefined,undefined,undefined,undefined,undefined,undefined,undefined,undefined,undefined,
nadme0gcke,undefined,undefined,undefined,undefined,77,Know,9,COURTNEY,GRACE,false,9377.51500000013,undefined,undefined,undefined,undefined,undefined,undefined,undefined,undefined,undefined,undefined,undefined,undefined,undefined,undefined,
nadme0gcke,undefined,undefined,undefined,undefined,78,Familiar,2,NA,NA,NA,NA,undefined,undefined,undefined,undefined,undefined,undefined,undefined,undefined,undefined,undefined,undefined,undefined,undefined,undefined,
nadme0gcke,undefined,undefined,undefined,undefined,79,Know,25,JENNIFER,GRACE,false,6998.615000004182,undefined,undefined,undefined,undefined,undefined,undefined,undefined,undefined,undefined,undefined,undefined,undefined,undefined,undefined,
nadme0gcke,undefined,undefined,undefined,undefined,80,Familiar,24,NA,NA,NA,NA,undefined,undefined,undefined,undefined,undefined,undefined,undefined,undefined,undefined,undefined,undefined,undefined,undefined,undefined,
nadme0gcke,undefined,undefined,undefined,undefined,81,Know,35,MEGAN,GRACE4,false,4346.57000000868,undefined,undefined,undefined,undefined,undefined,undefined,undefined,undefined,undefined,undefined,undefined,undefined,undefined,undefined,
nadme0gcke,undefined,undefined,undefined,undefined,82,Familiar,8,NA,NA,NA,NA,undefined,undefined,undefined,undefined,undefined,undefined,undefined,undefined,undefined,undefined,undefined,undefined,undefined,undefined,
nadme0gcke,undefined,undefined,undefined,undefined,83,Familiar,15,NA,NA,NA,NA,undefined,undefined,undefined,undefined,undefined,undefined,undefined,undefined,undefined,undefined,undefined,undefined,undefined,undefined,
nadme0gcke,undefined,undefined,undefined,undefined,84,Know,27,ELIZABETH,ALYSSA,false,8416.100000002421,undefined,undefined,undefined,undefined,undefined,undefined,undefined,undefined,undefined,undefined,undefined,undefined,undefined,undefined,
nadme0gcke,undefined,undefined,undefined,undefined,85,Know,21,LAUREN,LAUREN,true,3695.789999997942,undefined,undefined,undefined,undefined,undefined,undefined,undefined,undefined,undefined,undefined,undefined,undefined,undefined,undefined,
nadme0gcke,undefined,undefined,undefined,undefined,86,Familiar,11,NA,NA,NA,NA,undefined,undefined,undefined,undefined,undefined,undefined,undefined,undefined,undefined,undefined,undefined,undefined,undefined,undefined,
nadme0gcke,undefined,undefined,undefined,undefined,87,Familiar,10,NA,NA,NA,NA,undefined,undefined,undefined,undefined,undefined,undefined,undefined,undefined,undefined,undefined,undefined,undefined,undefined,undefined,
nadme0gcke,undefined,undefined,undefined,undefined,88,Know,6,NANCY,NANCY,true,5177.775000003865,undefined,undefined,undefined,undefined,undefined,undefined,undefined,undefined,undefined,undefined,undefined,undefined,undefined,undefined,
nadme0gcke,undefined,undefined,undefined,undefined,89,Know,3,STEPHANIE,GRACE,false,12793.74500000244,undefined,undefined,undefined,undefined,undefined,undefined,undefined,undefined,undefined,undefined,undefined,undefined,undefined,undefined,
nadme0gcke,undefined,undefined,undefined,undefined,90,Familiar,22,NA,NA,NA,NA,undefined,undefined,undefined,undefined,undefined,undefined,undefined,undefined,undefined,undefined,undefined,undefined,undefined,undefined,
nadme0gcke,undefined,undefined,undefined,undefined,91,Familiar,20,NA,NA,NA,NA,undefined,undefined,undefined,undefined,undefined,undefined,undefined,undefined,undefined,undefined,undefined,undefined,undefined,undefined,
nadme0gcke,undefined,undefined,undefined,undefined,92,Know,28,REBECCA,REBECCA,true,4365.390000006184,undefined,undefined,undefined,undefined,undefined,undefined,undefined,undefined,undefined,undefined,undefined,undefined,undefined,undefined,
nadme0gcke,undefined,undefined,undefined,undefined,93,Familiar,32,NA,NA,NA,NA,undefined,undefined,undefined,undefined,undefined,undefined,undefined,undefined,undefined,undefined,undefined,undefined,undefined,undefined,
nadme0gcke,undefined,undefined,undefined,undefined,94,Familiar,23,NA,NA,NA,NA,undefined,undefined,undefined,undefined,undefined,undefined,undefined,undefined,undefined,undefined,undefined,undefined,undefined,undefined,
nadme0gcke,undefined,undefined,undefined,undefined,95,Know,36,GRACE,JENNIFER,false,6388.585000007879,undefined,undefined,undefined,undefined,undefined,undefined,undefined,undefined,undefined,undefined,undefined,undefined,undefined,undefined,
nadme0gcke,undefined,undefined,undefined,undefined,96,Know,19,PATRICIA,JENNIFER,false,3976.699999999255,undefined,undefined,undefined,undefined,undefined,undefined,undefined,undefined,undefined,undefined,undefined,undefined,undefined,undefined,
