SubNum,SubNum_demo,Exp_start_time,Exp_today_date,Exp_today_time,TrialNum,Condition,Face,Name,Response,NameAcc,RespTime,StudyTrialNum,StudyFace,StudyContext,StudyFamCond,TestTrialNum,TestFace,TestContext,TestSDCond,TestFamCond,TestResponse,TestResponseTime,Exp_end_time,Distractor_1_duration,Distractor_2_duration,
0tvjk0e54v,ak0wdfvh20,Sun Oct 18 2020 22:17:20 GMT-0500 (CDT),2020-10-18,22:17:20,1,Familiar,3,NA,NA,NA,NA,1,36,34,0,1,20,28,1,2,0,4694,23:1:58,1216439,60673,
0tvjk0e54v,undefined,undefined,undefined,undefined,2,Know,31,JESSICA,JESSICA,true,6378,2,2,35,0,2,28,15,0,1,0,3757.0000000004657,undefined,undefined,undefined,
0tvjk0e54v,undefined,undefined,undefined,undefined,3,Know,11,BETTY,BETTY,true,3252,3,13,17,1,3,36,12,1,0,1,2940,undefined,undefined,undefined,
0tvjk0e54v,undefined,undefined,undefined,undefined,4,Familiar,26,NA,NA,NA,NA,4,21,29,1,4,13,25,1,1,1,1171,undefined,undefined,undefined,
0tvjk0e54v,undefined,undefined,undefined,undefined,5,Know,28,VICTORIA,VICTORIA,true,6148,5,23,6,0,5,32,34,1,0,1,1380.0000000004657,undefined,undefined,undefined,
0tvjk0e54v,undefined,undefined,undefined,undefined,6,Familiar,2,NA,NA,NA,NA,6,16,18,2,6,15,36,0,1,1,2962,undefined,undefined,undefined,
0tvjk0e54v,undefined,undefined,undefined,undefined,7,Know,15,HAZEL,HAZEL,true,3652.999999999971,7,28,15,1,7,31,30,0,1,1,2705,undefined,undefined,undefined,
0tvjk0e54v,undefined,undefined,undefined,undefined,8,Familiar,34,NA,NA,NA,NA,8,7,32,0,8,30,2,1,0,1,1799.9999999995343,undefined,undefined,undefined,
0tvjk0e54v,undefined,undefined,undefined,undefined,9,Familiar,7,NA,NA,NA,NA,9,8,11,2,9,4,23,1,2,0,2884,undefined,undefined,undefined,
0tvjk0e54v,undefined,undefined,undefined,undefined,10,Know,17,COURTNEY,COURTNEY,true,4268,10,5,21,0,10,8,11,0,2,1,3075,undefined,undefined,undefined,
0tvjk0e54v,undefined,undefined,undefined,undefined,11,Know,22,BRITTANY,BRITTANY,true,4306,11,26,33,0,11,2,35,0,0,1,3439,undefined,undefined,undefined,
0tvjk0e54v,undefined,undefined,undefined,undefined,12,Familiar,5,NA,NA,NA,NA,12,27,20,1,12,14,17,1,1,1,1435,undefined,undefined,undefined,
0tvjk0e54v,undefined,undefined,undefined,undefined,13,Familiar,30,NA,NA,NA,NA,13,35,22,2,13,25,14,1,2,0,1677,undefined,undefined,undefined,
0tvjk0e54v,undefined,undefined,undefined,undefined,14,Know,1,BRIANNA,BRIANNA,true,5198.999999999971,14,20,23,2,14,7,32,0,0,0,1452,undefined,undefined,undefined,
0tvjk0e54v,undefined,undefined,undefined,undefined,15,Know,13,ASHLEY,ASHLEY,true,5219,15,10,24,1,15,21,24,1,1,0,1870,undefined,undefined,undefined,
0tvjk0e54v,undefined,undefined,undefined,undefined,16,Familiar,18,NA,NA,NA,NA,16,4,28,2,16,29,10,1,2,0,1962.9999999995343,undefined,undefined,undefined,
0tvjk0e54v,undefined,undefined,undefined,undefined,17,Familiar,9,NA,NA,NA,NA,17,15,36,1,17,5,21,0,0,0,1012,undefined,undefined,undefined,
0tvjk0e54v,undefined,undefined,undefined,undefined,18,Know,21,MARGARET,MARGARET,true,4560,18,1,7,1,18,26,33,0,0,0,1007,undefined,undefined,undefined,
0tvjk0e54v,undefined,undefined,undefined,undefined,19,Know,27,RACHEL,RACHAEL,false,8936,19,3,19,0,19,10,29,1,1,0,4366.999999999534,undefined,undefined,undefined,
0tvjk0e54v,undefined,undefined,undefined,undefined,20,Familiar,32,NA,NA,NA,NA,20,14,25,1,20,24,27,1,2,1,1352,undefined,undefined,undefined,
0tvjk0e54v,undefined,undefined,undefined,undefined,21,Know,10,SOFIA,SOFIA,true,8794,21,30,1,0,21,9,1,1,0,0,2093.0000000004657,undefined,undefined,undefined,
0tvjk0e54v,undefined,undefined,undefined,undefined,22,Know,14,CHLOE,CHLOE,true,4071,22,19,27,2,22,3,19,0,0,0,1416.0000000004657,undefined,undefined,undefined,
0tvjk0e54v,undefined,undefined,undefined,undefined,23,Familiar,23,NA,NA,NA,NA,23,32,12,0,23,6,13,0,2,1,1443,undefined,undefined,undefined,
0tvjk0e54v,undefined,undefined,undefined,undefined,24,Familiar,36,NA,NA,NA,NA,24,31,30,1,24,33,31,0,2,0,1822.0000000004657,undefined,undefined,undefined,
0tvjk0e54v,undefined,undefined,undefined,undefined,25,Know,31,JESSICA,ASHLEY,false,18584.99999999994,25,34,5,0,25,19,4,1,2,1,3250,undefined,undefined,undefined,
0tvjk0e54v,undefined,undefined,undefined,undefined,26,Familiar,23,NA,NA,NA,NA,26,6,13,2,26,27,7,1,1,1,5169,undefined,undefined,undefined,
0tvjk0e54v,undefined,undefined,undefined,undefined,27,Familiar,18,NA,NA,NA,NA,27,12,8,2,27,12,8,0,2,0,2170,undefined,undefined,undefined,
0tvjk0e54v,undefined,undefined,undefined,undefined,28,Know,10,SOFIA,BRITTNEY,false,7774,28,22,3,1,28,11,26,0,1,0,2330,undefined,undefined,undefined,
0tvjk0e54v,undefined,undefined,undefined,undefined,29,Familiar,32,NA,NA,NA,NA,29,24,4,2,29,17,16,0,1,0,3885,undefined,undefined,undefined,
0tvjk0e54v,undefined,undefined,undefined,undefined,30,Know,17,COURTNEY,BRITTNEY,false,12059,30,11,26,1,30,18,6,1,0,0,2089.9999999995343,undefined,undefined,undefined,
0tvjk0e54v,undefined,undefined,undefined,undefined,31,Familiar,5,NA,NA,NA,NA,31,25,10,2,31,1,20,1,1,1,1742.9999999995343,undefined,undefined,undefined,
0tvjk0e54v,undefined,undefined,undefined,undefined,32,Know,22,BRITTANY,RACHEL,false,14155,32,17,16,1,32,16,18,0,2,1,1169,undefined,undefined,undefined,
0tvjk0e54v,undefined,undefined,undefined,undefined,33,Know,11,BETTY,BIANCA,false,14900,33,29,14,2,33,34,5,0,0,1,835,undefined,undefined,undefined,
0tvjk0e54v,undefined,undefined,undefined,undefined,34,Familiar,3,NA,NA,NA,NA,34,33,31,2,34,22,3,0,1,1,1344,undefined,undefined,undefined,
0tvjk0e54v,undefined,undefined,undefined,undefined,35,Know,21,MARGARET,BRITTNEY,false,7213,35,9,2,0,35,23,9,1,0,0,1623.9999999995343,undefined,undefined,undefined,
0tvjk0e54v,undefined,undefined,undefined,undefined,36,Know,15,HAZEL,BRIANNA,false,9757.000000000058,36,18,9,0,36,35,22,0,2,0,3309,undefined,undefined,undefined,
0tvjk0e54v,undefined,undefined,undefined,undefined,37,Familiar,36,NA,NA,NA,NA,37,12,8,2,undefined,undefined,undefined,undefined,undefined,undefined,undefined,undefined,undefined,undefined,
0tvjk0e54v,undefined,undefined,undefined,undefined,38,Familiar,30,NA,NA,NA,NA,38,13,17,1,undefined,undefined,undefined,undefined,undefined,undefined,undefined,undefined,undefined,undefined,
0tvjk0e54v,undefined,undefined,undefined,undefined,39,Know,1,BRIANNA,CHOLE,false,8903,39,15,36,1,undefined,undefined,undefined,undefined,undefined,undefined,undefined,undefined,undefined,undefined,
0tvjk0e54v,undefined,undefined,undefined,undefined,40,Familiar,34,NA,NA,NA,NA,40,5,21,0,undefined,undefined,undefined,undefined,undefined,undefined,undefined,undefined,undefined,undefined,
0tvjk0e54v,undefined,undefined,undefined,undefined,41,Know,28,VICTORIA,ASHLEY,false,7178.999999999942,41,21,29,1,undefined,undefined,undefined,undefined,undefined,undefined,undefined,undefined,undefined,undefined,
0tvjk0e54v,undefined,undefined,undefined,undefined,42,Familiar,7,NA,NA,NA,NA,42,31,30,1,undefined,undefined,undefined,undefined,undefined,undefined,undefined,undefined,undefined,undefined,
0tvjk0e54v,undefined,undefined,undefined,undefined,43,Familiar,2,NA,NA,NA,NA,43,2,35,0,undefined,undefined,undefined,undefined,undefined,undefined,undefined,undefined,undefined,undefined,
0tvjk0e54v,undefined,undefined,undefined,undefined,44,Know,13,ASHLEY,ASHLEY,true,7724,44,22,3,1,undefined,undefined,undefined,undefined,undefined,undefined,undefined,undefined,undefined,undefined,
0tvjk0e54v,undefined,undefined,undefined,undefined,45,Familiar,26,NA,NA,NA,NA,45,36,34,0,undefined,undefined,undefined,undefined,undefined,undefined,undefined,undefined,undefined,undefined,
0tvjk0e54v,undefined,undefined,undefined,undefined,46,Know,14,CHLOE,CHOLE,false,5805.000000000058,46,11,26,1,undefined,undefined,undefined,undefined,undefined,undefined,undefined,undefined,undefined,undefined,
0tvjk0e54v,undefined,undefined,undefined,undefined,47,Familiar,9,NA,NA,NA,NA,47,29,14,2,undefined,undefined,undefined,undefined,undefined,undefined,undefined,undefined,undefined,undefined,
0tvjk0e54v,undefined,undefined,undefined,undefined,48,Know,27,RACHEL,BETTY,false,13872,48,30,1,0,undefined,undefined,undefined,undefined,undefined,undefined,undefined,undefined,undefined,undefined,
0tvjk0e54v,undefined,undefined,undefined,undefined,49,Know,11,BETTY,BETTY,true,6525,49,7,32,0,undefined,undefined,undefined,undefined,undefined,undefined,undefined,undefined,undefined,undefined,
0tvjk0e54v,undefined,undefined,undefined,undefined,50,Familiar,30,NA,NA,NA,NA,50,16,18,2,undefined,undefined,undefined,undefined,undefined,undefined,undefined,undefined,undefined,undefined,
0tvjk0e54v,undefined,undefined,undefined,undefined,51,Familiar,3,NA,NA,NA,NA,51,17,16,1,undefined,undefined,undefined,undefined,undefined,undefined,undefined,undefined,undefined,undefined,
0tvjk0e54v,undefined,undefined,undefined,undefined,52,Know,1,BRIANNA,BRIANNA,true,7547,52,35,22,2,undefined,undefined,undefined,undefined,undefined,undefined,undefined,undefined,undefined,undefined,
0tvjk0e54v,undefined,undefined,undefined,undefined,53,Know,17,COURTNEY,COURTNEY,true,7072,53,19,27,2,undefined,undefined,undefined,undefined,undefined,undefined,undefined,undefined,undefined,undefined,
0tvjk0e54v,undefined,undefined,undefined,undefined,54,Familiar,34,NA,NA,NA,NA,54,3,19,0,undefined,undefined,undefined,undefined,undefined,undefined,undefined,undefined,undefined,undefined,
0tvjk0e54v,undefined,undefined,undefined,undefined,55,Know,13,ASHLEY,ASHLEY,true,5055.999999999884,55,33,31,2,undefined,undefined,undefined,undefined,undefined,undefined,undefined,undefined,undefined,undefined,
0tvjk0e54v,undefined,undefined,undefined,undefined,56,Familiar,7,NA,NA,NA,NA,56,14,25,1,undefined,undefined,undefined,undefined,undefined,undefined,undefined,undefined,undefined,undefined,
0tvjk0e54v,undefined,undefined,undefined,undefined,57,Familiar,18,NA,NA,NA,NA,57,1,7,1,undefined,undefined,undefined,undefined,undefined,undefined,undefined,undefined,undefined,undefined,
0tvjk0e54v,undefined,undefined,undefined,undefined,58,Know,22,BRITTANY,RACHEL,false,9774,58,20,23,2,undefined,undefined,undefined,undefined,undefined,undefined,undefined,undefined,undefined,undefined,
0tvjk0e54v,undefined,undefined,undefined,undefined,59,Know,31,JESSICA,RACHEL,false,13058,59,10,24,1,undefined,undefined,undefined,undefined,undefined,undefined,undefined,undefined,undefined,undefined,
0tvjk0e54v,undefined,undefined,undefined,undefined,60,Familiar,9,NA,NA,NA,NA,60,28,15,1,undefined,undefined,undefined,undefined,undefined,undefined,undefined,undefined,undefined,undefined,
0tvjk0e54v,undefined,undefined,undefined,undefined,61,Know,27,RACHEL,RACHE;,false,5506,61,9,2,0,undefined,undefined,undefined,undefined,undefined,undefined,undefined,undefined,undefined,undefined,
0tvjk0e54v,undefined,undefined,undefined,undefined,62,Know,10,SOFIA,COURTNEY,false,4857,62,6,13,2,undefined,undefined,undefined,undefined,undefined,undefined,undefined,undefined,undefined,undefined,
0tvjk0e54v,undefined,undefined,undefined,undefined,63,Familiar,23,NA,NA,NA,NA,63,25,10,2,undefined,undefined,undefined,undefined,undefined,undefined,undefined,undefined,undefined,undefined,
0tvjk0e54v,undefined,undefined,undefined,undefined,64,Familiar,32,NA,NA,NA,NA,64,18,9,0,undefined,undefined,undefined,undefined,undefined,undefined,undefined,undefined,undefined,undefined,
0tvjk0e54v,undefined,undefined,undefined,undefined,65,Know,28,VICTORIA,BIANCA,false,28846,65,24,4,2,undefined,undefined,undefined,undefined,undefined,undefined,undefined,undefined,undefined,undefined,
0tvjk0e54v,undefined,undefined,undefined,undefined,66,Familiar,26,NA,NA,NA,NA,66,8,11,2,undefined,undefined,undefined,undefined,undefined,undefined,undefined,undefined,undefined,undefined,
0tvjk0e54v,undefined,undefined,undefined,undefined,67,Familiar,5,NA,NA,NA,NA,67,34,5,0,undefined,undefined,undefined,undefined,undefined,undefined,undefined,undefined,undefined,undefined,
0tvjk0e54v,undefined,undefined,undefined,undefined,68,Know,21,MARGARET,BIANCA,false,22187,68,27,20,1,undefined,undefined,undefined,undefined,undefined,undefined,undefined,undefined,undefined,undefined,
0tvjk0e54v,undefined,undefined,undefined,undefined,69,Know,15,HAZEL,HAZEL,true,6935,69,32,12,0,undefined,undefined,undefined,undefined,undefined,undefined,undefined,undefined,undefined,undefined,
0tvjk0e54v,undefined,undefined,undefined,undefined,70,Familiar,2,NA,NA,NA,NA,70,26,33,0,undefined,undefined,undefined,undefined,undefined,undefined,undefined,undefined,undefined,undefined,
0tvjk0e54v,undefined,undefined,undefined,undefined,71,Familiar,36,NA,NA,NA,NA,71,4,28,2,undefined,undefined,undefined,undefined,undefined,undefined,undefined,undefined,undefined,undefined,
0tvjk0e54v,undefined,undefined,undefined,undefined,72,Know,14,CHLOE,CHLOE,true,6075.999999999884,72,23,6,0,undefined,undefined,undefined,undefined,undefined,undefined,undefined,undefined,undefined,undefined,
0tvjk0e54v,undefined,undefined,undefined,undefined,73,Familiar,18,NA,NA,NA,NA,undefined,undefined,undefined,undefined,undefined,undefined,undefined,undefined,undefined,undefined,undefined,undefined,undefined,undefined,
0tvjk0e54v,undefined,undefined,undefined,undefined,74,Know,21,MARGARET,MARGARET,true,7488,undefined,undefined,undefined,undefined,undefined,undefined,undefined,undefined,undefined,undefined,undefined,undefined,undefined,undefined,
0tvjk0e54v,undefined,undefined,undefined,undefined,75,Familiar,30,NA,NA,NA,NA,undefined,undefined,undefined,undefined,undefined,undefined,undefined,undefined,undefined,undefined,undefined,undefined,undefined,undefined,
0tvjk0e54v,undefined,undefined,undefined,undefined,76,Know,1,BRIANNA,BRIANNA,true,6513,undefined,undefined,undefined,undefined,undefined,undefined,undefined,undefined,undefined,undefined,undefined,undefined,undefined,undefined,
0tvjk0e54v,undefined,undefined,undefined,undefined,77,Familiar,7,NA,NA,NA,NA,undefined,undefined,undefined,undefined,undefined,undefined,undefined,undefined,undefined,undefined,undefined,undefined,undefined,undefined,
0tvjk0e54v,undefined,undefined,undefined,undefined,78,Familiar,23,NA,NA,NA,NA,undefined,undefined,undefined,undefined,undefined,undefined,undefined,undefined,undefined,undefined,undefined,undefined,undefined,undefined,
0tvjk0e54v,undefined,undefined,undefined,undefined,79,Know,11,BETTY,VICTORIA,false,22737,undefined,undefined,undefined,undefined,undefined,undefined,undefined,undefined,undefined,undefined,undefined,undefined,undefined,undefined,
0tvjk0e54v,undefined,undefined,undefined,undefined,80,Familiar,5,NA,NA,NA,NA,undefined,undefined,undefined,undefined,undefined,undefined,undefined,undefined,undefined,undefined,undefined,undefined,undefined,undefined,
0tvjk0e54v,undefined,undefined,undefined,undefined,81,Know,13,ASHLEY,ASHLEY,true,5623,undefined,undefined,undefined,undefined,undefined,undefined,undefined,undefined,undefined,undefined,undefined,undefined,undefined,undefined,
0tvjk0e54v,undefined,undefined,undefined,undefined,82,Know,17,COURTNEY,COURTNEY,true,4159,undefined,undefined,undefined,undefined,undefined,undefined,undefined,undefined,undefined,undefined,undefined,undefined,undefined,undefined,
0tvjk0e54v,undefined,undefined,undefined,undefined,83,Familiar,34,NA,NA,NA,NA,undefined,undefined,undefined,undefined,undefined,undefined,undefined,undefined,undefined,undefined,undefined,undefined,undefined,undefined,
0tvjk0e54v,undefined,undefined,undefined,undefined,84,Know,10,SOFIA,SOFIA,true,6574.000000000116,undefined,undefined,undefined,undefined,undefined,undefined,undefined,undefined,undefined,undefined,undefined,undefined,undefined,undefined,
0tvjk0e54v,undefined,undefined,undefined,undefined,85,Know,22,BRITTANY,VICTORIA,false,10357,undefined,undefined,undefined,undefined,undefined,undefined,undefined,undefined,undefined,undefined,undefined,undefined,undefined,undefined,
0tvjk0e54v,undefined,undefined,undefined,undefined,86,Familiar,26,NA,NA,NA,NA,undefined,undefined,undefined,undefined,undefined,undefined,undefined,undefined,undefined,undefined,undefined,undefined,undefined,undefined,
0tvjk0e54v,undefined,undefined,undefined,undefined,87,Familiar,2,NA,NA,NA,NA,undefined,undefined,undefined,undefined,undefined,undefined,undefined,undefined,undefined,undefined,undefined,undefined,undefined,undefined,
0tvjk0e54v,undefined,undefined,undefined,undefined,88,Know,27,RACHEL,JESSICA ,false,64485,undefined,undefined,undefined,undefined,undefined,undefined,undefined,undefined,undefined,undefined,undefined,undefined,undefined,undefined,
0tvjk0e54v,undefined,undefined,undefined,undefined,89,Familiar,3,NA,NA,NA,NA,undefined,undefined,undefined,undefined,undefined,undefined,undefined,undefined,undefined,undefined,undefined,undefined,undefined,undefined,
0tvjk0e54v,undefined,undefined,undefined,undefined,90,Familiar,36,NA,NA,NA,NA,undefined,undefined,undefined,undefined,undefined,undefined,undefined,undefined,undefined,undefined,undefined,undefined,undefined,undefined,
0tvjk0e54v,undefined,undefined,undefined,undefined,91,Know,14,CHLOE,CHLOE,true,4748,undefined,undefined,undefined,undefined,undefined,undefined,undefined,undefined,undefined,undefined,undefined,undefined,undefined,undefined,
0tvjk0e54v,undefined,undefined,undefined,undefined,92,Know,31,JESSICA,JESSICA,true,7001.000000000116,undefined,undefined,undefined,undefined,undefined,undefined,undefined,undefined,undefined,undefined,undefined,undefined,undefined,undefined,
0tvjk0e54v,undefined,undefined,undefined,undefined,93,Familiar,9,NA,NA,NA,NA,undefined,undefined,undefined,undefined,undefined,undefined,undefined,undefined,undefined,undefined,undefined,undefined,undefined,undefined,
0tvjk0e54v,undefined,undefined,undefined,undefined,94,Familiar,32,NA,NA,NA,NA,undefined,undefined,undefined,undefined,undefined,undefined,undefined,undefined,undefined,undefined,undefined,undefined,undefined,undefined,
0tvjk0e54v,undefined,undefined,undefined,undefined,95,Know,15,HAZEL,COURTNEY,false,4942,undefined,undefined,undefined,undefined,undefined,undefined,undefined,undefined,undefined,undefined,undefined,undefined,undefined,undefined,
0tvjk0e54v,undefined,undefined,undefined,undefined,96,Know,28,VICTORIA,COURTNEY,false,8261,undefined,undefined,undefined,undefined,undefined,undefined,undefined,undefined,undefined,undefined,undefined,undefined,undefined,undefined,
