SubNum,SubNum_demo,Exp_start_time,Exp_today_date,Exp_today_time,TrialNum,FaceID,FaceImg,Name,Response,NameAcc,RespTime,StudyTrialNum,StudyFaceID,StudyFaceImg,StudyFamCond,StudyTime,TestTrialNum,TestFaceID,TestFaceImg,TestFamCond,TestStatusCond,TestResponse,TestResponseTime,Exp_end_time,Distractor_1_duration,Distractor_1_numT,Distractor_1_acc,Distractor_2_duration,Distractor_2_numT,Distractor_2_acc,StudyButtonRespTime,StudyButtonRespTime_mean,q1,q2,q3,
kc00ljq919,727cglltq7,Wed Jan 06 2021 10:27:07 GMT-0700 (Mountain Standard Time),2021-1-6,10:27:7,1,37,7,ZOEY,ZOEY,true,9492.989999940619,1,24,6,1,4000,1,40,1,0,0,0,7621.76000000909,11:7:40,149954.69999988563,24,92,117217.17500011437,48,56,1760.2699999697506,51111.319999967236,No,No,,
kc00ljq919,undefined,undefined,undefined,undefined,2,36,7,SARAH,SARAH,true,7420.515000121668,2,34,6,1,4000,2,14,1,1,1,5,7169.60999998264,undefined,154016.39000000432,20,50,122084.15000000969,undefined,undefined,198473.48499996588,undefined,undefined,undefined,undefined,
kc00ljq919,undefined,undefined,undefined,undefined,3,24,7,JESSICA,JESSICA,true,12604.435000102967,3,38,6,0,4000,3,11,1,1,0,5,2880.1750000566244,undefined,291646.5399998706,undefined,undefined,undefined,undefined,undefined,2584.3849999364465,undefined,undefined,undefined,undefined,
kc00ljq919,undefined,undefined,undefined,undefined,4,33,7,LAUREN,LAUREN,true,7519.125000108033,4,19,6,0,4000,4,28,1,0,0,5,2622.444999869913,undefined,120888.70000001043,undefined,undefined,undefined,undefined,undefined,1627.1399999968708,undefined,undefined,undefined,undefined,
kc00ljq919,undefined,undefined,undefined,undefined,5,2,7,KEVIN,KEVIN,true,7020.1699999161065,5,20,6,1,4000,5,15,1,0,1,0,3141.5950001683086,undefined,274905.07499990053,undefined,undefined,undefined,undefined,undefined,undefined,undefined,undefined,undefined,undefined,
kc00ljq919,undefined,undefined,undefined,undefined,6,25,7,EVELYN,EVELYN,true,10473.250000039116,6,11,6,1,4000,6,35,1,0,1,4,4555.690000066534,undefined,undefined,undefined,undefined,undefined,undefined,undefined,undefined,undefined,undefined,undefined,undefined,
kc00ljq919,undefined,undefined,undefined,undefined,7,3,7,NICK,NICK,true,5421.719999983907,7,17,6,0,4000,7,25,1,1,1,5,1822.3900001030415,undefined,undefined,undefined,undefined,undefined,undefined,undefined,undefined,undefined,undefined,undefined,undefined,
kc00ljq919,undefined,undefined,undefined,undefined,8,26,7,DENISE,DENISE,true,5511.715000029653,8,5,6,0,4000,8,13,1,0,1,5,2263.8299998361617,undefined,undefined,undefined,undefined,undefined,undefined,undefined,undefined,undefined,undefined,undefined,undefined,
kc00ljq919,undefined,undefined,undefined,undefined,9,22,7,NATALIE,NATALIE,true,7323.205000022426,9,8,6,1,4000,9,18,1,0,1,4,2355.8100000955164,undefined,undefined,undefined,undefined,undefined,undefined,undefined,undefined,undefined,undefined,undefined,undefined,
kc00ljq919,undefined,undefined,undefined,undefined,10,6,7,CHRIS,CHRIS,true,5869.424999924377,10,40,6,0,4000,10,39,1,0,1,0,3119.3649999331683,undefined,undefined,undefined,undefined,undefined,undefined,undefined,undefined,undefined,undefined,undefined,undefined,
kc00ljq919,undefined,undefined,undefined,undefined,11,11,7,CARTER,CARTER,true,5594.294999958947,11,28,6,0,4000,11,33,1,1,0,5,3119.609999936074,undefined,undefined,undefined,undefined,undefined,undefined,undefined,undefined,undefined,undefined,undefined,undefined,
kc00ljq919,undefined,undefined,undefined,undefined,12,7,7,BRANDON,BRANDON,true,6288.779999827966,12,26,6,1,4000,12,1,1,1,1,5,1960.7299999333918,undefined,undefined,undefined,undefined,undefined,undefined,undefined,undefined,undefined,undefined,undefined,undefined,
kc00ljq919,undefined,undefined,undefined,undefined,13,1,7,GABRIEL,GABRIEL,true,8207.57000008598,13,33,6,1,4000,13,17,1,0,0,0,3411.809999961406,undefined,undefined,undefined,undefined,undefined,undefined,undefined,undefined,undefined,undefined,undefined,undefined,
kc00ljq919,undefined,undefined,undefined,undefined,14,23,7,DIANA,DIANA,true,5605.444999877363,14,9,6,0,4000,14,22,1,1,1,5,2276.7800001893193,undefined,undefined,undefined,undefined,undefined,undefined,undefined,undefined,undefined,undefined,undefined,undefined,
kc00ljq919,undefined,undefined,undefined,undefined,15,14,7,ALLEN,ALLEN,true,5656.650000018999,15,27,6,0,4000,15,36,1,1,0,5,3892.7099998109043,undefined,undefined,undefined,undefined,undefined,undefined,undefined,undefined,undefined,undefined,undefined,undefined,
kc00ljq919,undefined,undefined,undefined,undefined,16,30,7,JUDY,JUDY,true,7212.320000166073,16,7,6,1,4000,16,5,1,0,0,0,2384.624999947846,undefined,undefined,undefined,undefined,undefined,undefined,undefined,undefined,undefined,undefined,undefined,undefined,
kc00ljq919,undefined,undefined,undefined,undefined,17,4,7,ANDREW,ANDREW,true,5925.414999946952,17,36,6,1,4000,17,32,1,0,0,4,4480.6300001218915,undefined,undefined,undefined,undefined,undefined,undefined,undefined,undefined,undefined,undefined,undefined,undefined,
kc00ljq919,undefined,undefined,undefined,undefined,18,8,7,WAYNE,WAYNE,true,5421.679999912158,18,10,6,0,4000,18,34,1,1,0,5,2845.614999998361,undefined,undefined,undefined,undefined,undefined,undefined,undefined,undefined,undefined,undefined,undefined,undefined,
kc00ljq919,undefined,undefined,undefined,undefined,19,20,7,JACOB,JACOB,true,5664.720000000671,19,32,6,0,4000,19,24,1,1,0,3,2441.404999932274,undefined,undefined,undefined,undefined,undefined,undefined,undefined,undefined,undefined,undefined,undefined,undefined,
kc00ljq919,undefined,undefined,undefined,undefined,20,34,7,CHLOE,CHLOE,true,5826.555000152439,20,2,6,1,4000,20,23,1,1,1,5,2846.075000008568,undefined,undefined,undefined,undefined,undefined,undefined,undefined,undefined,undefined,undefined,undefined,undefined,
kc00ljq919,undefined,undefined,undefined,undefined,21,37,2,ZOEY,CHLOE,false,15394.9249999132,undefined,undefined,undefined,undefined,undefined,21,4,1,1,1,5,1274.330000160262,undefined,undefined,undefined,undefined,undefined,undefined,undefined,undefined,undefined,undefined,undefined,undefined,
kc00ljq919,undefined,undefined,undefined,undefined,22,36,2,SARAH,NATALIE,false,10624.57500002347,undefined,undefined,undefined,undefined,undefined,22,12,1,0,1,1,2654.2650000192225,undefined,undefined,undefined,undefined,undefined,undefined,undefined,undefined,undefined,undefined,undefined,undefined,
kc00ljq919,undefined,undefined,undefined,undefined,23,24,2,JESSICA,KATE,false,10203.509999904782,undefined,undefined,undefined,undefined,undefined,23,6,1,1,1,5,2182.3549999389797,undefined,undefined,undefined,undefined,undefined,undefined,undefined,undefined,undefined,undefined,undefined,undefined,
kc00ljq919,undefined,undefined,undefined,undefined,24,33,2,LAUREN,ZOEY,false,14386.915000155568,undefined,undefined,undefined,undefined,undefined,24,29,1,0,1,0,2947.34499999322,undefined,undefined,undefined,undefined,undefined,undefined,undefined,undefined,undefined,undefined,undefined,undefined,
kc00ljq919,undefined,undefined,undefined,undefined,25,2,2,KEVIN,NICK,false,9833.464999916032,undefined,undefined,undefined,undefined,undefined,25,16,1,0,1,0,1916.6550000663847,undefined,undefined,undefined,undefined,undefined,undefined,undefined,undefined,undefined,undefined,undefined,undefined,
kc00ljq919,undefined,undefined,undefined,undefined,26,25,2,EVELYN,KATE,false,12971.07999981381,undefined,undefined,undefined,undefined,undefined,26,30,1,1,1,5,2046.7000000644475,undefined,undefined,undefined,undefined,undefined,undefined,undefined,undefined,undefined,undefined,undefined,undefined,
kc00ljq919,undefined,undefined,undefined,undefined,27,3,2,NICK,NICK,true,10106.099999975413,undefined,undefined,undefined,undefined,undefined,27,7,1,1,0,5,1205.4199997801334,undefined,undefined,undefined,undefined,undefined,undefined,undefined,undefined,undefined,undefined,undefined,undefined,
kc00ljq919,undefined,undefined,undefined,undefined,28,26,2,DENISE,KATE,false,22002.864999929443,undefined,undefined,undefined,undefined,undefined,28,10,1,0,0,1,4779.169999994338,undefined,undefined,undefined,undefined,undefined,undefined,undefined,undefined,undefined,undefined,undefined,undefined,
kc00ljq919,undefined,undefined,undefined,undefined,29,22,2,NATALIE,SARAH,false,15040.985000086948,undefined,undefined,undefined,undefined,undefined,29,20,1,1,0,5,5617.344999918714,undefined,undefined,undefined,undefined,undefined,undefined,undefined,undefined,undefined,undefined,undefined,undefined,
kc00ljq919,undefined,undefined,undefined,undefined,30,6,2,CHRIS,NICK,false,18572.525000199676,undefined,undefined,undefined,undefined,undefined,30,27,1,0,0,0,2670.539999846369,undefined,undefined,undefined,undefined,undefined,undefined,undefined,undefined,undefined,undefined,undefined,undefined,
kc00ljq919,undefined,undefined,undefined,undefined,31,11,2,CARTER,LANCE,false,8979.264999972656,undefined,undefined,undefined,undefined,undefined,31,31,1,0,1,0,2993.0149998981506,undefined,undefined,undefined,undefined,undefined,undefined,undefined,undefined,undefined,undefined,undefined,undefined,
kc00ljq919,undefined,undefined,undefined,undefined,32,7,2,BRANDON,BRANDON,true,8798.745000036433,undefined,undefined,undefined,undefined,undefined,32,19,1,0,0,4,2812.849999871105,undefined,undefined,undefined,undefined,undefined,undefined,undefined,undefined,undefined,undefined,undefined,undefined,
kc00ljq919,undefined,undefined,undefined,undefined,33,1,2,GABRIEL,NICK,false,7726.704999804497,undefined,undefined,undefined,undefined,undefined,33,37,1,1,1,5,4432.254999876022,undefined,undefined,undefined,undefined,undefined,undefined,undefined,undefined,undefined,undefined,undefined,undefined,
kc00ljq919,undefined,undefined,undefined,undefined,34,23,2,DIANA,JUDY,false,7771.175000118092,undefined,undefined,undefined,undefined,undefined,34,8,1,1,0,5,2332.3649999219924,undefined,undefined,undefined,undefined,undefined,undefined,undefined,undefined,undefined,undefined,undefined,undefined,
kc00ljq919,undefined,undefined,undefined,undefined,35,14,2,ALLEN,GABRIEL,false,12024.024999933317,undefined,undefined,undefined,undefined,undefined,35,26,1,1,0,5,989.0949998516589,undefined,undefined,undefined,undefined,undefined,undefined,undefined,undefined,undefined,undefined,undefined,undefined,
kc00ljq919,undefined,undefined,undefined,undefined,36,30,2,JUDY,JUDY,true,7232.090000063181,undefined,undefined,undefined,undefined,undefined,36,21,1,0,1,1,2947.2850000020117,undefined,undefined,undefined,undefined,undefined,undefined,undefined,undefined,undefined,undefined,undefined,undefined,
kc00ljq919,undefined,undefined,undefined,undefined,37,4,2,ANDREW,PETER,false,10977.990000043064,undefined,undefined,undefined,undefined,undefined,37,9,1,0,0,4,3263.089999789372,undefined,undefined,undefined,undefined,undefined,undefined,undefined,undefined,undefined,undefined,undefined,undefined,
kc00ljq919,undefined,undefined,undefined,undefined,38,8,2,WAYNE,WAYNE,true,7368.520000018179,undefined,undefined,undefined,undefined,undefined,38,3,1,1,1,5,1529.0899998508394,undefined,undefined,undefined,undefined,undefined,undefined,undefined,undefined,undefined,undefined,undefined,undefined,
kc00ljq919,undefined,undefined,undefined,undefined,39,20,2,JACOB,GABRIEL,false,10696.424999972805,undefined,undefined,undefined,undefined,undefined,39,2,1,1,0,5,1790.7650000415742,undefined,undefined,undefined,undefined,undefined,undefined,undefined,undefined,undefined,undefined,undefined,undefined,
kc00ljq919,undefined,undefined,undefined,undefined,40,34,2,CHLOE,MARY,false,6703.914999961853,undefined,undefined,undefined,undefined,undefined,40,38,1,0,0,1,2542.5349997822195,undefined,undefined,undefined,undefined,undefined,undefined,undefined,undefined,undefined,undefined,undefined,undefined,
kc00ljq919,undefined,undefined,undefined,undefined,41,25,5,EVELYN,EVELYN,true,9117.859999882057,undefined,undefined,undefined,undefined,undefined,undefined,undefined,undefined,undefined,undefined,undefined,undefined,undefined,undefined,undefined,undefined,undefined,undefined,undefined,undefined,undefined,undefined,undefined,undefined,
kc00ljq919,undefined,undefined,undefined,undefined,42,36,5,SARAH,CAROLINE,false,8963.615000015125,undefined,undefined,undefined,undefined,undefined,undefined,undefined,undefined,undefined,undefined,undefined,undefined,undefined,undefined,undefined,undefined,undefined,undefined,undefined,undefined,undefined,undefined,undefined,undefined,
kc00ljq919,undefined,undefined,undefined,undefined,43,14,5,ALLEN,ALLEN,true,7447.180000133812,undefined,undefined,undefined,undefined,undefined,undefined,undefined,undefined,undefined,undefined,undefined,undefined,undefined,undefined,undefined,undefined,undefined,undefined,undefined,undefined,undefined,undefined,undefined,undefined,
kc00ljq919,undefined,undefined,undefined,undefined,44,22,5,NATALIE,NATALIE,true,8687.909999862313,undefined,undefined,undefined,undefined,undefined,undefined,undefined,undefined,undefined,undefined,undefined,undefined,undefined,undefined,undefined,undefined,undefined,undefined,undefined,undefined,undefined,undefined,undefined,undefined,
kc00ljq919,undefined,undefined,undefined,undefined,45,30,5,JUDY,JUDY,true,10563.450000016019,undefined,undefined,undefined,undefined,undefined,undefined,undefined,undefined,undefined,undefined,undefined,undefined,undefined,undefined,undefined,undefined,undefined,undefined,undefined,undefined,undefined,undefined,undefined,undefined,
kc00ljq919,undefined,undefined,undefined,undefined,46,7,5,BRANDON,BRANDON,true,9059.68499998562,undefined,undefined,undefined,undefined,undefined,undefined,undefined,undefined,undefined,undefined,undefined,undefined,undefined,undefined,undefined,undefined,undefined,undefined,undefined,undefined,undefined,undefined,undefined,undefined,
kc00ljq919,undefined,undefined,undefined,undefined,47,37,5,ZOEY,LAUREN,false,7226.60499997437,undefined,undefined,undefined,undefined,undefined,undefined,undefined,undefined,undefined,undefined,undefined,undefined,undefined,undefined,undefined,undefined,undefined,undefined,undefined,undefined,undefined,undefined,undefined,undefined,
kc00ljq919,undefined,undefined,undefined,undefined,48,1,5,GABRIEL,GABRIEL,true,10654.055000049993,undefined,undefined,undefined,undefined,undefined,undefined,undefined,undefined,undefined,undefined,undefined,undefined,undefined,undefined,undefined,undefined,undefined,undefined,undefined,undefined,undefined,undefined,undefined,undefined,
kc00ljq919,undefined,undefined,undefined,undefined,49,33,5,LAUREN,LAUREN,true,6786.259999964386,undefined,undefined,undefined,undefined,undefined,undefined,undefined,undefined,undefined,undefined,undefined,undefined,undefined,undefined,undefined,undefined,undefined,undefined,undefined,undefined,undefined,undefined,undefined,undefined,
kc00ljq919,undefined,undefined,undefined,undefined,50,6,5,CHRIS,WAYNE,false,7328.059999970719,undefined,undefined,undefined,undefined,undefined,undefined,undefined,undefined,undefined,undefined,undefined,undefined,undefined,undefined,undefined,undefined,undefined,undefined,undefined,undefined,undefined,undefined,undefined,undefined,
kc00ljq919,undefined,undefined,undefined,undefined,51,3,5,NICK,NICK,true,8136.184999952093,undefined,undefined,undefined,undefined,undefined,undefined,undefined,undefined,undefined,undefined,undefined,undefined,undefined,undefined,undefined,undefined,undefined,undefined,undefined,undefined,undefined,undefined,undefined,undefined,
kc00ljq919,undefined,undefined,undefined,undefined,52,20,5,JACOB,JACOB,true,10977.814999874681,undefined,undefined,undefined,undefined,undefined,undefined,undefined,undefined,undefined,undefined,undefined,undefined,undefined,undefined,undefined,undefined,undefined,undefined,undefined,undefined,undefined,undefined,undefined,undefined,
kc00ljq919,undefined,undefined,undefined,undefined,53,11,5,CARTER,CARTER,true,6830.810000188649,undefined,undefined,undefined,undefined,undefined,undefined,undefined,undefined,undefined,undefined,undefined,undefined,undefined,undefined,undefined,undefined,undefined,undefined,undefined,undefined,undefined,undefined,undefined,undefined,
kc00ljq919,undefined,undefined,undefined,undefined,54,4,5,ANDREW,ANDREW,true,7562.515000114217,undefined,undefined,undefined,undefined,undefined,undefined,undefined,undefined,undefined,undefined,undefined,undefined,undefined,undefined,undefined,undefined,undefined,undefined,undefined,undefined,undefined,undefined,undefined,undefined,
kc00ljq919,undefined,undefined,undefined,undefined,55,24,5,JESSICA,LAUREN,false,6853.130000177771,undefined,undefined,undefined,undefined,undefined,undefined,undefined,undefined,undefined,undefined,undefined,undefined,undefined,undefined,undefined,undefined,undefined,undefined,undefined,undefined,undefined,undefined,undefined,undefined,
kc00ljq919,undefined,undefined,undefined,undefined,56,26,5,DENISE,DOLLY,false,6716.804999858141,undefined,undefined,undefined,undefined,undefined,undefined,undefined,undefined,undefined,undefined,undefined,undefined,undefined,undefined,undefined,undefined,undefined,undefined,undefined,undefined,undefined,undefined,undefined,undefined,
kc00ljq919,undefined,undefined,undefined,undefined,57,23,5,DIANA,NATALIE,false,10182.8000000678,undefined,undefined,undefined,undefined,undefined,undefined,undefined,undefined,undefined,undefined,undefined,undefined,undefined,undefined,undefined,undefined,undefined,undefined,undefined,undefined,undefined,undefined,undefined,undefined,
kc00ljq919,undefined,undefined,undefined,undefined,58,8,5,WAYNE,WAYNE,true,6252.630000002682,undefined,undefined,undefined,undefined,undefined,undefined,undefined,undefined,undefined,undefined,undefined,undefined,undefined,undefined,undefined,undefined,undefined,undefined,undefined,undefined,undefined,undefined,undefined,undefined,
kc00ljq919,undefined,undefined,undefined,undefined,59,34,5,CHLOE,SARAH,false,9743.20499994792,undefined,undefined,undefined,undefined,undefined,undefined,undefined,undefined,undefined,undefined,undefined,undefined,undefined,undefined,undefined,undefined,undefined,undefined,undefined,undefined,undefined,undefined,undefined,undefined,
kc00ljq919,undefined,undefined,undefined,undefined,60,2,5,KEVIN,BRANDON,false,8810.950000071898,undefined,undefined,undefined,undefined,undefined,undefined,undefined,undefined,undefined,undefined,undefined,undefined,undefined,undefined,undefined,undefined,undefined,undefined,undefined,undefined,undefined,undefined,undefined,undefined,
kc00ljq919,undefined,undefined,undefined,undefined,61,1,3,GABRIEL,GABRIEL,true,9869.234999874607,undefined,undefined,undefined,undefined,undefined,undefined,undefined,undefined,undefined,undefined,undefined,undefined,undefined,undefined,undefined,undefined,undefined,undefined,undefined,undefined,undefined,undefined,undefined,undefined,
kc00ljq919,undefined,undefined,undefined,undefined,62,14,3,ALLEN,ALLEN,true,11676.91499995999,undefined,undefined,undefined,undefined,undefined,undefined,undefined,undefined,undefined,undefined,undefined,undefined,undefined,undefined,undefined,undefined,undefined,undefined,undefined,undefined,undefined,undefined,undefined,undefined,
kc00ljq919,undefined,undefined,undefined,undefined,63,36,3,SARAH,LAUREN,false,7535.0550001021475,undefined,undefined,undefined,undefined,undefined,undefined,undefined,undefined,undefined,undefined,undefined,undefined,undefined,undefined,undefined,undefined,undefined,undefined,undefined,undefined,undefined,undefined,undefined,undefined,
kc00ljq919,undefined,undefined,undefined,undefined,64,23,3,DIANA,JUDY,false,6792.385000037029,undefined,undefined,undefined,undefined,undefined,undefined,undefined,undefined,undefined,undefined,undefined,undefined,undefined,undefined,undefined,undefined,undefined,undefined,undefined,undefined,undefined,undefined,undefined,undefined,
kc00ljq919,undefined,undefined,undefined,undefined,65,8,3,WAYNE,KEVIN,false,25794.390000170097,undefined,undefined,undefined,undefined,undefined,undefined,undefined,undefined,undefined,undefined,undefined,undefined,undefined,undefined,undefined,undefined,undefined,undefined,undefined,undefined,undefined,undefined,undefined,undefined,
kc00ljq919,undefined,undefined,undefined,undefined,66,30,3,JUDY,CHLOE,false,9088.514999952167,undefined,undefined,undefined,undefined,undefined,undefined,undefined,undefined,undefined,undefined,undefined,undefined,undefined,undefined,undefined,undefined,undefined,undefined,undefined,undefined,undefined,undefined,undefined,undefined,
kc00ljq919,undefined,undefined,undefined,undefined,67,2,3,KEVIN,BRANDON,false,17009.850000031292,undefined,undefined,undefined,undefined,undefined,undefined,undefined,undefined,undefined,undefined,undefined,undefined,undefined,undefined,undefined,undefined,undefined,undefined,undefined,undefined,undefined,undefined,undefined,undefined,
kc00ljq919,undefined,undefined,undefined,undefined,68,7,3,BRANDON,KEVIN,false,10497.299999929965,undefined,undefined,undefined,undefined,undefined,undefined,undefined,undefined,undefined,undefined,undefined,undefined,undefined,undefined,undefined,undefined,undefined,undefined,undefined,undefined,undefined,undefined,undefined,undefined,
kc00ljq919,undefined,undefined,undefined,undefined,69,34,3,CHLOE,NATALIE,false,8751.404999988154,undefined,undefined,undefined,undefined,undefined,undefined,undefined,undefined,undefined,undefined,undefined,undefined,undefined,undefined,undefined,undefined,undefined,undefined,undefined,undefined,undefined,undefined,undefined,undefined,
kc00ljq919,undefined,undefined,undefined,undefined,70,25,3,EVELYN,EVELYN,true,6929.3850001413375,undefined,undefined,undefined,undefined,undefined,undefined,undefined,undefined,undefined,undefined,undefined,undefined,undefined,undefined,undefined,undefined,undefined,undefined,undefined,undefined,undefined,undefined,undefined,undefined,
kc00ljq919,undefined,undefined,undefined,undefined,71,20,3,JACOB,WAYNE,false,7648.195000132546,undefined,undefined,undefined,undefined,undefined,undefined,undefined,undefined,undefined,undefined,undefined,undefined,undefined,undefined,undefined,undefined,undefined,undefined,undefined,undefined,undefined,undefined,undefined,undefined,
kc00ljq919,undefined,undefined,undefined,undefined,72,24,3,JESSICA,JESSICA,true,14232.374999905005,undefined,undefined,undefined,undefined,undefined,undefined,undefined,undefined,undefined,undefined,undefined,undefined,undefined,undefined,undefined,undefined,undefined,undefined,undefined,undefined,undefined,undefined,undefined,undefined,
kc00ljq919,undefined,undefined,undefined,undefined,73,6,3,CHRIS,JACOB,false,15691.75500003621,undefined,undefined,undefined,undefined,undefined,undefined,undefined,undefined,undefined,undefined,undefined,undefined,undefined,undefined,undefined,undefined,undefined,undefined,undefined,undefined,undefined,undefined,undefined,undefined,
kc00ljq919,undefined,undefined,undefined,undefined,74,11,3,CARTER,CARTER,true,6417.499999981374,undefined,undefined,undefined,undefined,undefined,undefined,undefined,undefined,undefined,undefined,undefined,undefined,undefined,undefined,undefined,undefined,undefined,undefined,undefined,undefined,undefined,undefined,undefined,undefined,
kc00ljq919,undefined,undefined,undefined,undefined,75,33,3,LAUREN,LAUREN,true,8327.540000202134,undefined,undefined,undefined,undefined,undefined,undefined,undefined,undefined,undefined,undefined,undefined,undefined,undefined,undefined,undefined,undefined,undefined,undefined,undefined,undefined,undefined,undefined,undefined,undefined,
kc00ljq919,undefined,undefined,undefined,undefined,76,26,3,DENISE,CHLOE,false,8648.844999959692,undefined,undefined,undefined,undefined,undefined,undefined,undefined,undefined,undefined,undefined,undefined,undefined,undefined,undefined,undefined,undefined,undefined,undefined,undefined,undefined,undefined,undefined,undefined,undefined,
kc00ljq919,undefined,undefined,undefined,undefined,77,37,3,ZOEY,ZOEY,true,8502.505000215024,undefined,undefined,undefined,undefined,undefined,undefined,undefined,undefined,undefined,undefined,undefined,undefined,undefined,undefined,undefined,undefined,undefined,undefined,undefined,undefined,undefined,undefined,undefined,undefined,
kc00ljq919,undefined,undefined,undefined,undefined,78,4,3,ANDREW,CHRIS,false,7593.149999855086,undefined,undefined,undefined,undefined,undefined,undefined,undefined,undefined,undefined,undefined,undefined,undefined,undefined,undefined,undefined,undefined,undefined,undefined,undefined,undefined,undefined,undefined,undefined,undefined,
kc00ljq919,undefined,undefined,undefined,undefined,79,22,3,NATALIE,JUDY,false,13689.185000024736,undefined,undefined,undefined,undefined,undefined,undefined,undefined,undefined,undefined,undefined,undefined,undefined,undefined,undefined,undefined,undefined,undefined,undefined,undefined,undefined,undefined,undefined,undefined,undefined,
kc00ljq919,undefined,undefined,undefined,undefined,80,3,3,NICK,NICK,true,9373.924999963492,undefined,undefined,undefined,undefined,undefined,undefined,undefined,undefined,undefined,undefined,undefined,undefined,undefined,undefined,undefined,undefined,undefined,undefined,undefined,undefined,undefined,undefined,undefined,undefined,
kc00ljq919,undefined,undefined,undefined,undefined,81,20,8,JACOB,JACOB,true,9306.48500006646,undefined,undefined,undefined,undefined,undefined,undefined,undefined,undefined,undefined,undefined,undefined,undefined,undefined,undefined,undefined,undefined,undefined,undefined,undefined,undefined,undefined,undefined,undefined,undefined,
kc00ljq919,undefined,undefined,undefined,undefined,82,25,8,EVELYN,EVELYN,true,9291.889999993145,undefined,undefined,undefined,undefined,undefined,undefined,undefined,undefined,undefined,undefined,undefined,undefined,undefined,undefined,undefined,undefined,undefined,undefined,undefined,undefined,undefined,undefined,undefined,undefined,
kc00ljq919,undefined,undefined,undefined,undefined,83,37,8,ZOEY,JESSICA,false,7929.144999943674,undefined,undefined,undefined,undefined,undefined,undefined,undefined,undefined,undefined,undefined,undefined,undefined,undefined,undefined,undefined,undefined,undefined,undefined,undefined,undefined,undefined,undefined,undefined,undefined,
kc00ljq919,undefined,undefined,undefined,undefined,84,2,8,KEVIN,BRANDON,false,7253.849999979138,undefined,undefined,undefined,undefined,undefined,undefined,undefined,undefined,undefined,undefined,undefined,undefined,undefined,undefined,undefined,undefined,undefined,undefined,undefined,undefined,undefined,undefined,undefined,undefined,
kc00ljq919,undefined,undefined,undefined,undefined,85,30,8,JUDY,JUDY,true,12242.599999997765,undefined,undefined,undefined,undefined,undefined,undefined,undefined,undefined,undefined,undefined,undefined,undefined,undefined,undefined,undefined,undefined,undefined,undefined,undefined,undefined,undefined,undefined,undefined,undefined,
kc00ljq919,undefined,undefined,undefined,undefined,86,33,8,LAUREN,JESSICA,false,8640.025000087917,undefined,undefined,undefined,undefined,undefined,undefined,undefined,undefined,undefined,undefined,undefined,undefined,undefined,undefined,undefined,undefined,undefined,undefined,undefined,undefined,undefined,undefined,undefined,undefined,
kc00ljq919,undefined,undefined,undefined,undefined,87,1,8,GABRIEL,GABRIEL,true,18383.53500002995,undefined,undefined,undefined,undefined,undefined,undefined,undefined,undefined,undefined,undefined,undefined,undefined,undefined,undefined,undefined,undefined,undefined,undefined,undefined,undefined,undefined,undefined,undefined,undefined,
kc00ljq919,undefined,undefined,undefined,undefined,88,23,8,DIANA,NATALIE,false,18832.40499999374,undefined,undefined,undefined,undefined,undefined,undefined,undefined,undefined,undefined,undefined,undefined,undefined,undefined,undefined,undefined,undefined,undefined,undefined,undefined,undefined,undefined,undefined,undefined,undefined,
kc00ljq919,undefined,undefined,undefined,undefined,89,11,8,CARTER,CARTER,true,6421.21999990195,undefined,undefined,undefined,undefined,undefined,undefined,undefined,undefined,undefined,undefined,undefined,undefined,undefined,undefined,undefined,undefined,undefined,undefined,undefined,undefined,undefined,undefined,undefined,undefined,
kc00ljq919,undefined,undefined,undefined,undefined,90,6,8,CHRIS,WAYNE,false,7910.804999992251,undefined,undefined,undefined,undefined,undefined,undefined,undefined,undefined,undefined,undefined,undefined,undefined,undefined,undefined,undefined,undefined,undefined,undefined,undefined,undefined,undefined,undefined,undefined,undefined,
kc00ljq919,undefined,undefined,undefined,undefined,91,7,8,BRANDON,BRANDON,true,8293.165000155568,undefined,undefined,undefined,undefined,undefined,undefined,undefined,undefined,undefined,undefined,undefined,undefined,undefined,undefined,undefined,undefined,undefined,undefined,undefined,undefined,undefined,undefined,undefined,undefined,
kc00ljq919,undefined,undefined,undefined,undefined,92,3,8,NICK,NICK,true,36842.34500001185,undefined,undefined,undefined,undefined,undefined,undefined,undefined,undefined,undefined,undefined,undefined,undefined,undefined,undefined,undefined,undefined,undefined,undefined,undefined,undefined,undefined,undefined,undefined,undefined,
kc00ljq919,undefined,undefined,undefined,undefined,93,8,8,WAYNE,WAYNE,true,9575.884999940172,undefined,undefined,undefined,undefined,undefined,undefined,undefined,undefined,undefined,undefined,undefined,undefined,undefined,undefined,undefined,undefined,undefined,undefined,undefined,undefined,undefined,undefined,undefined,undefined,
kc00ljq919,undefined,undefined,undefined,undefined,94,4,8,ANDREW,ANDREW,true,6504.145000129938,undefined,undefined,undefined,undefined,undefined,undefined,undefined,undefined,undefined,undefined,undefined,undefined,undefined,undefined,undefined,undefined,undefined,undefined,undefined,undefined,undefined,undefined,undefined,undefined,
kc00ljq919,undefined,undefined,undefined,undefined,95,26,8,DENISE,JUDY,false,6657.705000136048,undefined,undefined,undefined,undefined,undefined,undefined,undefined,undefined,undefined,undefined,undefined,undefined,undefined,undefined,undefined,undefined,undefined,undefined,undefined,undefined,undefined,undefined,undefined,undefined,
kc00ljq919,undefined,undefined,undefined,undefined,96,24,8,JESSICA,LAUREN,false,11071.09500002116,undefined,undefined,undefined,undefined,undefined,undefined,undefined,undefined,undefined,undefined,undefined,undefined,undefined,undefined,undefined,undefined,undefined,undefined,undefined,undefined,undefined,undefined,undefined,undefined,
kc00ljq919,undefined,undefined,undefined,undefined,97,36,8,SARAH,LAUREN,false,6648.180000018328,undefined,undefined,undefined,undefined,undefined,undefined,undefined,undefined,undefined,undefined,undefined,undefined,undefined,undefined,undefined,undefined,undefined,undefined,undefined,undefined,undefined,undefined,undefined,undefined,
kc00ljq919,undefined,undefined,undefined,undefined,98,34,8,CHLOE,JUDY,false,5674.570000031963,undefined,undefined,undefined,undefined,undefined,undefined,undefined,undefined,undefined,undefined,undefined,undefined,undefined,undefined,undefined,undefined,undefined,undefined,undefined,undefined,undefined,undefined,undefined,undefined,
kc00ljq919,undefined,undefined,undefined,undefined,99,22,8,NATALIE,NATALIE,true,6131.640000035986,undefined,undefined,undefined,undefined,undefined,undefined,undefined,undefined,undefined,undefined,undefined,undefined,undefined,undefined,undefined,undefined,undefined,undefined,undefined,undefined,undefined,undefined,undefined,undefined,
kc00ljq919,undefined,undefined,undefined,undefined,100,14,8,ALLEN,CHRIS,false,10452.965000178665,undefined,undefined,undefined,undefined,undefined,undefined,undefined,undefined,undefined,undefined,undefined,undefined,undefined,undefined,undefined,undefined,undefined,undefined,undefined,undefined,undefined,undefined,undefined,undefined,
kc00ljq919,undefined,undefined,undefined,undefined,101,8,6,WAYNE,WAYNE,true,6511.854999931529,undefined,undefined,undefined,undefined,undefined,undefined,undefined,undefined,undefined,undefined,undefined,undefined,undefined,undefined,undefined,undefined,undefined,undefined,undefined,undefined,undefined,undefined,undefined,undefined,
kc00ljq919,undefined,undefined,undefined,undefined,102,37,6,ZOEY,ZOEY,true,7955.124999862164,undefined,undefined,undefined,undefined,undefined,undefined,undefined,undefined,undefined,undefined,undefined,undefined,undefined,undefined,undefined,undefined,undefined,undefined,undefined,undefined,undefined,undefined,undefined,undefined,
kc00ljq919,undefined,undefined,undefined,undefined,103,23,6,DIANA,EVELYN,false,11373.35000000894,undefined,undefined,undefined,undefined,undefined,undefined,undefined,undefined,undefined,undefined,undefined,undefined,undefined,undefined,undefined,undefined,undefined,undefined,undefined,undefined,undefined,undefined,undefined,undefined,
kc00ljq919,undefined,undefined,undefined,undefined,104,2,6,KEVIN,BRANDON,false,6934.354999801144,undefined,undefined,undefined,undefined,undefined,undefined,undefined,undefined,undefined,undefined,undefined,undefined,undefined,undefined,undefined,undefined,undefined,undefined,undefined,undefined,undefined,undefined,undefined,undefined,
kc00ljq919,undefined,undefined,undefined,undefined,105,33,6,LAUREN,JESSICA,false,15417.164999991655,undefined,undefined,undefined,undefined,undefined,undefined,undefined,undefined,undefined,undefined,undefined,undefined,undefined,undefined,undefined,undefined,undefined,undefined,undefined,undefined,undefined,undefined,undefined,undefined,
kc00ljq919,undefined,undefined,undefined,undefined,106,30,6,JUDY,JUDY,true,6632.30499997735,undefined,undefined,undefined,undefined,undefined,undefined,undefined,undefined,undefined,undefined,undefined,undefined,undefined,undefined,undefined,undefined,undefined,undefined,undefined,undefined,undefined,undefined,undefined,undefined,
kc00ljq919,undefined,undefined,undefined,undefined,107,11,6,CARTER,CARTER,true,6255.660000024363,undefined,undefined,undefined,undefined,undefined,undefined,undefined,undefined,undefined,undefined,undefined,undefined,undefined,undefined,undefined,undefined,undefined,undefined,undefined,undefined,undefined,undefined,undefined,undefined,
kc00ljq919,undefined,undefined,undefined,undefined,108,3,6,NICK,NICK,true,5716.345000080764,undefined,undefined,undefined,undefined,undefined,undefined,undefined,undefined,undefined,undefined,undefined,undefined,undefined,undefined,undefined,undefined,undefined,undefined,undefined,undefined,undefined,undefined,undefined,undefined,
kc00ljq919,undefined,undefined,undefined,undefined,109,24,6,JESSICA,DENISE,false,7804.89999987185,undefined,undefined,undefined,undefined,undefined,undefined,undefined,undefined,undefined,undefined,undefined,undefined,undefined,undefined,undefined,undefined,undefined,undefined,undefined,undefined,undefined,undefined,undefined,undefined,
kc00ljq919,undefined,undefined,undefined,undefined,110,4,6,ANDREW,ANDREW,true,6434.574999846518,undefined,undefined,undefined,undefined,undefined,undefined,undefined,undefined,undefined,undefined,undefined,undefined,undefined,undefined,undefined,undefined,undefined,undefined,undefined,undefined,undefined,undefined,undefined,undefined,
kc00ljq919,undefined,undefined,undefined,undefined,111,25,6,EVELYN,EVELYN,true,8407.1600001771,undefined,undefined,undefined,undefined,undefined,undefined,undefined,undefined,undefined,undefined,undefined,undefined,undefined,undefined,undefined,undefined,undefined,undefined,undefined,undefined,undefined,undefined,undefined,undefined,
kc00ljq919,undefined,undefined,undefined,undefined,112,22,6,NATALIE,NATALIE,true,6438.310000114143,undefined,undefined,undefined,undefined,undefined,undefined,undefined,undefined,undefined,undefined,undefined,undefined,undefined,undefined,undefined,undefined,undefined,undefined,undefined,undefined,undefined,undefined,undefined,undefined,
kc00ljq919,undefined,undefined,undefined,undefined,113,36,6,SARAH,JESSICA,false,8414.65499997139,undefined,undefined,undefined,undefined,undefined,undefined,undefined,undefined,undefined,undefined,undefined,undefined,undefined,undefined,undefined,undefined,undefined,undefined,undefined,undefined,undefined,undefined,undefined,undefined,
kc00ljq919,undefined,undefined,undefined,undefined,114,20,6,JACOB,JACOB,true,7190.384999848902,undefined,undefined,undefined,undefined,undefined,undefined,undefined,undefined,undefined,undefined,undefined,undefined,undefined,undefined,undefined,undefined,undefined,undefined,undefined,undefined,undefined,undefined,undefined,undefined,
kc00ljq919,undefined,undefined,undefined,undefined,115,14,6,ALLEN,ALLEN,true,6061.364999972284,undefined,undefined,undefined,undefined,undefined,undefined,undefined,undefined,undefined,undefined,undefined,undefined,undefined,undefined,undefined,undefined,undefined,undefined,undefined,undefined,undefined,undefined,undefined,undefined,
kc00ljq919,undefined,undefined,undefined,undefined,116,7,6,BRANDON,BRANDON,true,7502.885000081733,undefined,undefined,undefined,undefined,undefined,undefined,undefined,undefined,undefined,undefined,undefined,undefined,undefined,undefined,undefined,undefined,undefined,undefined,undefined,undefined,undefined,undefined,undefined,undefined,
kc00ljq919,undefined,undefined,undefined,undefined,117,1,6,GABRIEL,WAYNE,false,13285.424999892712,undefined,undefined,undefined,undefined,undefined,undefined,undefined,undefined,undefined,undefined,undefined,undefined,undefined,undefined,undefined,undefined,undefined,undefined,undefined,undefined,undefined,undefined,undefined,undefined,
kc00ljq919,undefined,undefined,undefined,undefined,118,26,6,DENISE,CHLOE,false,7435.899999924004,undefined,undefined,undefined,undefined,undefined,undefined,undefined,undefined,undefined,undefined,undefined,undefined,undefined,undefined,undefined,undefined,undefined,undefined,undefined,undefined,undefined,undefined,undefined,undefined,
kc00ljq919,undefined,undefined,undefined,undefined,119,34,6,CHLOE,JUDY,false,11307.120000012219,undefined,undefined,undefined,undefined,undefined,undefined,undefined,undefined,undefined,undefined,undefined,undefined,undefined,undefined,undefined,undefined,undefined,undefined,undefined,undefined,undefined,undefined,undefined,undefined,
kc00ljq919,undefined,undefined,undefined,undefined,120,6,6,CHRIS,JACOB,false,21239.969999995083,undefined,undefined,undefined,undefined,undefined,undefined,undefined,undefined,undefined,undefined,undefined,undefined,undefined,undefined,undefined,undefined,undefined,undefined,undefined,undefined,undefined,undefined,undefined,undefined,
