SubNum,SubNum_demo,Exp_start_time,Exp_today_date,Exp_today_time,TrialNum,FaceID,FaceImg,Name,Response,NameAcc,RespTime,StudyTrialNum,StudyFaceID,StudyFaceImg,StudyFamCond,StudyTime,TestTrialNum,TestFaceID,TestFaceImg,TestFamCond,TestStatusCond,TestResponse,TestResponseTime,Exp_end_time,Distractor_1_duration,Distractor_1_numT,Distractor_1_acc,Distractor_2_duration,Distractor_2_numT,Distractor_2_acc,StudyButtonRespTime,StudyButtonRespTime_mean,q1,q2,q3,
55ojdwa246,anlbtknqum,Mon Jan 04 2021 16:42:04 GMT-0600 (Central Standard Time),2021-1-4,16:42:4,1,28,4,EVELYN,EVELYN,true,5125.500000001921,1,6,5,0,4000,1,32,2,1,0,0,4231.675000002608,17:14:49,146896.14000000455,26,100,119417.86500000302,43,72,2372.044999996433,2579.0787500009756,Yes,No just recognized faces,None,
55ojdwa246,undefined,undefined,undefined,undefined,2,35,4,JUDY,JUDY,true,5127.5299999979325,2,25,5,0,4000,2,31,2,1,1,0,1251.8350000027567,undefined,152132.1099999987,16,75,123427.39499999862,undefined,undefined,3980.610000006156,undefined,undefined,undefined,undefined,
55ojdwa246,undefined,undefined,undefined,undefined,3,32,4,LORY,LORY,true,2962.8349999984493,3,40,5,1,4000,3,36,2,0,0,0,2904.7299999946263,undefined,296422.3800000036,undefined,undefined,undefined,undefined,undefined,1773.5800000010058,undefined,undefined,undefined,undefined,
55ojdwa246,undefined,undefined,undefined,undefined,4,22,4,GRACE,GRACE,true,3382.239999999001,4,32,5,1,4000,4,20,2,1,1,0,2852.1849999960978,undefined,120408.36000000127,undefined,undefined,undefined,undefined,undefined,2190.0800000003073,undefined,undefined,undefined,undefined,
55ojdwa246,undefined,undefined,undefined,undefined,5,27,4,ZOEY,ZOEY,true,4826.860000001034,5,30,5,0,4000,5,18,2,1,1,0,1833.7949999987613,undefined,272540.4300000011,undefined,undefined,undefined,undefined,undefined,undefined,undefined,undefined,undefined,undefined,
55ojdwa246,undefined,undefined,undefined,undefined,6,26,4,AMBER,AMBER,true,5578.320000000531,6,8,5,0,4000,6,6,2,0,0,0,4086.100000000559,undefined,undefined,undefined,undefined,undefined,undefined,undefined,undefined,undefined,undefined,undefined,undefined,
55ojdwa246,undefined,undefined,undefined,undefined,7,19,4,CHRIS,CHRIS,true,3534.4049999985145,7,19,5,1,4000,7,12,2,0,0,1,4792.770000000019,undefined,undefined,undefined,undefined,undefined,undefined,undefined,undefined,undefined,undefined,undefined,undefined,
55ojdwa246,undefined,undefined,undefined,undefined,8,10,4,KYLE,KYLE,true,3140.3900000004796,8,14,5,1,4000,8,22,2,1,1,0,1888.980000003241,undefined,undefined,undefined,undefined,undefined,undefined,undefined,undefined,undefined,undefined,undefined,undefined,
55ojdwa246,undefined,undefined,undefined,undefined,9,31,4,NATALIE,NATALIE,true,3507.610000000568,9,12,5,0,4000,9,37,2,0,1,1,4068.874999997206,undefined,undefined,undefined,undefined,undefined,undefined,undefined,undefined,undefined,undefined,undefined,undefined,
55ojdwa246,undefined,undefined,undefined,undefined,10,34,4,JESSICA,JESSICA,true,3129.194999997737,10,24,5,0,4000,10,8,2,0,0,1,2266.5349999952596,undefined,undefined,undefined,undefined,undefined,undefined,undefined,undefined,undefined,undefined,undefined,undefined,
55ojdwa246,undefined,undefined,undefined,undefined,11,2,4,RYAN,RYAN,true,2797.920000000857,11,28,5,1,4000,11,26,2,1,0,1,1949.3199999995995,undefined,undefined,undefined,undefined,undefined,undefined,undefined,undefined,undefined,undefined,undefined,undefined,
55ojdwa246,undefined,undefined,undefined,undefined,12,11,4,NICK,NICK,true,2858.7349999979488,12,34,5,1,4000,12,39,2,0,1,4,5341.2150000005495,undefined,undefined,undefined,undefined,undefined,undefined,undefined,undefined,undefined,undefined,undefined,undefined,
55ojdwa246,undefined,undefined,undefined,undefined,13,1,4,KEVIN,KEVIN,true,3019.610000003013,13,21,5,0,4000,13,10,2,1,0,0,2059.454999995185,undefined,undefined,undefined,undefined,undefined,undefined,undefined,undefined,undefined,undefined,undefined,undefined,
55ojdwa246,undefined,undefined,undefined,undefined,14,40,4,DIANA,DIANA,true,3881.7500000004657,14,15,5,0,4000,14,27,2,1,1,1,2834.579999995185,undefined,undefined,undefined,undefined,undefined,undefined,undefined,undefined,undefined,undefined,undefined,undefined,
55ojdwa246,undefined,undefined,undefined,undefined,15,29,4,EMILY,EMILY,true,5980.379999997269,15,26,5,1,4000,15,23,2,0,1,1,3121.789999997476,undefined,undefined,undefined,undefined,undefined,undefined,undefined,undefined,undefined,undefined,undefined,undefined,
55ojdwa246,undefined,undefined,undefined,undefined,16,14,4,LARRY,LARRY,true,2712.8999999986263,16,10,5,1,4000,16,17,2,0,1,1,2612.1649999986403,undefined,undefined,undefined,undefined,undefined,undefined,undefined,undefined,undefined,undefined,undefined,undefined,
55ojdwa246,undefined,undefined,undefined,undefined,17,20,4,OLIVER,OLIVER,true,2860.870000000403,17,4,5,0,4000,17,33,2,0,1,1,1513.5099999972153,undefined,undefined,undefined,undefined,undefined,undefined,undefined,undefined,undefined,undefined,undefined,undefined,
55ojdwa246,undefined,undefined,undefined,undefined,18,18,4,TYLER,TYLER,true,4226.940000000526,18,36,5,0,4000,18,19,2,1,0,1,2628.8299999942537,undefined,undefined,undefined,undefined,undefined,undefined,undefined,undefined,undefined,undefined,undefined,undefined,
55ojdwa246,undefined,undefined,undefined,undefined,19,7,4,WAYNE,WAYNE,true,3705.614999998943,19,16,5,1,4000,19,30,2,0,0,1,2741.0950000048615,undefined,undefined,undefined,undefined,undefined,undefined,undefined,undefined,undefined,undefined,undefined,undefined,
55ojdwa246,undefined,undefined,undefined,undefined,20,16,4,JACOB,JACOB,true,3511.0100000019884,20,7,5,1,4000,20,16,2,1,0,1,15692.579999995185,undefined,undefined,undefined,undefined,undefined,undefined,undefined,undefined,undefined,undefined,undefined,undefined,
55ojdwa246,undefined,undefined,undefined,undefined,21,28,8,EVELYN,LORRY,false,11792.735000002722,undefined,undefined,undefined,undefined,undefined,21,29,2,1,1,0,1883.7750000020023,undefined,undefined,undefined,undefined,undefined,undefined,undefined,undefined,undefined,undefined,undefined,undefined,
55ojdwa246,undefined,undefined,undefined,undefined,22,35,8,JUDY,RACHEL,false,9969.069999999192,undefined,undefined,undefined,undefined,undefined,22,7,2,1,0,0,1609.7700000028126,undefined,undefined,undefined,undefined,undefined,undefined,undefined,undefined,undefined,undefined,undefined,undefined,
55ojdwa246,undefined,undefined,undefined,undefined,23,32,8,LORY,LORRY,false,8139.360000001034,undefined,undefined,undefined,undefined,undefined,23,34,2,1,0,1,3519.2050000040326,undefined,undefined,undefined,undefined,undefined,undefined,undefined,undefined,undefined,undefined,undefined,undefined,
55ojdwa246,undefined,undefined,undefined,undefined,24,22,8,GRACE,JUDY,false,8282.555000001623,undefined,undefined,undefined,undefined,undefined,24,24,2,0,0,4,2448.590000000084,undefined,undefined,undefined,undefined,undefined,undefined,undefined,undefined,undefined,undefined,undefined,undefined,
55ojdwa246,undefined,undefined,undefined,undefined,25,27,8,ZOEY,KAREN,false,6250.5550000023795,undefined,undefined,undefined,undefined,undefined,25,40,2,1,0,5,2454.085000004852,undefined,undefined,undefined,undefined,undefined,undefined,undefined,undefined,undefined,undefined,undefined,undefined,
55ojdwa246,undefined,undefined,undefined,undefined,26,26,8,AMBER,KAREN,false,7791.344999997818,undefined,undefined,undefined,undefined,undefined,26,35,2,1,1,1,4540.0749999971595,undefined,undefined,undefined,undefined,undefined,undefined,undefined,undefined,undefined,undefined,undefined,undefined,
55ojdwa246,undefined,undefined,undefined,undefined,27,19,8,CHRIS,CHRIS,true,8323.994999998831,undefined,undefined,undefined,undefined,undefined,27,13,2,0,1,1,1895.199999999022,undefined,undefined,undefined,undefined,undefined,undefined,undefined,undefined,undefined,undefined,undefined,undefined,
55ojdwa246,undefined,undefined,undefined,undefined,28,10,8,KYLE,EVAN,false,5260.2999999980675,undefined,undefined,undefined,undefined,undefined,28,3,2,0,1,2,2343.345000001136,undefined,undefined,undefined,undefined,undefined,undefined,undefined,undefined,undefined,undefined,undefined,undefined,
55ojdwa246,undefined,undefined,undefined,undefined,29,31,8,NATALIE,TERRY,false,12900.85000000184,undefined,undefined,undefined,undefined,undefined,29,38,2,0,1,2,3138.0200000056066,undefined,undefined,undefined,undefined,undefined,undefined,undefined,undefined,undefined,undefined,undefined,undefined,
55ojdwa246,undefined,undefined,undefined,undefined,30,34,8,JESSICA,JESSICA,true,8985.310000000056,undefined,undefined,undefined,undefined,undefined,30,28,2,1,0,2,1815.1949999956414,undefined,undefined,undefined,undefined,undefined,undefined,undefined,undefined,undefined,undefined,undefined,undefined,
55ojdwa246,undefined,undefined,undefined,undefined,31,2,8,RYAN,EVAN,false,5712.789999997767,undefined,undefined,undefined,undefined,undefined,31,21,2,0,0,2,1503.8199999982025,undefined,undefined,undefined,undefined,undefined,undefined,undefined,undefined,undefined,undefined,undefined,undefined,
55ojdwa246,undefined,undefined,undefined,undefined,32,11,8,NICK,EVAN,false,5253.414999999222,undefined,undefined,undefined,undefined,undefined,32,5,2,0,1,2,1984.6850000030827,undefined,undefined,undefined,undefined,undefined,undefined,undefined,undefined,undefined,undefined,undefined,undefined,
55ojdwa246,undefined,undefined,undefined,undefined,33,1,8,KEVIN,EVAN,false,18195.3050000011,undefined,undefined,undefined,undefined,undefined,33,1,2,1,1,2,1200.6850000035483,undefined,undefined,undefined,undefined,undefined,undefined,undefined,undefined,undefined,undefined,undefined,undefined,
55ojdwa246,undefined,undefined,undefined,undefined,34,40,8,DIANA,NATALIE,false,5677.855000001728,undefined,undefined,undefined,undefined,undefined,34,14,2,1,0,2,1980.7900000014342,undefined,undefined,undefined,undefined,undefined,undefined,undefined,undefined,undefined,undefined,undefined,undefined,
55ojdwa246,undefined,undefined,undefined,undefined,35,29,8,EMILY,NATALIE,false,9564.529999999679,undefined,undefined,undefined,undefined,undefined,35,2,2,1,1,2,2301.370000001043,undefined,undefined,undefined,undefined,undefined,undefined,undefined,undefined,undefined,undefined,undefined,undefined,
55ojdwa246,undefined,undefined,undefined,undefined,36,14,8,LARRY,EVAN,false,4433.50500000082,undefined,undefined,undefined,undefined,undefined,36,25,2,0,0,4,1967.8550000025425,undefined,undefined,undefined,undefined,undefined,undefined,undefined,undefined,undefined,undefined,undefined,undefined,
55ojdwa246,undefined,undefined,undefined,undefined,37,20,8,OLIVER,EVAN,false,6081.640000000247,undefined,undefined,undefined,undefined,undefined,37,11,2,1,1,2,1769.5899999961257,undefined,undefined,undefined,undefined,undefined,undefined,undefined,undefined,undefined,undefined,undefined,undefined,
55ojdwa246,undefined,undefined,undefined,undefined,38,18,8,TYLER,EVAN,false,4601.904999999446,undefined,undefined,undefined,undefined,undefined,38,15,2,0,0,2,2862.460000003921,undefined,undefined,undefined,undefined,undefined,undefined,undefined,undefined,undefined,undefined,undefined,undefined,
55ojdwa246,undefined,undefined,undefined,undefined,39,7,8,WAYNE,EVAN,false,5054.599999999511,undefined,undefined,undefined,undefined,undefined,39,9,2,0,1,1,2078.280000001425,undefined,undefined,undefined,undefined,undefined,undefined,undefined,undefined,undefined,undefined,undefined,undefined,
55ojdwa246,undefined,undefined,undefined,undefined,40,16,8,JACOB,KYLE,false,6170.515000001644,undefined,undefined,undefined,undefined,undefined,40,4,2,0,0,2,4743.849999998929,undefined,undefined,undefined,undefined,undefined,undefined,undefined,undefined,undefined,undefined,undefined,undefined,
55ojdwa246,undefined,undefined,undefined,undefined,41,35,7,JUDY,LORY,false,17895.66000000201,undefined,undefined,undefined,undefined,undefined,undefined,undefined,undefined,undefined,undefined,undefined,undefined,undefined,undefined,undefined,undefined,undefined,undefined,undefined,undefined,undefined,undefined,undefined,undefined,
55ojdwa246,undefined,undefined,undefined,undefined,42,40,7,DIANA,DIANA,true,3139.6050000003306,undefined,undefined,undefined,undefined,undefined,undefined,undefined,undefined,undefined,undefined,undefined,undefined,undefined,undefined,undefined,undefined,undefined,undefined,undefined,undefined,undefined,undefined,undefined,undefined,
55ojdwa246,undefined,undefined,undefined,undefined,43,34,7,JESSICA,LORY,false,13410.280000000144,undefined,undefined,undefined,undefined,undefined,undefined,undefined,undefined,undefined,undefined,undefined,undefined,undefined,undefined,undefined,undefined,undefined,undefined,undefined,undefined,undefined,undefined,undefined,undefined,
55ojdwa246,undefined,undefined,undefined,undefined,44,18,7,TYLER,KYLE,false,6864.880000000936,undefined,undefined,undefined,undefined,undefined,undefined,undefined,undefined,undefined,undefined,undefined,undefined,undefined,undefined,undefined,undefined,undefined,undefined,undefined,undefined,undefined,undefined,undefined,undefined,
55ojdwa246,undefined,undefined,undefined,undefined,45,28,7,EVELYN,EVELYN,true,29222.309999997262,undefined,undefined,undefined,undefined,undefined,undefined,undefined,undefined,undefined,undefined,undefined,undefined,undefined,undefined,undefined,undefined,undefined,undefined,undefined,undefined,undefined,undefined,undefined,undefined,
55ojdwa246,undefined,undefined,undefined,undefined,46,27,7,ZOEY,HOLLY,false,15928.335000000545,undefined,undefined,undefined,undefined,undefined,undefined,undefined,undefined,undefined,undefined,undefined,undefined,undefined,undefined,undefined,undefined,undefined,undefined,undefined,undefined,undefined,undefined,undefined,undefined,
55ojdwa246,undefined,undefined,undefined,undefined,47,29,7,EMILY,JESSICA,false,4450.085000000428,undefined,undefined,undefined,undefined,undefined,undefined,undefined,undefined,undefined,undefined,undefined,undefined,undefined,undefined,undefined,undefined,undefined,undefined,undefined,undefined,undefined,undefined,undefined,undefined,
55ojdwa246,undefined,undefined,undefined,undefined,48,20,7,OLIVER,EVAN,false,11231.169999995502,undefined,undefined,undefined,undefined,undefined,undefined,undefined,undefined,undefined,undefined,undefined,undefined,undefined,undefined,undefined,undefined,undefined,undefined,undefined,undefined,undefined,undefined,undefined,undefined,
55ojdwa246,undefined,undefined,undefined,undefined,49,26,7,AMBER,AMBER,true,3898.699999997858,undefined,undefined,undefined,undefined,undefined,undefined,undefined,undefined,undefined,undefined,undefined,undefined,undefined,undefined,undefined,undefined,undefined,undefined,undefined,undefined,undefined,undefined,undefined,undefined,
55ojdwa246,undefined,undefined,undefined,undefined,50,7,7,WAYNE,EVAN,false,9228.564999997616,undefined,undefined,undefined,undefined,undefined,undefined,undefined,undefined,undefined,undefined,undefined,undefined,undefined,undefined,undefined,undefined,undefined,undefined,undefined,undefined,undefined,undefined,undefined,undefined,
55ojdwa246,undefined,undefined,undefined,undefined,51,19,7,CHRIS,CHRIS,true,4590.324999997392,undefined,undefined,undefined,undefined,undefined,undefined,undefined,undefined,undefined,undefined,undefined,undefined,undefined,undefined,undefined,undefined,undefined,undefined,undefined,undefined,undefined,undefined,undefined,undefined,
55ojdwa246,undefined,undefined,undefined,undefined,52,16,7,JACOB,EVAN,false,5643.195000004256,undefined,undefined,undefined,undefined,undefined,undefined,undefined,undefined,undefined,undefined,undefined,undefined,undefined,undefined,undefined,undefined,undefined,undefined,undefined,undefined,undefined,undefined,undefined,undefined,
55ojdwa246,undefined,undefined,undefined,undefined,53,14,7,LARRY,JACOB,false,10021.605000001728,undefined,undefined,undefined,undefined,undefined,undefined,undefined,undefined,undefined,undefined,undefined,undefined,undefined,undefined,undefined,undefined,undefined,undefined,undefined,undefined,undefined,undefined,undefined,undefined,
55ojdwa246,undefined,undefined,undefined,undefined,54,32,7,LORY,LORY,true,5396.174999994342,undefined,undefined,undefined,undefined,undefined,undefined,undefined,undefined,undefined,undefined,undefined,undefined,undefined,undefined,undefined,undefined,undefined,undefined,undefined,undefined,undefined,undefined,undefined,undefined,
55ojdwa246,undefined,undefined,undefined,undefined,55,10,7,KYLE,EVAN,false,7127.395000003162,undefined,undefined,undefined,undefined,undefined,undefined,undefined,undefined,undefined,undefined,undefined,undefined,undefined,undefined,undefined,undefined,undefined,undefined,undefined,undefined,undefined,undefined,undefined,undefined,
55ojdwa246,undefined,undefined,undefined,undefined,56,1,7,KEVIN,EVAN,false,4273.665000000619,undefined,undefined,undefined,undefined,undefined,undefined,undefined,undefined,undefined,undefined,undefined,undefined,undefined,undefined,undefined,undefined,undefined,undefined,undefined,undefined,undefined,undefined,undefined,undefined,
55ojdwa246,undefined,undefined,undefined,undefined,57,11,7,NICK,OLIVER,false,5545.765000002575,undefined,undefined,undefined,undefined,undefined,undefined,undefined,undefined,undefined,undefined,undefined,undefined,undefined,undefined,undefined,undefined,undefined,undefined,undefined,undefined,undefined,undefined,undefined,undefined,
55ojdwa246,undefined,undefined,undefined,undefined,58,2,7,RYAN,TYLER,false,9210.689999999944,undefined,undefined,undefined,undefined,undefined,undefined,undefined,undefined,undefined,undefined,undefined,undefined,undefined,undefined,undefined,undefined,undefined,undefined,undefined,undefined,undefined,undefined,undefined,undefined,
55ojdwa246,undefined,undefined,undefined,undefined,59,31,7,NATALIE,JESSICA,false,11172.845000000903,undefined,undefined,undefined,undefined,undefined,undefined,undefined,undefined,undefined,undefined,undefined,undefined,undefined,undefined,undefined,undefined,undefined,undefined,undefined,undefined,undefined,undefined,undefined,undefined,
55ojdwa246,undefined,undefined,undefined,undefined,60,22,7,GRACE,JESSICA,false,7230.270000000019,undefined,undefined,undefined,undefined,undefined,undefined,undefined,undefined,undefined,undefined,undefined,undefined,undefined,undefined,undefined,undefined,undefined,undefined,undefined,undefined,undefined,undefined,undefined,undefined,
55ojdwa246,undefined,undefined,undefined,undefined,61,32,6,LORY,LORY,true,5440.265000004787,undefined,undefined,undefined,undefined,undefined,undefined,undefined,undefined,undefined,undefined,undefined,undefined,undefined,undefined,undefined,undefined,undefined,undefined,undefined,undefined,undefined,undefined,undefined,undefined,
55ojdwa246,undefined,undefined,undefined,undefined,62,40,6,DIANA,DIANA,true,3219.965000003809,undefined,undefined,undefined,undefined,undefined,undefined,undefined,undefined,undefined,undefined,undefined,undefined,undefined,undefined,undefined,undefined,undefined,undefined,undefined,undefined,undefined,undefined,undefined,undefined,
55ojdwa246,undefined,undefined,undefined,undefined,63,31,6,NATALIE,AMY,false,6889.100000000326,undefined,undefined,undefined,undefined,undefined,undefined,undefined,undefined,undefined,undefined,undefined,undefined,undefined,undefined,undefined,undefined,undefined,undefined,undefined,undefined,undefined,undefined,undefined,undefined,
55ojdwa246,undefined,undefined,undefined,undefined,64,22,6,GRACE,NATA;IE,false,18454.95999999554,undefined,undefined,undefined,undefined,undefined,undefined,undefined,undefined,undefined,undefined,undefined,undefined,undefined,undefined,undefined,undefined,undefined,undefined,undefined,undefined,undefined,undefined,undefined,undefined,
55ojdwa246,undefined,undefined,undefined,undefined,65,19,6,CHRIS,EVAN,false,7804.615000000922,undefined,undefined,undefined,undefined,undefined,undefined,undefined,undefined,undefined,undefined,undefined,undefined,undefined,undefined,undefined,undefined,undefined,undefined,undefined,undefined,undefined,undefined,undefined,undefined,
55ojdwa246,undefined,undefined,undefined,undefined,66,2,6,RYAN,KEVIN,false,13194.969999996829,undefined,undefined,undefined,undefined,undefined,undefined,undefined,undefined,undefined,undefined,undefined,undefined,undefined,undefined,undefined,undefined,undefined,undefined,undefined,undefined,undefined,undefined,undefined,undefined,
55ojdwa246,undefined,undefined,undefined,undefined,67,20,6,OLIVER,KEVIN,false,3952.6049999985844,undefined,undefined,undefined,undefined,undefined,undefined,undefined,undefined,undefined,undefined,undefined,undefined,undefined,undefined,undefined,undefined,undefined,undefined,undefined,undefined,undefined,undefined,undefined,undefined,
55ojdwa246,undefined,undefined,undefined,undefined,68,10,6,KYLE,KEVIN,false,4710.32500000007,undefined,undefined,undefined,undefined,undefined,undefined,undefined,undefined,undefined,undefined,undefined,undefined,undefined,undefined,undefined,undefined,undefined,undefined,undefined,undefined,undefined,undefined,undefined,undefined,
55ojdwa246,undefined,undefined,undefined,undefined,69,16,6,JACOB,KEVIN,false,5578.350000003469,undefined,undefined,undefined,undefined,undefined,undefined,undefined,undefined,undefined,undefined,undefined,undefined,undefined,undefined,undefined,undefined,undefined,undefined,undefined,undefined,undefined,undefined,undefined,undefined,
55ojdwa246,undefined,undefined,undefined,undefined,70,7,6,WAYNE,KEVIN,false,4856.429999999818,undefined,undefined,undefined,undefined,undefined,undefined,undefined,undefined,undefined,undefined,undefined,undefined,undefined,undefined,undefined,undefined,undefined,undefined,undefined,undefined,undefined,undefined,undefined,undefined,
55ojdwa246,undefined,undefined,undefined,undefined,71,26,6,AMBER,AMBER,true,3533.499999997788,undefined,undefined,undefined,undefined,undefined,undefined,undefined,undefined,undefined,undefined,undefined,undefined,undefined,undefined,undefined,undefined,undefined,undefined,undefined,undefined,undefined,undefined,undefined,undefined,
55ojdwa246,undefined,undefined,undefined,undefined,72,27,6,ZOEY,NATALIE,false,28351.934999998775,undefined,undefined,undefined,undefined,undefined,undefined,undefined,undefined,undefined,undefined,undefined,undefined,undefined,undefined,undefined,undefined,undefined,undefined,undefined,undefined,undefined,undefined,undefined,undefined,
55ojdwa246,undefined,undefined,undefined,undefined,73,34,6,JESSICA,JESSICA,true,7162.309999999707,undefined,undefined,undefined,undefined,undefined,undefined,undefined,undefined,undefined,undefined,undefined,undefined,undefined,undefined,undefined,undefined,undefined,undefined,undefined,undefined,undefined,undefined,undefined,undefined,
55ojdwa246,undefined,undefined,undefined,undefined,74,14,6,LARRY,JACOB,false,11123.670000000857,undefined,undefined,undefined,undefined,undefined,undefined,undefined,undefined,undefined,undefined,undefined,undefined,undefined,undefined,undefined,undefined,undefined,undefined,undefined,undefined,undefined,undefined,undefined,undefined,
55ojdwa246,undefined,undefined,undefined,undefined,75,1,6,KEVIN,JACOB,false,5780.974999994272,undefined,undefined,undefined,undefined,undefined,undefined,undefined,undefined,undefined,undefined,undefined,undefined,undefined,undefined,undefined,undefined,undefined,undefined,undefined,undefined,undefined,undefined,undefined,undefined,
55ojdwa246,undefined,undefined,undefined,undefined,76,11,6,NICK,OLIVER,false,15988.989999998012,undefined,undefined,undefined,undefined,undefined,undefined,undefined,undefined,undefined,undefined,undefined,undefined,undefined,undefined,undefined,undefined,undefined,undefined,undefined,undefined,undefined,undefined,undefined,undefined,
55ojdwa246,undefined,undefined,undefined,undefined,77,18,6,TYLER,KYLE,false,4698.635000000591,undefined,undefined,undefined,undefined,undefined,undefined,undefined,undefined,undefined,undefined,undefined,undefined,undefined,undefined,undefined,undefined,undefined,undefined,undefined,undefined,undefined,undefined,undefined,undefined,
55ojdwa246,undefined,undefined,undefined,undefined,78,35,6,JUDY,JESSICA,false,4373.534999998868,undefined,undefined,undefined,undefined,undefined,undefined,undefined,undefined,undefined,undefined,undefined,undefined,undefined,undefined,undefined,undefined,undefined,undefined,undefined,undefined,undefined,undefined,undefined,undefined,
55ojdwa246,undefined,undefined,undefined,undefined,79,28,6,EVELYN,EVELYN,true,5000.834999998915,undefined,undefined,undefined,undefined,undefined,undefined,undefined,undefined,undefined,undefined,undefined,undefined,undefined,undefined,undefined,undefined,undefined,undefined,undefined,undefined,undefined,undefined,undefined,undefined,
55ojdwa246,undefined,undefined,undefined,undefined,80,29,6,EMILY,EMILY,true,4416.785000001313,undefined,undefined,undefined,undefined,undefined,undefined,undefined,undefined,undefined,undefined,undefined,undefined,undefined,undefined,undefined,undefined,undefined,undefined,undefined,undefined,undefined,undefined,undefined,undefined,
55ojdwa246,undefined,undefined,undefined,undefined,81,22,3,GRACE,JUDY,false,4876.974999999162,undefined,undefined,undefined,undefined,undefined,undefined,undefined,undefined,undefined,undefined,undefined,undefined,undefined,undefined,undefined,undefined,undefined,undefined,undefined,undefined,undefined,undefined,undefined,undefined,
55ojdwa246,undefined,undefined,undefined,undefined,82,28,3,EVELYN,EVELYN,true,5098.964999997406,undefined,undefined,undefined,undefined,undefined,undefined,undefined,undefined,undefined,undefined,undefined,undefined,undefined,undefined,undefined,undefined,undefined,undefined,undefined,undefined,undefined,undefined,undefined,undefined,
55ojdwa246,undefined,undefined,undefined,undefined,83,31,3,NATALIE,LORY,false,13152.600000001257,undefined,undefined,undefined,undefined,undefined,undefined,undefined,undefined,undefined,undefined,undefined,undefined,undefined,undefined,undefined,undefined,undefined,undefined,undefined,undefined,undefined,undefined,undefined,undefined,
55ojdwa246,undefined,undefined,undefined,undefined,84,32,3,LORY,JESSICA,false,7957.77000000095,undefined,undefined,undefined,undefined,undefined,undefined,undefined,undefined,undefined,undefined,undefined,undefined,undefined,undefined,undefined,undefined,undefined,undefined,undefined,undefined,undefined,undefined,undefined,undefined,
55ojdwa246,undefined,undefined,undefined,undefined,85,10,3,KYLE,TYLER,false,8435.414999999804,undefined,undefined,undefined,undefined,undefined,undefined,undefined,undefined,undefined,undefined,undefined,undefined,undefined,undefined,undefined,undefined,undefined,undefined,undefined,undefined,undefined,undefined,undefined,undefined,
55ojdwa246,undefined,undefined,undefined,undefined,86,40,3,DIANA,DIANA,true,3339.090000001248,undefined,undefined,undefined,undefined,undefined,undefined,undefined,undefined,undefined,undefined,undefined,undefined,undefined,undefined,undefined,undefined,undefined,undefined,undefined,undefined,undefined,undefined,undefined,undefined,
55ojdwa246,undefined,undefined,undefined,undefined,87,11,3,NICK,CHRIS,false,2898.619999999879,undefined,undefined,undefined,undefined,undefined,undefined,undefined,undefined,undefined,undefined,undefined,undefined,undefined,undefined,undefined,undefined,undefined,undefined,undefined,undefined,undefined,undefined,undefined,undefined,
55ojdwa246,undefined,undefined,undefined,undefined,88,2,3,RYAN,KEVIN,false,6366.314999999246,undefined,undefined,undefined,undefined,undefined,undefined,undefined,undefined,undefined,undefined,undefined,undefined,undefined,undefined,undefined,undefined,undefined,undefined,undefined,undefined,undefined,undefined,undefined,undefined,
55ojdwa246,undefined,undefined,undefined,undefined,89,14,3,LARRY,LARRY,true,3306.9400000022724,undefined,undefined,undefined,undefined,undefined,undefined,undefined,undefined,undefined,undefined,undefined,undefined,undefined,undefined,undefined,undefined,undefined,undefined,undefined,undefined,undefined,undefined,undefined,undefined,
55ojdwa246,undefined,undefined,undefined,undefined,90,7,3,WAYNE,KEVIN,false,9787.819999997737,undefined,undefined,undefined,undefined,undefined,undefined,undefined,undefined,undefined,undefined,undefined,undefined,undefined,undefined,undefined,undefined,undefined,undefined,undefined,undefined,undefined,undefined,undefined,undefined,
55ojdwa246,undefined,undefined,undefined,undefined,91,34,3,JESSICA,JESSICA,true,5798.230000000447,undefined,undefined,undefined,undefined,undefined,undefined,undefined,undefined,undefined,undefined,undefined,undefined,undefined,undefined,undefined,undefined,undefined,undefined,undefined,undefined,undefined,undefined,undefined,undefined,
55ojdwa246,undefined,undefined,undefined,undefined,92,35,3,JUDY,LORY,false,3418.3199999970384,undefined,undefined,undefined,undefined,undefined,undefined,undefined,undefined,undefined,undefined,undefined,undefined,undefined,undefined,undefined,undefined,undefined,undefined,undefined,undefined,undefined,undefined,undefined,undefined,
55ojdwa246,undefined,undefined,undefined,undefined,93,1,3,KEVIN,KEVIN,true,5915.480000003241,undefined,undefined,undefined,undefined,undefined,undefined,undefined,undefined,undefined,undefined,undefined,undefined,undefined,undefined,undefined,undefined,undefined,undefined,undefined,undefined,undefined,undefined,undefined,undefined,
55ojdwa246,undefined,undefined,undefined,undefined,94,16,3,JACOB,JACOB,true,5942.7300000025425,undefined,undefined,undefined,undefined,undefined,undefined,undefined,undefined,undefined,undefined,undefined,undefined,undefined,undefined,undefined,undefined,undefined,undefined,undefined,undefined,undefined,undefined,undefined,undefined,
55ojdwa246,undefined,undefined,undefined,undefined,95,19,3,CHRIS,CHRIS,true,3953.7199999976438,undefined,undefined,undefined,undefined,undefined,undefined,undefined,undefined,undefined,undefined,undefined,undefined,undefined,undefined,undefined,undefined,undefined,undefined,undefined,undefined,undefined,undefined,undefined,undefined,
55ojdwa246,undefined,undefined,undefined,undefined,96,20,3,OLIVER,OLIVER,true,4285.1149999988265,undefined,undefined,undefined,undefined,undefined,undefined,undefined,undefined,undefined,undefined,undefined,undefined,undefined,undefined,undefined,undefined,undefined,undefined,undefined,undefined,undefined,undefined,undefined,undefined,
55ojdwa246,undefined,undefined,undefined,undefined,97,27,3,ZOEY,JUDY,false,6083.4749999996275,undefined,undefined,undefined,undefined,undefined,undefined,undefined,undefined,undefined,undefined,undefined,undefined,undefined,undefined,undefined,undefined,undefined,undefined,undefined,undefined,undefined,undefined,undefined,undefined,
55ojdwa246,undefined,undefined,undefined,undefined,98,18,3,TYLER,EVAN,false,6304.96000000136,undefined,undefined,undefined,undefined,undefined,undefined,undefined,undefined,undefined,undefined,undefined,undefined,undefined,undefined,undefined,undefined,undefined,undefined,undefined,undefined,undefined,undefined,undefined,undefined,
55ojdwa246,undefined,undefined,undefined,undefined,99,29,3,EMILY,EMILY,true,5567.48999999417,undefined,undefined,undefined,undefined,undefined,undefined,undefined,undefined,undefined,undefined,undefined,undefined,undefined,undefined,undefined,undefined,undefined,undefined,undefined,undefined,undefined,undefined,undefined,undefined,
55ojdwa246,undefined,undefined,undefined,undefined,100,26,3,AMBER,AMBER,true,3942.8950000002515,undefined,undefined,undefined,undefined,undefined,undefined,undefined,undefined,undefined,undefined,undefined,undefined,undefined,undefined,undefined,undefined,undefined,undefined,undefined,undefined,undefined,undefined,undefined,undefined,
55ojdwa246,undefined,undefined,undefined,undefined,101,22,5,GRACE,GRACE,true,6409.445000004722,undefined,undefined,undefined,undefined,undefined,undefined,undefined,undefined,undefined,undefined,undefined,undefined,undefined,undefined,undefined,undefined,undefined,undefined,undefined,undefined,undefined,undefined,undefined,undefined,
55ojdwa246,undefined,undefined,undefined,undefined,102,34,5,JESSICA,JUDY,false,4461.6600000008475,undefined,undefined,undefined,undefined,undefined,undefined,undefined,undefined,undefined,undefined,undefined,undefined,undefined,undefined,undefined,undefined,undefined,undefined,undefined,undefined,undefined,undefined,undefined,undefined,
55ojdwa246,undefined,undefined,undefined,undefined,103,1,5,KEVIN,KYLE,false,7731.234999999404,undefined,undefined,undefined,undefined,undefined,undefined,undefined,undefined,undefined,undefined,undefined,undefined,undefined,undefined,undefined,undefined,undefined,undefined,undefined,undefined,undefined,undefined,undefined,undefined,
55ojdwa246,undefined,undefined,undefined,undefined,104,14,5,LARRY,LARRY,true,2990.0699999998324,undefined,undefined,undefined,undefined,undefined,undefined,undefined,undefined,undefined,undefined,undefined,undefined,undefined,undefined,undefined,undefined,undefined,undefined,undefined,undefined,undefined,undefined,undefined,undefined,
55ojdwa246,undefined,undefined,undefined,undefined,105,2,5,RYAN,EVAN,false,5318.589999995427,undefined,undefined,undefined,undefined,undefined,undefined,undefined,undefined,undefined,undefined,undefined,undefined,undefined,undefined,undefined,undefined,undefined,undefined,undefined,undefined,undefined,undefined,undefined,undefined,
55ojdwa246,undefined,undefined,undefined,undefined,106,40,5,DIANA,DIANA,true,3263.650000000838,undefined,undefined,undefined,undefined,undefined,undefined,undefined,undefined,undefined,undefined,undefined,undefined,undefined,undefined,undefined,undefined,undefined,undefined,undefined,undefined,undefined,undefined,undefined,undefined,
55ojdwa246,undefined,undefined,undefined,undefined,107,20,5,OLIVER,OLIVER,true,3322.1800000029616,undefined,undefined,undefined,undefined,undefined,undefined,undefined,undefined,undefined,undefined,undefined,undefined,undefined,undefined,undefined,undefined,undefined,undefined,undefined,undefined,undefined,undefined,undefined,undefined,
55ojdwa246,undefined,undefined,undefined,undefined,108,31,5,NATALIE,LORY,false,4663.049999995623,undefined,undefined,undefined,undefined,undefined,undefined,undefined,undefined,undefined,undefined,undefined,undefined,undefined,undefined,undefined,undefined,undefined,undefined,undefined,undefined,undefined,undefined,undefined,undefined,
55ojdwa246,undefined,undefined,undefined,undefined,109,11,5,NICK,EVAN,false,5601.540000003297,undefined,undefined,undefined,undefined,undefined,undefined,undefined,undefined,undefined,undefined,undefined,undefined,undefined,undefined,undefined,undefined,undefined,undefined,undefined,undefined,undefined,undefined,undefined,undefined,
55ojdwa246,undefined,undefined,undefined,undefined,110,32,5,LORY,JESSICA,false,5997.979999999981,undefined,undefined,undefined,undefined,undefined,undefined,undefined,undefined,undefined,undefined,undefined,undefined,undefined,undefined,undefined,undefined,undefined,undefined,undefined,undefined,undefined,undefined,undefined,undefined,
55ojdwa246,undefined,undefined,undefined,undefined,111,27,5,ZOEY,ZOEY,true,7065.909999997355,undefined,undefined,undefined,undefined,undefined,undefined,undefined,undefined,undefined,undefined,undefined,undefined,undefined,undefined,undefined,undefined,undefined,undefined,undefined,undefined,undefined,undefined,undefined,undefined,
55ojdwa246,undefined,undefined,undefined,undefined,112,7,5,WAYNE,KEVIN,false,6033.550000000047,undefined,undefined,undefined,undefined,undefined,undefined,undefined,undefined,undefined,undefined,undefined,undefined,undefined,undefined,undefined,undefined,undefined,undefined,undefined,undefined,undefined,undefined,undefined,undefined,
55ojdwa246,undefined,undefined,undefined,undefined,113,19,5,CHRIS,CHRIS,true,3693.749999998603,undefined,undefined,undefined,undefined,undefined,undefined,undefined,undefined,undefined,undefined,undefined,undefined,undefined,undefined,undefined,undefined,undefined,undefined,undefined,undefined,undefined,undefined,undefined,undefined,
55ojdwa246,undefined,undefined,undefined,undefined,114,10,5,KYLE,KYLE,true,5218.314999998314,undefined,undefined,undefined,undefined,undefined,undefined,undefined,undefined,undefined,undefined,undefined,undefined,undefined,undefined,undefined,undefined,undefined,undefined,undefined,undefined,undefined,undefined,undefined,undefined,
55ojdwa246,undefined,undefined,undefined,undefined,115,18,5,TYLER,NICK,false,5113.714999999385,undefined,undefined,undefined,undefined,undefined,undefined,undefined,undefined,undefined,undefined,undefined,undefined,undefined,undefined,undefined,undefined,undefined,undefined,undefined,undefined,undefined,undefined,undefined,undefined,
55ojdwa246,undefined,undefined,undefined,undefined,116,26,5,AMBER,AMBER,true,2913.1349999953527,undefined,undefined,undefined,undefined,undefined,undefined,undefined,undefined,undefined,undefined,undefined,undefined,undefined,undefined,undefined,undefined,undefined,undefined,undefined,undefined,undefined,undefined,undefined,undefined,
55ojdwa246,undefined,undefined,undefined,undefined,117,16,5,JACOB,NICK,false,9150.155000003055,undefined,undefined,undefined,undefined,undefined,undefined,undefined,undefined,undefined,undefined,undefined,undefined,undefined,undefined,undefined,undefined,undefined,undefined,undefined,undefined,undefined,undefined,undefined,undefined,
55ojdwa246,undefined,undefined,undefined,undefined,118,28,5,EVELYN,EVELYN,true,5063.134999996517,undefined,undefined,undefined,undefined,undefined,undefined,undefined,undefined,undefined,undefined,undefined,undefined,undefined,undefined,undefined,undefined,undefined,undefined,undefined,undefined,undefined,undefined,undefined,undefined,
55ojdwa246,undefined,undefined,undefined,undefined,119,29,5,EMILY,EMILY,true,6969.984999996144,undefined,undefined,undefined,undefined,undefined,undefined,undefined,undefined,undefined,undefined,undefined,undefined,undefined,undefined,undefined,undefined,undefined,undefined,undefined,undefined,undefined,undefined,undefined,undefined,
55ojdwa246,undefined,undefined,undefined,undefined,120,35,5,JUDY,LORY,false,8819.564999997849,undefined,undefined,undefined,undefined,undefined,undefined,undefined,undefined,undefined,undefined,undefined,undefined,undefined,undefined,undefined,undefined,undefined,undefined,undefined,undefined,undefined,undefined,undefined,undefined,
