SubNum,SubNum_demo,Exp_start_time,Exp_today_date,Exp_today_time,TrialNum,Condition,Face,Name,Response,NameAcc,RespTime,StudyTrialNum,StudyFace,StudyContext,StudyFamCond,TestTrialNum,TestFace,TestContext,TestSDCond,TestFamCond,TestResponse,TestResponseTime,Exp_end_time,Distractor_1_duration,Distractor_2_duration,
9fyrz238fx,r3qcyuwnhv,Mon Oct 19 2020 19:36:56 GMT-0500 (Central Daylight Time),2020-10-19,19:36:56,1,Know,24,CHLOE,CHLOE,true,5489.71499997424,1,10,11,1,1,32,22,0,2,0,3578.5500000347383,19:59:58,120645.19000001019,60172.39999998128,
9fyrz238fx,undefined,undefined,undefined,undefined,2,Familiar,6,NA,NA,NA,NA,2,23,32,1,2,25,20,1,0,1,1604.700000025332,undefined,undefined,undefined,
9fyrz238fx,undefined,undefined,undefined,undefined,3,Familiar,4,NA,NA,NA,NA,3,21,10,2,3,16,13,0,1,1,1427.800000004936,undefined,undefined,undefined,
9fyrz238fx,undefined,undefined,undefined,undefined,4,Know,28,ZOEY,ZOEY,true,6411.915000004228,4,5,19,2,4,15,18,1,0,1,1378.8650000351481,undefined,undefined,undefined,
9fyrz238fx,undefined,undefined,undefined,undefined,5,Familiar,19,NA,NA,NA,NA,5,24,27,1,5,2,15,1,1,0,1822.7649999898858,undefined,undefined,undefined,
9fyrz238fx,undefined,undefined,undefined,undefined,6,Know,33,HAZEL,HAZEL,true,4318.979999981821,6,14,16,2,6,19,9,0,0,0,2083.134999964386,undefined,undefined,undefined,
9fyrz238fx,undefined,undefined,undefined,undefined,7,Know,12,LISA,LISA,true,2280.1200000103563,7,29,15,1,7,20,7,1,0,1,1884.5650000148453,undefined,undefined,undefined,
9fyrz238fx,undefined,undefined,undefined,undefined,8,Familiar,9,NA,NA,NA,NA,8,20,21,0,8,10,11,0,1,1,1821.6299999621697,undefined,undefined,undefined,
9fyrz238fx,undefined,undefined,undefined,undefined,9,Familiar,11,NA,NA,NA,NA,9,16,13,1,9,29,6,1,1,1,1392.0299999881536,undefined,undefined,undefined,
9fyrz238fx,undefined,undefined,undefined,undefined,10,Know,16,BRITTANY,BRITTANY,true,6180.334999982733,10,12,33,1,10,24,27,0,1,1,3247.3549999995157,undefined,undefined,undefined,
9fyrz238fx,undefined,undefined,undefined,undefined,11,Know,10,MARGARET,MARGRET,false,6094.094999949448,11,27,3,2,11,5,10,1,2,1,1034.2750000418164,undefined,undefined,undefined,
9fyrz238fx,undefined,undefined,undefined,undefined,12,Familiar,22,NA,NA,NA,NA,12,15,20,0,12,26,30,0,2,1,2174.1799999726936,undefined,undefined,undefined,
9fyrz238fx,undefined,undefined,undefined,undefined,13,Know,35,SOFIA,SOFIA,true,2587.574999954086,13,32,22,2,13,18,21,1,0,1,1776.6650000121444,undefined,undefined,undefined,
9fyrz238fx,undefined,undefined,undefined,undefined,14,Familiar,25,NA,NA,NA,NA,14,25,18,0,14,1,23,1,0,0,17389.199999975972,undefined,undefined,undefined,
9fyrz238fx,undefined,undefined,undefined,undefined,15,Familiar,20,NA,NA,NA,NA,15,9,12,0,15,23,29,1,1,1,7981.31000000285,undefined,undefined,undefined,
9fyrz238fx,undefined,undefined,undefined,undefined,16,Know,29,REBECCA,REBECCA,true,5385.955000005197,16,30,4,2,16,35,32,1,1,1,5862.205000012182,undefined,undefined,undefined,
9fyrz238fx,undefined,undefined,undefined,undefined,17,Know,2,KAYLA,KAYLA,true,3478.1849999562837,17,13,17,2,17,9,12,0,0,1,6558.130000019446,undefined,undefined,undefined,
9fyrz238fx,undefined,undefined,undefined,undefined,18,Familiar,36,NA,NA,NA,NA,18,2,6,1,18,11,31,0,0,1,1568.5250000096858,undefined,undefined,undefined,
9fyrz238fx,undefined,undefined,undefined,undefined,19,Familiar,15,NA,NA,NA,NA,19,26,30,2,19,17,26,1,1,1,1105.6749999988824,undefined,undefined,undefined,
9fyrz238fx,undefined,undefined,undefined,undefined,20,Know,3,COURTNEY,COURTNEY,true,4023.7900000065565,20,18,7,0,20,12,33,0,1,0,1774.950000050012,undefined,undefined,undefined,
9fyrz238fx,undefined,undefined,undefined,undefined,21,Familiar,18,NA,NA,NA,NA,21,11,31,0,21,31,5,0,2,0,2222.060000000056,undefined,undefined,undefined,
9fyrz238fx,undefined,undefined,undefined,undefined,22,Know,23,ALYSSA,ALYSSA,true,3253.625000012107,22,33,35,1,22,6,24,0,0,1,1573.7949999747798,undefined,undefined,undefined,
9fyrz238fx,undefined,undefined,undefined,undefined,23,Familiar,1,NA,NA,NA,NA,23,28,28,1,23,28,28,0,1,1,1636.5500000538304,undefined,undefined,undefined,
9fyrz238fx,undefined,undefined,undefined,undefined,24,Know,17,SARAH,SARAH,true,3406.8500000284985,24,19,9,0,24,21,19,1,2,1,1723.1949999695644,undefined,undefined,undefined,
9fyrz238fx,undefined,undefined,undefined,undefined,25,Familiar,1,NA,NA,NA,NA,25,3,26,1,25,34,14,0,2,0,3797.225000045728,undefined,undefined,undefined,
9fyrz238fx,undefined,undefined,undefined,undefined,26,Familiar,20,NA,NA,NA,NA,26,34,14,2,26,33,35,0,1,0,2931.434999976773,undefined,undefined,undefined,
9fyrz238fx,undefined,undefined,undefined,undefined,27,Know,12,LISA,CHLOE,false,6937.120000016876,27,8,34,2,27,4,1,0,0,1,1361.525000014808,undefined,undefined,undefined,
9fyrz238fx,undefined,undefined,undefined,undefined,28,Familiar,19,NA,NA,NA,NA,28,22,36,0,28,13,17,0,2,1,1121.8150000204332,undefined,undefined,undefined,
9fyrz238fx,undefined,undefined,undefined,undefined,29,Know,35,SOFIA,SOFIA,true,4145.96499997424,29,1,8,0,29,36,8,1,0,1,1249.1199999931268,undefined,undefined,undefined,
9fyrz238fx,undefined,undefined,undefined,undefined,30,Know,16,BRITTANY,BRITTANY,true,5855.68500001682,30,31,5,2,30,27,25,1,2,1,960.3149999747984,undefined,undefined,undefined,
9fyrz238fx,undefined,undefined,undefined,undefined,31,Familiar,9,NA,NA,NA,NA,31,6,24,0,31,14,16,0,2,1,1171.6850000084378,undefined,undefined,undefined,
9fyrz238fx,undefined,undefined,undefined,undefined,32,Know,3,COURTNEY,REBECCA,false,8805.869999981951,32,35,29,1,32,7,3,1,2,1,2550.7849999703467,undefined,undefined,undefined,
9fyrz238fx,undefined,undefined,undefined,undefined,33,Know,17,SARAH,SOFIA,false,6539.025000005495,33,4,1,0,33,22,36,0,0,0,2138.444999989588,undefined,undefined,undefined,
9fyrz238fx,undefined,undefined,undefined,undefined,34,Familiar,6,NA,NA,NA,NA,34,7,25,2,34,30,34,1,2,1,1516.1150000058115,undefined,undefined,undefined,
9fyrz238fx,undefined,undefined,undefined,undefined,35,Know,29,REBECCA,REBACCA,false,9937.919999996666,35,17,2,1,35,3,2,1,1,1,1800.0150000443682,undefined,undefined,undefined,
9fyrz238fx,undefined,undefined,undefined,undefined,36,Familiar,18,NA,NA,NA,NA,36,36,23,0,36,8,4,1,2,1,1004.5899999677204,undefined,undefined,undefined,
9fyrz238fx,undefined,undefined,undefined,undefined,37,Familiar,15,NA,NA,NA,NA,37,31,5,2,undefined,undefined,undefined,undefined,undefined,undefined,undefined,undefined,undefined,undefined,
9fyrz238fx,undefined,undefined,undefined,undefined,38,Know,33,HAZEL,MARGARET,false,8935.620000003837,38,21,10,2,undefined,undefined,undefined,undefined,undefined,undefined,undefined,undefined,undefined,undefined,
9fyrz238fx,undefined,undefined,undefined,undefined,39,Know,23,ALYSSA,SOFIA,false,5888.145000033546,39,3,26,1,undefined,undefined,undefined,undefined,undefined,undefined,undefined,undefined,undefined,undefined,
9fyrz238fx,undefined,undefined,undefined,undefined,40,Familiar,11,NA,NA,NA,NA,40,26,30,2,undefined,undefined,undefined,undefined,undefined,undefined,undefined,undefined,undefined,undefined,
9fyrz238fx,undefined,undefined,undefined,undefined,41,Familiar,36,NA,NA,NA,NA,41,32,22,2,undefined,undefined,undefined,undefined,undefined,undefined,undefined,undefined,undefined,undefined,
9fyrz238fx,undefined,undefined,undefined,undefined,42,Know,10,MARGARET,BRITTANY,false,10021.144999947865,42,1,8,0,undefined,undefined,undefined,undefined,undefined,undefined,undefined,undefined,undefined,undefined,
9fyrz238fx,undefined,undefined,undefined,undefined,43,Familiar,22,NA,NA,NA,NA,43,18,7,0,undefined,undefined,undefined,undefined,undefined,undefined,undefined,undefined,undefined,undefined,
9fyrz238fx,undefined,undefined,undefined,undefined,44,Know,24,CHLOE,ZOEY,false,4362.475000030827,44,29,15,1,undefined,undefined,undefined,undefined,undefined,undefined,undefined,undefined,undefined,undefined,
9fyrz238fx,undefined,undefined,undefined,undefined,45,Familiar,25,NA,NA,NA,NA,45,15,20,0,undefined,undefined,undefined,undefined,undefined,undefined,undefined,undefined,undefined,undefined,
9fyrz238fx,undefined,undefined,undefined,undefined,46,Know,2,KAYLA,BRITTANY,false,17129.119999997783,46,13,17,2,undefined,undefined,undefined,undefined,undefined,undefined,undefined,undefined,undefined,undefined,
9fyrz238fx,undefined,undefined,undefined,undefined,47,Familiar,4,NA,NA,NA,NA,47,9,12,0,undefined,undefined,undefined,undefined,undefined,undefined,undefined,undefined,undefined,undefined,
9fyrz238fx,undefined,undefined,undefined,undefined,48,Know,28,ZOEY,ZOEY,true,3145.235000003595,48,17,2,1,undefined,undefined,undefined,undefined,undefined,undefined,undefined,undefined,undefined,undefined,
9fyrz238fx,undefined,undefined,undefined,undefined,49,Know,10,MARGARET,MARGARET,true,7473.014999995939,49,4,1,0,undefined,undefined,undefined,undefined,undefined,undefined,undefined,undefined,undefined,undefined,
9fyrz238fx,undefined,undefined,undefined,undefined,50,Familiar,36,NA,NA,NA,NA,50,7,25,2,undefined,undefined,undefined,undefined,undefined,undefined,undefined,undefined,undefined,undefined,
9fyrz238fx,undefined,undefined,undefined,undefined,51,Know,33,HAZEL,HAZEL,true,4421.500000054948,51,25,18,0,undefined,undefined,undefined,undefined,undefined,undefined,undefined,undefined,undefined,undefined,
9fyrz238fx,undefined,undefined,undefined,undefined,52,Know,3,COURTNEY,COURTNEY,true,8326.75000000745,52,27,3,2,undefined,undefined,undefined,undefined,undefined,undefined,undefined,undefined,undefined,undefined,
9fyrz238fx,undefined,undefined,undefined,undefined,53,Familiar,19,NA,NA,NA,NA,53,16,13,1,undefined,undefined,undefined,undefined,undefined,undefined,undefined,undefined,undefined,undefined,
9fyrz238fx,undefined,undefined,undefined,undefined,54,Familiar,11,NA,NA,NA,NA,54,14,16,2,undefined,undefined,undefined,undefined,undefined,undefined,undefined,undefined,undefined,undefined,
9fyrz238fx,undefined,undefined,undefined,undefined,55,Know,23,ALYSSA,SARAH,false,6660.290000028908,55,5,19,2,undefined,undefined,undefined,undefined,undefined,undefined,undefined,undefined,undefined,undefined,
9fyrz238fx,undefined,undefined,undefined,undefined,56,Familiar,20,NA,NA,NA,NA,56,12,33,1,undefined,undefined,undefined,undefined,undefined,undefined,undefined,undefined,undefined,undefined,
9fyrz238fx,undefined,undefined,undefined,undefined,57,Familiar,6,NA,NA,NA,NA,57,23,32,1,undefined,undefined,undefined,undefined,undefined,undefined,undefined,undefined,undefined,undefined,
9fyrz238fx,undefined,undefined,undefined,undefined,58,Know,12,LISA,HAZEL,false,12810.995000007097,58,20,21,0,undefined,undefined,undefined,undefined,undefined,undefined,undefined,undefined,undefined,undefined,
9fyrz238fx,undefined,undefined,undefined,undefined,59,Know,16,BRITTANY,REBECCA,false,9141.019999980927,59,19,9,0,undefined,undefined,undefined,undefined,undefined,undefined,undefined,undefined,undefined,undefined,
9fyrz238fx,undefined,undefined,undefined,undefined,60,Familiar,25,NA,NA,NA,NA,60,8,34,2,undefined,undefined,undefined,undefined,undefined,undefined,undefined,undefined,undefined,undefined,
9fyrz238fx,undefined,undefined,undefined,undefined,61,Familiar,4,NA,NA,NA,NA,61,35,29,1,undefined,undefined,undefined,undefined,undefined,undefined,undefined,undefined,undefined,undefined,
9fyrz238fx,undefined,undefined,undefined,undefined,62,Know,2,KAYLA,KAYLA,true,4045.5000000074506,62,33,35,1,undefined,undefined,undefined,undefined,undefined,undefined,undefined,undefined,undefined,undefined,
9fyrz238fx,undefined,undefined,undefined,undefined,63,Familiar,15,NA,NA,NA,NA,63,36,23,0,undefined,undefined,undefined,undefined,undefined,undefined,undefined,undefined,undefined,undefined,
9fyrz238fx,undefined,undefined,undefined,undefined,64,Familiar,1,NA,NA,NA,NA,64,28,28,1,undefined,undefined,undefined,undefined,undefined,undefined,undefined,undefined,undefined,undefined,
9fyrz238fx,undefined,undefined,undefined,undefined,65,Know,29,REBECCA,CHLOE,false,6169.794999994338,65,6,24,0,undefined,undefined,undefined,undefined,undefined,undefined,undefined,undefined,undefined,undefined,
9fyrz238fx,undefined,undefined,undefined,undefined,66,Know,24,CHLOE,CHLOE,true,3737.520000024233,66,11,31,0,undefined,undefined,undefined,undefined,undefined,undefined,undefined,undefined,undefined,undefined,
9fyrz238fx,undefined,undefined,undefined,undefined,67,Familiar,9,NA,NA,NA,NA,67,2,6,1,undefined,undefined,undefined,undefined,undefined,undefined,undefined,undefined,undefined,undefined,
9fyrz238fx,undefined,undefined,undefined,undefined,68,Know,17,SARAH,SARAH,true,10077.655000030063,68,30,4,2,undefined,undefined,undefined,undefined,undefined,undefined,undefined,undefined,undefined,undefined,
9fyrz238fx,undefined,undefined,undefined,undefined,69,Familiar,22,NA,NA,NA,NA,69,34,14,2,undefined,undefined,undefined,undefined,undefined,undefined,undefined,undefined,undefined,undefined,
9fyrz238fx,undefined,undefined,undefined,undefined,70,Familiar,18,NA,NA,NA,NA,70,24,27,1,undefined,undefined,undefined,undefined,undefined,undefined,undefined,undefined,undefined,undefined,
9fyrz238fx,undefined,undefined,undefined,undefined,71,Know,28,ZOEY,ZOEY,true,5645.424999995157,71,22,36,0,undefined,undefined,undefined,undefined,undefined,undefined,undefined,undefined,undefined,undefined,
9fyrz238fx,undefined,undefined,undefined,undefined,72,Know,35,SOFIA,SOFIA,true,6668.025000020862,72,10,11,1,undefined,undefined,undefined,undefined,undefined,undefined,undefined,undefined,undefined,undefined,
9fyrz238fx,undefined,undefined,undefined,undefined,73,Familiar,9,NA,NA,NA,NA,undefined,undefined,undefined,undefined,undefined,undefined,undefined,undefined,undefined,undefined,undefined,undefined,undefined,undefined,
9fyrz238fx,undefined,undefined,undefined,undefined,74,Know,28,ZOEY,ZOEY,true,4056.0549999936484,undefined,undefined,undefined,undefined,undefined,undefined,undefined,undefined,undefined,undefined,undefined,undefined,undefined,undefined,
9fyrz238fx,undefined,undefined,undefined,undefined,75,Know,24,CHLOE,CHLOE,true,2646.6749999672174,undefined,undefined,undefined,undefined,undefined,undefined,undefined,undefined,undefined,undefined,undefined,undefined,undefined,undefined,
9fyrz238fx,undefined,undefined,undefined,undefined,76,Familiar,20,NA,NA,NA,NA,undefined,undefined,undefined,undefined,undefined,undefined,undefined,undefined,undefined,undefined,undefined,undefined,undefined,undefined,
9fyrz238fx,undefined,undefined,undefined,undefined,77,Familiar,4,NA,NA,NA,NA,undefined,undefined,undefined,undefined,undefined,undefined,undefined,undefined,undefined,undefined,undefined,undefined,undefined,undefined,
9fyrz238fx,undefined,undefined,undefined,undefined,78,Know,12,LISA,LISA,true,3355.5349999805912,undefined,undefined,undefined,undefined,undefined,undefined,undefined,undefined,undefined,undefined,undefined,undefined,undefined,undefined,
9fyrz238fx,undefined,undefined,undefined,undefined,79,Know,33,HAZEL,HAZEL,true,6032.459999958519,undefined,undefined,undefined,undefined,undefined,undefined,undefined,undefined,undefined,undefined,undefined,undefined,undefined,undefined,
9fyrz238fx,undefined,undefined,undefined,undefined,80,Familiar,22,NA,NA,NA,NA,undefined,undefined,undefined,undefined,undefined,undefined,undefined,undefined,undefined,undefined,undefined,undefined,undefined,undefined,
9fyrz238fx,undefined,undefined,undefined,undefined,81,Know,2,KAYLA,KAYLA,true,2733.089999994263,undefined,undefined,undefined,undefined,undefined,undefined,undefined,undefined,undefined,undefined,undefined,undefined,undefined,undefined,
9fyrz238fx,undefined,undefined,undefined,undefined,82,Familiar,18,NA,NA,NA,NA,undefined,undefined,undefined,undefined,undefined,undefined,undefined,undefined,undefined,undefined,undefined,undefined,undefined,undefined,
9fyrz238fx,undefined,undefined,undefined,undefined,83,Know,23,ALYSSA,SARAH,false,15262.979999999516,undefined,undefined,undefined,undefined,undefined,undefined,undefined,undefined,undefined,undefined,undefined,undefined,undefined,undefined,
9fyrz238fx,undefined,undefined,undefined,undefined,84,Familiar,36,NA,NA,NA,NA,undefined,undefined,undefined,undefined,undefined,undefined,undefined,undefined,undefined,undefined,undefined,undefined,undefined,undefined,
9fyrz238fx,undefined,undefined,undefined,undefined,85,Know,35,SOFIA,SOFIA,true,6125.9050000226125,undefined,undefined,undefined,undefined,undefined,undefined,undefined,undefined,undefined,undefined,undefined,undefined,undefined,undefined,
9fyrz238fx,undefined,undefined,undefined,undefined,86,Know,10,MARGARET,MARGARET,true,6296.77499999525,undefined,undefined,undefined,undefined,undefined,undefined,undefined,undefined,undefined,undefined,undefined,undefined,undefined,undefined,
9fyrz238fx,undefined,undefined,undefined,undefined,87,Familiar,15,NA,NA,NA,NA,undefined,undefined,undefined,undefined,undefined,undefined,undefined,undefined,undefined,undefined,undefined,undefined,undefined,undefined,
9fyrz238fx,undefined,undefined,undefined,undefined,88,Know,16,BRITTANY,BRITTANY,true,9014.640000008512,undefined,undefined,undefined,undefined,undefined,undefined,undefined,undefined,undefined,undefined,undefined,undefined,undefined,undefined,
9fyrz238fx,undefined,undefined,undefined,undefined,89,Familiar,6,NA,NA,NA,NA,undefined,undefined,undefined,undefined,undefined,undefined,undefined,undefined,undefined,undefined,undefined,undefined,undefined,undefined,
9fyrz238fx,undefined,undefined,undefined,undefined,90,Know,29,REBECCA,LISA,false,9304.394999984652,undefined,undefined,undefined,undefined,undefined,undefined,undefined,undefined,undefined,undefined,undefined,undefined,undefined,undefined,
9fyrz238fx,undefined,undefined,undefined,undefined,91,Familiar,25,NA,NA,NA,NA,undefined,undefined,undefined,undefined,undefined,undefined,undefined,undefined,undefined,undefined,undefined,undefined,undefined,undefined,
9fyrz238fx,undefined,undefined,undefined,undefined,92,Familiar,11,NA,NA,NA,NA,undefined,undefined,undefined,undefined,undefined,undefined,undefined,undefined,undefined,undefined,undefined,undefined,undefined,undefined,
9fyrz238fx,undefined,undefined,undefined,undefined,93,Know,17,SARAH,SARAH,true,12487.284999981057,undefined,undefined,undefined,undefined,undefined,undefined,undefined,undefined,undefined,undefined,undefined,undefined,undefined,undefined,
9fyrz238fx,undefined,undefined,undefined,undefined,94,Know,3,COURTNEY,COURTNEY,true,4753.9400000241585,undefined,undefined,undefined,undefined,undefined,undefined,undefined,undefined,undefined,undefined,undefined,undefined,undefined,undefined,
9fyrz238fx,undefined,undefined,undefined,undefined,95,Familiar,1,NA,NA,NA,NA,undefined,undefined,undefined,undefined,undefined,undefined,undefined,undefined,undefined,undefined,undefined,undefined,undefined,undefined,
9fyrz238fx,undefined,undefined,undefined,undefined,96,Familiar,19,NA,NA,NA,NA,undefined,undefined,undefined,undefined,undefined,undefined,undefined,undefined,undefined,undefined,undefined,undefined,undefined,undefined,
