SubNum,SubNum_demo,Exp_start_time,Exp_today_date,Exp_today_time,TrialNum,Condition,Face,Name,Response,NameAcc,RespTime,StudyTrialNum,StudyFace,StudyContext,StudyFamCond,TestTrialNum,TestFace,TestContext,TestSDCond,TestFamCond,TestResponse,TestResponseTime,Exp_end_time,Distractor_1_duration,Distractor_2_duration,
gv9r94h5cc,7v2n7a9fab,Tue Nov 10 2020 18:35:42 GMT-0600 (CST),2020-11-10,18:35:42,1,Familiar,5,NA,NA,NA,NA,1,22,10,2,undefined,undefined,undefined,undefined,undefined,undefined,undefined,undefined,125509,undefined,
gv9r94h5cc,undefined,undefined,undefined,undefined,2,Familiar,25,NA,NA,NA,NA,2,36,24,0,undefined,undefined,undefined,undefined,undefined,undefined,undefined,undefined,undefined,undefined,
gv9r94h5cc,undefined,undefined,undefined,undefined,3,Know,27,VICTORIA,EMMA,false,19464,3,6,33,2,undefined,undefined,undefined,undefined,undefined,undefined,undefined,undefined,undefined,undefined,
gv9r94h5cc,undefined,undefined,undefined,undefined,4,Know,30,AUDREY,AUDREY,true,3694,4,1,13,1,undefined,undefined,undefined,undefined,undefined,undefined,undefined,undefined,undefined,undefined,
gv9r94h5cc,undefined,undefined,undefined,undefined,5,Familiar,8,NA,NA,NA,NA,5,29,16,1,undefined,undefined,undefined,undefined,undefined,undefined,undefined,undefined,undefined,undefined,
gv9r94h5cc,undefined,undefined,undefined,undefined,6,Familiar,36,NA,NA,NA,NA,6,23,31,0,undefined,undefined,undefined,undefined,undefined,undefined,undefined,undefined,undefined,undefined,
gv9r94h5cc,undefined,undefined,undefined,undefined,7,Know,11,ALEXIS,ALEXSIS,false,3638,7,21,21,1,undefined,undefined,undefined,undefined,undefined,undefined,undefined,undefined,undefined,undefined,
gv9r94h5cc,undefined,undefined,undefined,undefined,8,Know,34,EMILY,EMILY,true,3885,8,19,27,2,undefined,undefined,undefined,undefined,undefined,undefined,undefined,undefined,undefined,undefined,
gv9r94h5cc,undefined,undefined,undefined,undefined,9,Familiar,35,NA,NA,NA,NA,9,25,20,0,undefined,undefined,undefined,undefined,undefined,undefined,undefined,undefined,undefined,undefined,
gv9r94h5cc,undefined,undefined,undefined,undefined,10,Know,3,JENNIFER,JENNFER,false,3123.9999999999854,10,2,2,0,undefined,undefined,undefined,undefined,undefined,undefined,undefined,undefined,undefined,undefined,
gv9r94h5cc,undefined,undefined,undefined,undefined,11,Know,21,STEPHANIE,STEPHANY,false,3104,11,4,11,2,undefined,undefined,undefined,undefined,undefined,undefined,undefined,undefined,undefined,undefined,
gv9r94h5cc,undefined,undefined,undefined,undefined,12,Familiar,14,NA,NA,NA,NA,12,32,32,2,undefined,undefined,undefined,undefined,undefined,undefined,undefined,undefined,undefined,undefined,
gv9r94h5cc,undefined,undefined,undefined,undefined,13,Know,1,LISA,LISA,true,1698,13,10,25,0,undefined,undefined,undefined,undefined,undefined,undefined,undefined,undefined,undefined,undefined,
gv9r94h5cc,undefined,undefined,undefined,undefined,14,Know,29,JESSICA,JESSICA,true,4019,14,35,34,0,undefined,undefined,undefined,undefined,undefined,undefined,undefined,undefined,undefined,undefined,
gv9r94h5cc,undefined,undefined,undefined,undefined,15,Familiar,23,NA,NA,NA,NA,15,34,23,1,undefined,undefined,undefined,undefined,undefined,undefined,undefined,undefined,undefined,undefined,
gv9r94h5cc,undefined,undefined,undefined,undefined,16,Know,9,GRACE,GRACW,false,2242,16,11,35,1,undefined,undefined,undefined,undefined,undefined,undefined,undefined,undefined,undefined,undefined,
gv9r94h5cc,undefined,undefined,undefined,undefined,17,Familiar,17,NA,NA,NA,NA,17,26,17,2,undefined,undefined,undefined,undefined,undefined,undefined,undefined,undefined,undefined,undefined,
gv9r94h5cc,undefined,undefined,undefined,undefined,18,Familiar,10,NA,NA,NA,NA,18,5,12,0,undefined,undefined,undefined,undefined,undefined,undefined,undefined,undefined,undefined,undefined,
gv9r94h5cc,undefined,undefined,undefined,undefined,19,Know,33,MEGAN,MEGAN,true,2272,19,27,5,1,undefined,undefined,undefined,undefined,undefined,undefined,undefined,undefined,undefined,undefined,
gv9r94h5cc,undefined,undefined,undefined,undefined,20,Familiar,16,NA,NA,NA,NA,20,3,1,1,undefined,undefined,undefined,undefined,undefined,undefined,undefined,undefined,undefined,undefined,
gv9r94h5cc,undefined,undefined,undefined,undefined,21,Familiar,2,NA,NA,NA,NA,21,16,15,0,undefined,undefined,undefined,undefined,undefined,undefined,undefined,undefined,undefined,undefined,
gv9r94h5cc,undefined,undefined,undefined,undefined,22,Know,24,HANNAH,JJ,false,48599,22,14,22,0,undefined,undefined,undefined,undefined,undefined,undefined,undefined,undefined,undefined,undefined,
gv9r94h5cc,undefined,undefined,undefined,undefined,23,Know,20,MARY,MARY,true,687412,23,30,8,1,undefined,undefined,undefined,undefined,undefined,undefined,undefined,undefined,undefined,undefined,
gv9r94h5cc,undefined,undefined,undefined,undefined,24,Familiar,18,NA,NA,NA,NA,24,18,29,0,undefined,undefined,undefined,undefined,undefined,undefined,undefined,undefined,undefined,undefined,
gv9r94h5cc,undefined,undefined,undefined,undefined,25,Know,24,HANNAH,EMILY,false,8461.999999999884,25,7,4,2,undefined,undefined,undefined,undefined,undefined,undefined,undefined,undefined,undefined,undefined,
gv9r94h5cc,undefined,undefined,undefined,undefined,26,Familiar,23,NA,NA,NA,NA,26,12,3,2,undefined,undefined,undefined,undefined,undefined,undefined,undefined,undefined,undefined,undefined,
gv9r94h5cc,undefined,undefined,undefined,undefined,27,Know,3,JENNIFER,JESSICA,false,6580,27,8,30,0,undefined,undefined,undefined,undefined,undefined,undefined,undefined,undefined,undefined,undefined,
gv9r94h5cc,undefined,undefined,undefined,undefined,28,Know,21,STEPHANIE,MARY,false,5735,28,28,19,2,undefined,undefined,undefined,undefined,undefined,undefined,undefined,undefined,undefined,undefined,
gv9r94h5cc,undefined,undefined,undefined,undefined,29,Familiar,36,NA,NA,NA,NA,29,20,36,1,undefined,undefined,undefined,undefined,undefined,undefined,undefined,undefined,undefined,undefined,
gv9r94h5cc,undefined,undefined,undefined,undefined,30,Familiar,8,NA,NA,NA,NA,30,9,6,1,undefined,undefined,undefined,undefined,undefined,undefined,undefined,undefined,undefined,undefined,
gv9r94h5cc,undefined,undefined,undefined,undefined,31,Know,29,JESSICA,EMA,false,52005,31,13,9,2,undefined,undefined,undefined,undefined,undefined,undefined,undefined,undefined,undefined,undefined,
gv9r94h5cc,undefined,undefined,undefined,undefined,32,Familiar,18,NA,NA,NA,NA,32,17,7,0,undefined,undefined,undefined,undefined,undefined,undefined,undefined,undefined,undefined,undefined,
gv9r94h5cc,undefined,undefined,undefined,undefined,33,Familiar,25,NA,NA,NA,NA,33,33,14,1,undefined,undefined,undefined,undefined,undefined,undefined,undefined,undefined,undefined,undefined,
gv9r94h5cc,undefined,undefined,undefined,undefined,34,Know,20,MARY,HANNA,false,97075,34,24,18,1,undefined,undefined,undefined,undefined,undefined,undefined,undefined,undefined,undefined,undefined,
gv9r94h5cc,undefined,undefined,undefined,undefined,35,Know,1,LISA,JENIFFER,false,10462.999999999767,35,31,26,2,undefined,undefined,undefined,undefined,undefined,undefined,undefined,undefined,undefined,undefined,
gv9r94h5cc,undefined,undefined,undefined,undefined,36,Familiar,16,NA,NA,NA,NA,36,15,28,2,undefined,undefined,undefined,undefined,undefined,undefined,undefined,undefined,undefined,undefined,
gv9r94h5cc,undefined,undefined,undefined,undefined,37,Familiar,35,NA,NA,NA,NA,37,25,20,0,undefined,undefined,undefined,undefined,undefined,undefined,undefined,undefined,undefined,undefined,
gv9r94h5cc,undefined,undefined,undefined,undefined,38,Know,33,MEGAN,K,false,4308,38,6,33,2,undefined,undefined,undefined,undefined,undefined,undefined,undefined,undefined,undefined,undefined,
gv9r94h5cc,undefined,undefined,undefined,undefined,39,Know,34,EMILY,J,false,2265,39,30,8,1,undefined,undefined,undefined,undefined,undefined,undefined,undefined,undefined,undefined,undefined,
gv9r94h5cc,undefined,undefined,undefined,undefined,40,Familiar,14,NA,NA,NA,NA,40,36,24,0,undefined,undefined,undefined,undefined,undefined,undefined,undefined,undefined,undefined,undefined,
gv9r94h5cc,undefined,undefined,undefined,undefined,41,Familiar,17,NA,NA,NA,NA,41,33,14,1,undefined,undefined,undefined,undefined,undefined,undefined,undefined,undefined,undefined,undefined,
gv9r94h5cc,undefined,undefined,undefined,undefined,42,Know,27,VICTORIA,I,false,3966,42,28,19,2,undefined,undefined,undefined,undefined,undefined,undefined,undefined,undefined,undefined,undefined,
gv9r94h5cc,undefined,undefined,undefined,undefined,43,Know,11,ALEXIS,K,false,2776,43,21,21,1,undefined,undefined,undefined,undefined,undefined,undefined,undefined,undefined,undefined,undefined,
gv9r94h5cc,undefined,undefined,undefined,undefined,44,Familiar,2,NA,NA,NA,NA,44,11,35,1,undefined,undefined,undefined,undefined,undefined,undefined,undefined,undefined,undefined,undefined,
gv9r94h5cc,undefined,undefined,undefined,undefined,45,Know,30,AUDREY,G,false,573,45,7,4,2,undefined,undefined,undefined,undefined,undefined,undefined,undefined,undefined,undefined,undefined,
gv9r94h5cc,undefined,undefined,undefined,undefined,46,Know,9,GRACE,F,false,628,46,13,9,2,undefined,undefined,undefined,undefined,undefined,undefined,undefined,undefined,undefined,undefined,
gv9r94h5cc,undefined,undefined,undefined,undefined,47,Familiar,10,NA,NA,NA,NA,47,16,15,0,undefined,undefined,undefined,undefined,undefined,undefined,undefined,undefined,undefined,undefined,
gv9r94h5cc,undefined,undefined,undefined,undefined,48,Familiar,5,NA,NA,NA,NA,48,2,2,0,undefined,undefined,undefined,undefined,undefined,undefined,undefined,undefined,undefined,undefined,
gv9r94h5cc,undefined,undefined,undefined,undefined,49,Know,11,ALEXIS,H,false,786,49,1,13,1,undefined,undefined,undefined,undefined,undefined,undefined,undefined,undefined,undefined,undefined,
gv9r94h5cc,undefined,undefined,undefined,undefined,50,Familiar,2,NA,NA,NA,NA,50,29,16,1,undefined,undefined,undefined,undefined,undefined,undefined,undefined,undefined,undefined,undefined,
gv9r94h5cc,undefined,undefined,undefined,undefined,51,Familiar,18,NA,NA,NA,NA,51,35,34,0,undefined,undefined,undefined,undefined,undefined,undefined,undefined,undefined,undefined,undefined,
gv9r94h5cc,undefined,undefined,undefined,undefined,52,Know,29,JESSICA,S,false,566,52,4,11,2,undefined,undefined,undefined,undefined,undefined,undefined,undefined,undefined,undefined,undefined,
gv9r94h5cc,undefined,undefined,undefined,undefined,53,Familiar,17,NA,NA,NA,NA,53,3,1,1,undefined,undefined,undefined,undefined,undefined,undefined,undefined,undefined,undefined,undefined,
gv9r94h5cc,undefined,undefined,undefined,undefined,54,Know,30,AUDREY,G,false,2184,54,5,12,0,undefined,undefined,undefined,undefined,undefined,undefined,undefined,undefined,undefined,undefined,
gv9r94h5cc,undefined,undefined,undefined,undefined,55,Familiar,23,NA,NA,NA,NA,55,8,30,0,undefined,undefined,undefined,undefined,undefined,undefined,undefined,undefined,undefined,undefined,
gv9r94h5cc,undefined,undefined,undefined,undefined,56,Familiar,8,NA,NA,NA,NA,56,34,23,1,undefined,undefined,undefined,undefined,undefined,undefined,undefined,undefined,undefined,undefined,
gv9r94h5cc,undefined,undefined,undefined,undefined,57,Know,34,EMILY,VICTORIA,false,68817,57,23,31,0,undefined,undefined,undefined,undefined,undefined,undefined,undefined,undefined,undefined,undefined,
gv9r94h5cc,undefined,undefined,undefined,undefined,58,Know,1,LISA,ALEXA,false,5637,58,18,29,0,undefined,undefined,undefined,undefined,undefined,undefined,undefined,undefined,undefined,undefined,
gv9r94h5cc,undefined,undefined,undefined,undefined,59,Familiar,36,NA,NA,NA,NA,59,22,10,2,undefined,undefined,undefined,undefined,undefined,undefined,undefined,undefined,undefined,undefined,
gv9r94h5cc,undefined,undefined,undefined,undefined,60,Know,33,MEGAN,JJJ,false,667207,60,17,7,0,undefined,undefined,undefined,undefined,undefined,undefined,undefined,undefined,undefined,undefined,
gv9r94h5cc,undefined,undefined,undefined,undefined,61,Know,27,VICTORIA,ALEXA,false,38522,61,19,27,2,undefined,undefined,undefined,undefined,undefined,undefined,undefined,undefined,undefined,undefined,
gv9r94h5cc,undefined,undefined,undefined,undefined,62,Familiar,35,NA,NA,NA,NA,62,15,28,2,undefined,undefined,undefined,undefined,undefined,undefined,undefined,undefined,undefined,undefined,
gv9r94h5cc,undefined,undefined,undefined,undefined,63,Familiar,10,NA,NA,NA,NA,63,14,22,0,undefined,undefined,undefined,undefined,undefined,undefined,undefined,undefined,undefined,undefined,
gv9r94h5cc,undefined,undefined,undefined,undefined,64,Know,21,STEPHANIE,MEGAN,false,168366,64,27,5,1,undefined,undefined,undefined,undefined,undefined,undefined,undefined,undefined,undefined,undefined,
gv9r94h5cc,undefined,undefined,undefined,undefined,65,Know,24,HANNAH,ALEX,false,12497.000000000466,65,31,26,2,undefined,undefined,undefined,undefined,undefined,undefined,undefined,undefined,undefined,undefined,
gv9r94h5cc,undefined,undefined,undefined,undefined,66,Familiar,5,NA,NA,NA,NA,66,12,3,2,undefined,undefined,undefined,undefined,undefined,undefined,undefined,undefined,undefined,undefined,
gv9r94h5cc,undefined,undefined,undefined,undefined,67,Know,20,MARY,BOB,false,10426,67,24,18,1,undefined,undefined,undefined,undefined,undefined,undefined,undefined,undefined,undefined,undefined,
gv9r94h5cc,undefined,undefined,undefined,undefined,68,Know,3,JENNIFER,MARY,false,2784,68,26,17,2,undefined,undefined,undefined,undefined,undefined,undefined,undefined,undefined,undefined,undefined,
gv9r94h5cc,undefined,undefined,undefined,undefined,69,Familiar,25,NA,NA,NA,NA,69,10,25,0,undefined,undefined,undefined,undefined,undefined,undefined,undefined,undefined,undefined,undefined,
gv9r94h5cc,undefined,undefined,undefined,undefined,70,Familiar,16,NA,NA,NA,NA,70,32,32,2,undefined,undefined,undefined,undefined,undefined,undefined,undefined,undefined,undefined,undefined,
gv9r94h5cc,undefined,undefined,undefined,undefined,71,Know,9,GRACE,K,false,438.99999999953434,71,9,6,1,undefined,undefined,undefined,undefined,undefined,undefined,undefined,undefined,undefined,undefined,
gv9r94h5cc,undefined,undefined,undefined,undefined,72,Familiar,14,NA,NA,NA,NA,72,20,36,1,undefined,undefined,undefined,undefined,undefined,undefined,undefined,undefined,undefined,undefined,
gv9r94h5cc,undefined,undefined,undefined,undefined,73,Familiar,14,NA,NA,NA,NA,undefined,undefined,undefined,undefined,undefined,undefined,undefined,undefined,undefined,undefined,undefined,undefined,undefined,undefined,
gv9r94h5cc,undefined,undefined,undefined,undefined,74,Know,20,MARY,JJJ,false,128009,undefined,undefined,undefined,undefined,undefined,undefined,undefined,undefined,undefined,undefined,undefined,undefined,undefined,undefined,
gv9r94h5cc,undefined,undefined,undefined,undefined,75,Familiar,35,NA,NA,NA,NA,undefined,undefined,undefined,undefined,undefined,undefined,undefined,undefined,undefined,undefined,undefined,undefined,undefined,undefined,
gv9r94h5cc,undefined,undefined,undefined,undefined,76,Familiar,23,NA,NA,NA,NA,undefined,undefined,undefined,undefined,undefined,undefined,undefined,undefined,undefined,undefined,undefined,undefined,undefined,undefined,
gv9r94h5cc,undefined,undefined,undefined,undefined,77,Know,11,ALEXIS,HJK,false,30874,undefined,undefined,undefined,undefined,undefined,undefined,undefined,undefined,undefined,undefined,undefined,undefined,undefined,undefined,
gv9r94h5cc,undefined,undefined,undefined,undefined,78,Familiar,18,NA,NA,NA,NA,undefined,undefined,undefined,undefined,undefined,undefined,undefined,undefined,undefined,undefined,undefined,undefined,undefined,undefined,
gv9r94h5cc,undefined,undefined,undefined,undefined,79,Know,30,AUDREY,HS,false,14137.000000000466,undefined,undefined,undefined,undefined,undefined,undefined,undefined,undefined,undefined,undefined,undefined,undefined,undefined,undefined,
gv9r94h5cc,undefined,undefined,undefined,undefined,80,Know,27,VICTORIA,H,false,2768401,undefined,undefined,undefined,undefined,undefined,undefined,undefined,undefined,undefined,undefined,undefined,undefined,undefined,undefined,
gv9r94h5cc,undefined,undefined,undefined,undefined,81,Familiar,10,NA,NA,NA,NA,undefined,undefined,undefined,undefined,undefined,undefined,undefined,undefined,undefined,undefined,undefined,undefined,undefined,undefined,
gv9r94h5cc,undefined,undefined,undefined,undefined,82,Know,1,LISA,G,false,1509,undefined,undefined,undefined,undefined,undefined,undefined,undefined,undefined,undefined,undefined,undefined,undefined,undefined,undefined,
gv9r94h5cc,undefined,undefined,undefined,undefined,83,Know,34,EMILY,H,false,2125,undefined,undefined,undefined,undefined,undefined,undefined,undefined,undefined,undefined,undefined,undefined,undefined,undefined,undefined,
gv9r94h5cc,undefined,undefined,undefined,undefined,84,Familiar,17,NA,NA,NA,NA,undefined,undefined,undefined,undefined,undefined,undefined,undefined,undefined,undefined,undefined,undefined,undefined,undefined,undefined,
gv9r94h5cc,undefined,undefined,undefined,undefined,85,Know,21,STEPHANIE,R,false,1293,undefined,undefined,undefined,undefined,undefined,undefined,undefined,undefined,undefined,undefined,undefined,undefined,undefined,undefined,
gv9r94h5cc,undefined,undefined,undefined,undefined,86,Know,24,HANNAH,S,false,1695,undefined,undefined,undefined,undefined,undefined,undefined,undefined,undefined,undefined,undefined,undefined,undefined,undefined,undefined,
gv9r94h5cc,undefined,undefined,undefined,undefined,87,Familiar,8,NA,NA,NA,NA,undefined,undefined,undefined,undefined,undefined,undefined,undefined,undefined,undefined,undefined,undefined,undefined,undefined,undefined,
gv9r94h5cc,undefined,undefined,undefined,undefined,88,Know,9,GRACE,M,false,2107,undefined,undefined,undefined,undefined,undefined,undefined,undefined,undefined,undefined,undefined,undefined,undefined,undefined,undefined,
gv9r94h5cc,undefined,undefined,undefined,undefined,89,Familiar,2,NA,NA,NA,NA,undefined,undefined,undefined,undefined,undefined,undefined,undefined,undefined,undefined,undefined,undefined,undefined,undefined,undefined,
gv9r94h5cc,undefined,undefined,undefined,undefined,90,Know,3,JENNIFER,MARY,false,6433,undefined,undefined,undefined,undefined,undefined,undefined,undefined,undefined,undefined,undefined,undefined,undefined,undefined,undefined,
gv9r94h5cc,undefined,undefined,undefined,undefined,91,Know,33,MEGAN,H,false,6468,undefined,undefined,undefined,undefined,undefined,undefined,undefined,undefined,undefined,undefined,undefined,undefined,undefined,undefined,
gv9r94h5cc,undefined,undefined,undefined,undefined,92,Familiar,25,NA,NA,NA,NA,undefined,undefined,undefined,undefined,undefined,undefined,undefined,undefined,undefined,undefined,undefined,undefined,undefined,undefined,
gv9r94h5cc,undefined,undefined,undefined,undefined,93,Familiar,36,NA,NA,NA,NA,undefined,undefined,undefined,undefined,undefined,undefined,undefined,undefined,undefined,undefined,undefined,undefined,undefined,undefined,
gv9r94h5cc,undefined,undefined,undefined,undefined,94,Know,29,JESSICA,HANNA,false,4547.000000000931,undefined,undefined,undefined,undefined,undefined,undefined,undefined,undefined,undefined,undefined,undefined,undefined,undefined,undefined,
gv9r94h5cc,undefined,undefined,undefined,undefined,95,Familiar,5,NA,NA,NA,NA,undefined,undefined,undefined,undefined,undefined,undefined,undefined,undefined,undefined,undefined,undefined,undefined,undefined,undefined,
gv9r94h5cc,undefined,undefined,undefined,undefined,96,Familiar,16,NA,NA,NA,NA,undefined,undefined,undefined,undefined,undefined,undefined,undefined,undefined,undefined,undefined,undefined,undefined,undefined,undefined,
