SubNum,SubNum_demo,Exp_start_time,Exp_today_date,Exp_today_time,TrialNum,Condition,Face,Name,Response,NameAcc,RespTime,StudyTrialNum,StudyFace,StudyContext,StudyFamCond,TestTrialNum,TestFace,TestContext,TestSDCond,TestFamCond,TestResponse,TestResponseTime,Exp_end_time,Distractor_1_duration,Distractor_2_duration,
0h2nmav5fn,hnnrmwyh06,Fri Oct 23 2020 10:35:02 GMT-0500 (Central Daylight Time),2020-10-23,10:35:2,1,Know,10,PATRICIA,PATRICIA,true,5311.25000026077,1,15,12,0,1,27,30,1,1,1,1985.9850001521409,10:56:33,120511.2099996768,60343.94000004977,
0h2nmav5fn,undefined,undefined,undefined,undefined,2,Familiar,4,NA,NA,NA,NA,2,31,17,1,2,7,26,0,2,1,2068.944999948144,undefined,undefined,undefined,
0h2nmav5fn,undefined,undefined,undefined,undefined,3,Familiar,32,NA,NA,NA,NA,3,35,15,1,3,11,6,0,2,0,1313.9599999412894,undefined,undefined,undefined,
0h2nmav5fn,undefined,undefined,undefined,undefined,4,Know,31,MADISON,MADISON,true,2747.8049998171628,4,3,5,2,4,21,9,0,0,0,1698.3900000341237,undefined,undefined,undefined,
0h2nmav5fn,undefined,undefined,undefined,undefined,5,Know,22,LAUREN,LAUREN,true,2083.229999989271,5,34,25,2,5,8,5,1,2,1,1010.855000000447,undefined,undefined,undefined,
0h2nmav5fn,undefined,undefined,undefined,undefined,6,Familiar,15,NA,NA,NA,NA,6,23,11,0,6,3,2,1,2,1,987.9199997521937,undefined,undefined,undefined,
0h2nmav5fn,undefined,undefined,undefined,undefined,7,Know,9,SOFIA,SOFIA,true,1318.1049996055663,7,5,4,0,7,25,36,1,2,1,1521.5849997475743,undefined,undefined,undefined,
0h2nmav5fn,undefined,undefined,undefined,undefined,8,Know,2,MEGAN,MEGAN,true,1984.2600002884865,8,13,30,1,8,22,20,0,1,0,1071.1099999025464,undefined,undefined,undefined,
0h2nmav5fn,undefined,undefined,undefined,undefined,9,Familiar,19,NA,NA,NA,NA,9,12,28,0,9,6,10,0,2,0,1076.8400002270937,undefined,undefined,undefined,
0h2nmav5fn,undefined,undefined,undefined,undefined,10,Familiar,23,NA,NA,NA,NA,10,16,31,1,10,18,19,0,1,0,2296.0449997335672,undefined,undefined,undefined,
0h2nmav5fn,undefined,undefined,undefined,undefined,11,Know,18,GRACE,GRACE,true,2075.315000023693,11,4,14,0,11,30,18,0,2,0,1394.5649997331202,undefined,undefined,undefined,
0h2nmav5fn,undefined,undefined,undefined,undefined,12,Know,35,AMANDA,AMANDA,true,4067.815000191331,12,26,35,0,12,26,22,1,0,1,2719.9400002136827,undefined,undefined,undefined,
0h2nmav5fn,undefined,undefined,undefined,undefined,13,Familiar,21,NA,NA,NA,NA,13,7,26,2,13,20,33,1,2,1,2831.7100000567734,undefined,undefined,undefined,
0h2nmav5fn,undefined,undefined,undefined,undefined,14,Know,29,ALEXIS,ALEXIS,true,2793.6299997381866,14,27,13,1,14,32,1,0,0,0,917.3799999989569,undefined,undefined,undefined,
0h2nmav5fn,undefined,undefined,undefined,undefined,15,Familiar,26,NA,NA,NA,NA,15,33,22,0,15,13,13,1,1,1,1045.8700000308454,undefined,undefined,undefined,
0h2nmav5fn,undefined,undefined,undefined,undefined,16,Familiar,33,NA,NA,NA,NA,16,19,3,0,16,28,7,1,2,1,972.1299996599555,undefined,undefined,undefined,
0h2nmav5fn,undefined,undefined,undefined,undefined,17,Know,16,REBECCA,REBECCA,true,2040.2699997648597,17,6,10,2,17,33,35,1,0,1,890.6800001859665,undefined,undefined,undefined,
0h2nmav5fn,undefined,undefined,undefined,undefined,18,Know,27,VICTORIA,VICTORIA,true,2762.180000077933,18,29,21,1,18,24,8,0,2,0,944.7099999524653,undefined,undefined,undefined,
0h2nmav5fn,undefined,undefined,undefined,undefined,19,Familiar,12,NA,NA,NA,NA,19,22,20,1,19,2,24,0,1,1,2068.1900000199676,undefined,undefined,undefined,
0h2nmav5fn,undefined,undefined,undefined,undefined,20,Familiar,1,NA,NA,NA,NA,20,36,34,0,20,5,29,1,0,1,1416.5550000034273,undefined,undefined,undefined,
0h2nmav5fn,undefined,undefined,undefined,undefined,21,Know,17,BRITTANY,BRITTANY,true,2915.0350000709295,21,9,16,1,21,14,23,1,2,1,1704.6550000086427,undefined,undefined,undefined,
0h2nmav5fn,undefined,undefined,undefined,undefined,22,Familiar,36,NA,NA,NA,NA,22,17,27,1,22,17,15,1,1,1,998.3350001275539,undefined,undefined,undefined,
0h2nmav5fn,undefined,undefined,undefined,undefined,23,Familiar,5,NA,NA,NA,NA,23,14,7,2,23,35,27,1,1,1,894.4399999454618,undefined,undefined,undefined,
0h2nmav5fn,undefined,undefined,undefined,undefined,24,Know,13,SARAH,SARAH,true,1607.9699997790158,24,24,8,2,24,23,11,0,0,0,1539.6099998615682,undefined,undefined,undefined,
0h2nmav5fn,undefined,undefined,undefined,undefined,25,Familiar,32,NA,NA,NA,NA,25,1,29,0,25,16,21,1,1,1,845.9400003775954,undefined,undefined,undefined,
0h2nmav5fn,undefined,undefined,undefined,undefined,26,Familiar,26,NA,NA,NA,NA,26,20,36,2,26,1,4,1,0,1,1037.8000000491738,undefined,undefined,undefined,
0h2nmav5fn,undefined,undefined,undefined,undefined,27,Know,10,PATRICIA,MADDISON,false,7097.215000074357,27,8,2,2,27,15,12,0,0,0,3764.9050001055,undefined,undefined,undefined,
0h2nmav5fn,undefined,undefined,undefined,undefined,28,Familiar,19,NA,NA,NA,NA,28,18,19,1,28,31,17,0,1,0,1738.5649997740984,undefined,undefined,undefined,
0h2nmav5fn,undefined,undefined,undefined,undefined,29,Familiar,23,NA,NA,NA,NA,29,28,23,2,29,9,16,0,1,0,1174.3700001388788,undefined,undefined,undefined,
0h2nmav5fn,undefined,undefined,undefined,undefined,30,Know,31,MADISON,MADDISON,false,8348.180000204593,30,11,6,2,30,10,32,0,1,0,1185.7000002637506,undefined,undefined,undefined,
0h2nmav5fn,undefined,undefined,undefined,undefined,31,Familiar,36,NA,NA,NA,NA,31,32,1,0,31,29,31,1,1,1,905.2499998360872,undefined,undefined,undefined,
0h2nmav5fn,undefined,undefined,undefined,undefined,32,Know,18,GRACE,LAUREN,false,16025.40499996394,32,30,18,2,32,4,14,0,0,1,4595.710000023246,undefined,undefined,undefined,
0h2nmav5fn,undefined,undefined,undefined,undefined,33,Familiar,1,NA,NA,NA,NA,33,10,32,1,33,36,28,1,0,1,880.3150001913309,undefined,undefined,undefined,
0h2nmav5fn,undefined,undefined,undefined,undefined,34,Know,27,VICTORIA,VICTORIA,true,8090.08999960497,34,21,9,0,34,34,25,0,2,0,1042.1550003811717,undefined,undefined,undefined,
0h2nmav5fn,undefined,undefined,undefined,undefined,35,Know,29,ALEXIS,ALEXIS,true,5646.965000312775,35,2,24,1,35,19,3,0,0,0,1318.7000001780689,undefined,undefined,undefined,
0h2nmav5fn,undefined,undefined,undefined,undefined,36,Familiar,12,NA,NA,NA,NA,36,25,33,2,36,12,34,1,0,1,1366.2399998866022,undefined,undefined,undefined,
0h2nmav5fn,undefined,undefined,undefined,undefined,37,Know,22,LAUREN,LAUREN,true,2687.1899999678135,37,1,29,0,undefined,undefined,undefined,undefined,undefined,undefined,undefined,undefined,undefined,undefined,
0h2nmav5fn,undefined,undefined,undefined,undefined,38,Familiar,33,NA,NA,NA,NA,38,9,16,1,undefined,undefined,undefined,undefined,undefined,undefined,undefined,undefined,undefined,undefined,
0h2nmav5fn,undefined,undefined,undefined,undefined,39,Familiar,15,NA,NA,NA,NA,39,29,21,1,undefined,undefined,undefined,undefined,undefined,undefined,undefined,undefined,undefined,undefined,
0h2nmav5fn,undefined,undefined,undefined,undefined,40,Know,16,REBECCA,AMANDA,false,40565.78000029549,40,33,22,0,undefined,undefined,undefined,undefined,undefined,undefined,undefined,undefined,undefined,undefined,
0h2nmav5fn,undefined,undefined,undefined,undefined,41,Know,9,SOFIA,PATRICIA,false,11048.084999900311,41,28,23,2,undefined,undefined,undefined,undefined,undefined,undefined,undefined,undefined,undefined,undefined,
0h2nmav5fn,undefined,undefined,undefined,undefined,42,Familiar,21,NA,NA,NA,NA,42,34,25,2,undefined,undefined,undefined,undefined,undefined,undefined,undefined,undefined,undefined,undefined,
0h2nmav5fn,undefined,undefined,undefined,undefined,43,Know,35,AMANDA,AMANDA,true,3871.7600000090897,43,26,35,0,undefined,undefined,undefined,undefined,undefined,undefined,undefined,undefined,undefined,undefined,
0h2nmav5fn,undefined,undefined,undefined,undefined,44,Know,2,MEGAN,MEGAN,true,3066.835000179708,44,13,30,1,undefined,undefined,undefined,undefined,undefined,undefined,undefined,undefined,undefined,undefined,
0h2nmav5fn,undefined,undefined,undefined,undefined,45,Familiar,5,NA,NA,NA,NA,45,15,12,0,undefined,undefined,undefined,undefined,undefined,undefined,undefined,undefined,undefined,undefined,
0h2nmav5fn,undefined,undefined,undefined,undefined,46,Familiar,4,NA,NA,NA,NA,46,36,34,0,undefined,undefined,undefined,undefined,undefined,undefined,undefined,undefined,undefined,undefined,
0h2nmav5fn,undefined,undefined,undefined,undefined,47,Know,13,SARAH,SARAH,true,4264.330000150949,47,35,15,1,undefined,undefined,undefined,undefined,undefined,undefined,undefined,undefined,undefined,undefined,
0h2nmav5fn,undefined,undefined,undefined,undefined,48,Know,17,BRITTANY,BRITTANY,true,3595.3800003044307,48,4,14,0,undefined,undefined,undefined,undefined,undefined,undefined,undefined,undefined,undefined,undefined,
0h2nmav5fn,undefined,undefined,undefined,undefined,49,Familiar,4,NA,NA,NA,NA,49,24,8,2,undefined,undefined,undefined,undefined,undefined,undefined,undefined,undefined,undefined,undefined,
0h2nmav5fn,undefined,undefined,undefined,undefined,50,Know,17,BRITTANY,BRITTANY,true,2996.680000331253,50,19,3,0,undefined,undefined,undefined,undefined,undefined,undefined,undefined,undefined,undefined,undefined,
0h2nmav5fn,undefined,undefined,undefined,undefined,51,Familiar,36,NA,NA,NA,NA,51,7,26,2,undefined,undefined,undefined,undefined,undefined,undefined,undefined,undefined,undefined,undefined,
0h2nmav5fn,undefined,undefined,undefined,undefined,52,Know,35,AMANDA,AMANDA,true,2875.3200001083314,52,25,33,2,undefined,undefined,undefined,undefined,undefined,undefined,undefined,undefined,undefined,undefined,
0h2nmav5fn,undefined,undefined,undefined,undefined,53,Know,16,REBECCA,REBECCA,true,3593.279999680817,53,27,13,1,undefined,undefined,undefined,undefined,undefined,undefined,undefined,undefined,undefined,undefined,
0h2nmav5fn,undefined,undefined,undefined,undefined,54,Familiar,15,NA,NA,NA,NA,54,32,1,0,undefined,undefined,undefined,undefined,undefined,undefined,undefined,undefined,undefined,undefined,
0h2nmav5fn,undefined,undefined,undefined,undefined,55,Familiar,33,NA,NA,NA,NA,55,30,18,2,undefined,undefined,undefined,undefined,undefined,undefined,undefined,undefined,undefined,undefined,
0h2nmav5fn,undefined,undefined,undefined,undefined,56,Know,22,LAUREN,LAUREN,true,2300.4649998620152,56,17,27,1,undefined,undefined,undefined,undefined,undefined,undefined,undefined,undefined,undefined,undefined,
0h2nmav5fn,undefined,undefined,undefined,undefined,57,Familiar,1,NA,NA,NA,NA,57,22,20,1,undefined,undefined,undefined,undefined,undefined,undefined,undefined,undefined,undefined,undefined,
0h2nmav5fn,undefined,undefined,undefined,undefined,58,Familiar,23,NA,NA,NA,NA,58,20,36,2,undefined,undefined,undefined,undefined,undefined,undefined,undefined,undefined,undefined,undefined,
0h2nmav5fn,undefined,undefined,undefined,undefined,59,Know,18,GRACE,GRACE,true,5238.135000225157,59,18,19,1,undefined,undefined,undefined,undefined,undefined,undefined,undefined,undefined,undefined,undefined,
0h2nmav5fn,undefined,undefined,undefined,undefined,60,Know,10,PATRICIA,PATRICIA,true,6093.214999884367,60,3,5,2,undefined,undefined,undefined,undefined,undefined,undefined,undefined,undefined,undefined,undefined,
0h2nmav5fn,undefined,undefined,undefined,undefined,61,Familiar,5,NA,NA,NA,NA,61,5,4,0,undefined,undefined,undefined,undefined,undefined,undefined,undefined,undefined,undefined,undefined,
0h2nmav5fn,undefined,undefined,undefined,undefined,62,Familiar,21,NA,NA,NA,NA,62,2,24,1,undefined,undefined,undefined,undefined,undefined,undefined,undefined,undefined,undefined,undefined,
0h2nmav5fn,undefined,undefined,undefined,undefined,63,Know,2,MEGAN,MEGAN,true,2312.81999964267,63,21,9,0,undefined,undefined,undefined,undefined,undefined,undefined,undefined,undefined,undefined,undefined,
0h2nmav5fn,undefined,undefined,undefined,undefined,64,Know,29,ALEXIS,ALEXIS,true,2806.065000128001,64,16,31,1,undefined,undefined,undefined,undefined,undefined,undefined,undefined,undefined,undefined,undefined,
0h2nmav5fn,undefined,undefined,undefined,undefined,65,Familiar,19,NA,NA,NA,NA,65,11,6,2,undefined,undefined,undefined,undefined,undefined,undefined,undefined,undefined,undefined,undefined,
0h2nmav5fn,undefined,undefined,undefined,undefined,66,Familiar,26,NA,NA,NA,NA,66,31,17,1,undefined,undefined,undefined,undefined,undefined,undefined,undefined,undefined,undefined,undefined,
0h2nmav5fn,undefined,undefined,undefined,undefined,67,Know,31,MADISON,GRACE,false,17312.959999777377,67,6,10,2,undefined,undefined,undefined,undefined,undefined,undefined,undefined,undefined,undefined,undefined,
0h2nmav5fn,undefined,undefined,undefined,undefined,68,Know,9,SOFIA,SOFIA,true,3741.2000000476837,68,12,28,0,undefined,undefined,undefined,undefined,undefined,undefined,undefined,undefined,undefined,undefined,
0h2nmav5fn,undefined,undefined,undefined,undefined,69,Familiar,32,NA,NA,NA,NA,69,14,7,2,undefined,undefined,undefined,undefined,undefined,undefined,undefined,undefined,undefined,undefined,
0h2nmav5fn,undefined,undefined,undefined,undefined,70,Familiar,12,NA,NA,NA,NA,70,8,2,2,undefined,undefined,undefined,undefined,undefined,undefined,undefined,undefined,undefined,undefined,
0h2nmav5fn,undefined,undefined,undefined,undefined,71,Know,13,SARAH,SARAH,true,3471.994999796152,71,23,11,0,undefined,undefined,undefined,undefined,undefined,undefined,undefined,undefined,undefined,undefined,
0h2nmav5fn,undefined,undefined,undefined,undefined,72,Know,27,VICTORIA,VICTORIA,true,3473.584999796003,72,10,32,1,undefined,undefined,undefined,undefined,undefined,undefined,undefined,undefined,undefined,undefined,
0h2nmav5fn,undefined,undefined,undefined,undefined,73,Familiar,1,NA,NA,NA,NA,undefined,undefined,undefined,undefined,undefined,undefined,undefined,undefined,undefined,undefined,undefined,undefined,undefined,undefined,
0h2nmav5fn,undefined,undefined,undefined,undefined,74,Know,31,MADISON,MADISON,true,6153.615000192076,undefined,undefined,undefined,undefined,undefined,undefined,undefined,undefined,undefined,undefined,undefined,undefined,undefined,undefined,
0h2nmav5fn,undefined,undefined,undefined,undefined,75,Familiar,12,NA,NA,NA,NA,undefined,undefined,undefined,undefined,undefined,undefined,undefined,undefined,undefined,undefined,undefined,undefined,undefined,undefined,
0h2nmav5fn,undefined,undefined,undefined,undefined,76,Familiar,5,NA,NA,NA,NA,undefined,undefined,undefined,undefined,undefined,undefined,undefined,undefined,undefined,undefined,undefined,undefined,undefined,undefined,
0h2nmav5fn,undefined,undefined,undefined,undefined,77,Know,2,MEGAN,MEGAN,true,2545.5100000835955,undefined,undefined,undefined,undefined,undefined,undefined,undefined,undefined,undefined,undefined,undefined,undefined,undefined,undefined,
0h2nmav5fn,undefined,undefined,undefined,undefined,78,Know,22,LAUREN,LAUREN,true,2479.4699996709824,undefined,undefined,undefined,undefined,undefined,undefined,undefined,undefined,undefined,undefined,undefined,undefined,undefined,undefined,
0h2nmav5fn,undefined,undefined,undefined,undefined,79,Familiar,4,NA,NA,NA,NA,undefined,undefined,undefined,undefined,undefined,undefined,undefined,undefined,undefined,undefined,undefined,undefined,undefined,undefined,
0h2nmav5fn,undefined,undefined,undefined,undefined,80,Familiar,32,NA,NA,NA,NA,undefined,undefined,undefined,undefined,undefined,undefined,undefined,undefined,undefined,undefined,undefined,undefined,undefined,undefined,
0h2nmav5fn,undefined,undefined,undefined,undefined,81,Know,16,REBECCA,REBECCA,true,3280.724999960512,undefined,undefined,undefined,undefined,undefined,undefined,undefined,undefined,undefined,undefined,undefined,undefined,undefined,undefined,
0h2nmav5fn,undefined,undefined,undefined,undefined,82,Familiar,15,NA,NA,NA,NA,undefined,undefined,undefined,undefined,undefined,undefined,undefined,undefined,undefined,undefined,undefined,undefined,undefined,undefined,
0h2nmav5fn,undefined,undefined,undefined,undefined,83,Familiar,21,NA,NA,NA,NA,undefined,undefined,undefined,undefined,undefined,undefined,undefined,undefined,undefined,undefined,undefined,undefined,undefined,undefined,
0h2nmav5fn,undefined,undefined,undefined,undefined,84,Know,18,GRACE,GRACE,true,5366.249999962747,undefined,undefined,undefined,undefined,undefined,undefined,undefined,undefined,undefined,undefined,undefined,undefined,undefined,undefined,
0h2nmav5fn,undefined,undefined,undefined,undefined,85,Know,35,AMANDA,AMANDA,true,3962.6699998043478,undefined,undefined,undefined,undefined,undefined,undefined,undefined,undefined,undefined,undefined,undefined,undefined,undefined,undefined,
0h2nmav5fn,undefined,undefined,undefined,undefined,86,Familiar,26,NA,NA,NA,NA,undefined,undefined,undefined,undefined,undefined,undefined,undefined,undefined,undefined,undefined,undefined,undefined,undefined,undefined,
0h2nmav5fn,undefined,undefined,undefined,undefined,87,Know,10,PATRICIA,PATRICIA,true,3636.4949997514486,undefined,undefined,undefined,undefined,undefined,undefined,undefined,undefined,undefined,undefined,undefined,undefined,undefined,undefined,
0h2nmav5fn,undefined,undefined,undefined,undefined,88,Familiar,19,NA,NA,NA,NA,undefined,undefined,undefined,undefined,undefined,undefined,undefined,undefined,undefined,undefined,undefined,undefined,undefined,undefined,
0h2nmav5fn,undefined,undefined,undefined,undefined,89,Know,17,BRITTANY,BRITTANY,true,3280.030000023544,undefined,undefined,undefined,undefined,undefined,undefined,undefined,undefined,undefined,undefined,undefined,undefined,undefined,undefined,
0h2nmav5fn,undefined,undefined,undefined,undefined,90,Familiar,23,NA,NA,NA,NA,undefined,undefined,undefined,undefined,undefined,undefined,undefined,undefined,undefined,undefined,undefined,undefined,undefined,undefined,
0h2nmav5fn,undefined,undefined,undefined,undefined,91,Know,27,VICTORIA,VICTORIA,true,5558.664999902248,undefined,undefined,undefined,undefined,undefined,undefined,undefined,undefined,undefined,undefined,undefined,undefined,undefined,undefined,
0h2nmav5fn,undefined,undefined,undefined,undefined,92,Know,29,ALEXIS,ALEXIS,true,4133.990000002086,undefined,undefined,undefined,undefined,undefined,undefined,undefined,undefined,undefined,undefined,undefined,undefined,undefined,undefined,
0h2nmav5fn,undefined,undefined,undefined,undefined,93,Familiar,33,NA,NA,NA,NA,undefined,undefined,undefined,undefined,undefined,undefined,undefined,undefined,undefined,undefined,undefined,undefined,undefined,undefined,
0h2nmav5fn,undefined,undefined,undefined,undefined,94,Know,9,SOFIA,PATRICA,false,8467.385000083596,undefined,undefined,undefined,undefined,undefined,undefined,undefined,undefined,undefined,undefined,undefined,undefined,undefined,undefined,
0h2nmav5fn,undefined,undefined,undefined,undefined,95,Know,13,SARAH,SARAH,true,2185.565000399947,undefined,undefined,undefined,undefined,undefined,undefined,undefined,undefined,undefined,undefined,undefined,undefined,undefined,undefined,
0h2nmav5fn,undefined,undefined,undefined,undefined,96,Familiar,36,NA,NA,NA,NA,undefined,undefined,undefined,undefined,undefined,undefined,undefined,undefined,undefined,undefined,undefined,undefined,undefined,undefined,
