SubNum,SubNum_demo,Exp_start_time,Exp_today_date,Exp_today_time,TrialNum,Condition,Face,Name,Response,NameAcc,RespTime,StudyTrialNum,StudyFace,StudyContext,StudyFamCond,TestTrialNum,TestFace,TestContext,TestSDCond,TestFamCond,TestResponse,TestResponseTime,Exp_end_time,Distractor_1_duration,Distractor_2_duration,
jdphqdbwlf,8ejh1e3zvp,Wed Oct 21 2020 22:34:05 GMT-0500 (Central Daylight Time),2020-10-21,22:34:5,1,Familiar,1,NA,NA,NA,NA,1,30,25,0,1,32,25,1,0,1,2283.370000019204,22:57:50,125131.91499997629,61882.25500000408,
jdphqdbwlf,undefined,undefined,undefined,undefined,2,Familiar,14,NA,NA,NA,NA,2,28,10,1,2,13,23,0,0,0,1707.025000010617,undefined,undefined,undefined,
jdphqdbwlf,undefined,undefined,undefined,undefined,3,Know,19,SAMANTHA,SAMANTHA,true,8344.220000028145,3,13,23,0,3,34,1,1,2,1,1138.405000034254,undefined,undefined,undefined,
jdphqdbwlf,undefined,undefined,undefined,undefined,4,Familiar,33,NA,NA,NA,NA,4,6,2,1,4,4,22,1,1,1,3282.889999973122,undefined,undefined,undefined,
jdphqdbwlf,undefined,undefined,undefined,undefined,5,Know,27,STEPHANIE,STEPHANIE,true,3005.8150000404567,5,25,26,1,5,12,18,0,1,0,1154.3349999701604,undefined,undefined,undefined,
jdphqdbwlf,undefined,undefined,undefined,undefined,6,Familiar,13,NA,NA,NA,NA,6,2,1,2,6,16,20,0,0,0,3282.8999999910593,undefined,undefined,undefined,
jdphqdbwlf,undefined,undefined,undefined,undefined,7,Know,15,REBECCA,REBECCA,true,5499.669999990147,7,19,17,1,7,19,17,0,1,0,2393.4749999898486,undefined,undefined,undefined,
jdphqdbwlf,undefined,undefined,undefined,undefined,8,Familiar,24,NA,NA,NA,NA,8,15,30,1,8,2,7,1,2,1,1458.6199999903329,undefined,undefined,undefined,
jdphqdbwlf,undefined,undefined,undefined,undefined,9,Familiar,16,NA,NA,NA,NA,9,32,21,0,9,30,21,1,0,1,1790.949999995064,undefined,undefined,undefined,
jdphqdbwlf,undefined,undefined,undefined,undefined,10,Know,9,ASHLEY,ASHLEY,true,4126.519999990705,10,27,32,1,10,6,2,0,1,0,1317.5650000339374,undefined,undefined,undefined,
jdphqdbwlf,undefined,undefined,undefined,undefined,11,Know,6,COURTNEY,COURTNEY,true,5016.120000043884,11,16,20,0,11,3,16,1,1,1,1553.4249999909662,undefined,undefined,undefined,
jdphqdbwlf,undefined,undefined,undefined,undefined,12,Familiar,5,NA,NA,NA,NA,12,34,7,2,12,25,35,1,1,1,1551.4700000057928,undefined,undefined,undefined,
jdphqdbwlf,undefined,undefined,undefined,undefined,13,Know,12,AUDREY,AUDREY,true,3600.4099999554455,13,5,11,0,13,21,12,0,2,0,3934.494999994058,undefined,undefined,undefined,
jdphqdbwlf,undefined,undefined,undefined,undefined,14,Know,29,ZOEY,ZOEY,true,6805.4750000010245,14,7,15,2,14,24,24,0,0,0,1283.6499999975786,undefined,undefined,undefined,
jdphqdbwlf,undefined,undefined,undefined,undefined,15,Familiar,18,NA,NA,NA,NA,15,22,31,2,15,27,32,0,1,0,1944.9449999956414,undefined,undefined,undefined,
jdphqdbwlf,undefined,undefined,undefined,undefined,16,Know,3,HANNAH,HANNAH,true,5898.335000034422,16,29,36,1,16,35,26,1,1,1,1241.3700000033714,undefined,undefined,undefined,
jdphqdbwlf,undefined,undefined,undefined,undefined,17,Know,35,SARAH,SARAH,true,4808.415000035893,17,24,24,0,17,33,6,0,0,0,1293.714999977965,undefined,undefined,undefined,
jdphqdbwlf,undefined,undefined,undefined,undefined,18,Familiar,32,NA,NA,NA,NA,18,10,27,2,18,9,19,0,1,0,1026.929999992717,undefined,undefined,undefined,
jdphqdbwlf,undefined,undefined,undefined,undefined,19,Familiar,17,NA,NA,NA,NA,19,26,3,2,19,29,10,1,1,1,1159.490000049118,undefined,undefined,undefined,
jdphqdbwlf,undefined,undefined,undefined,undefined,20,Know,28,MARGARET,MARGRET,false,3171.0350000066683,20,23,8,0,20,17,29,1,0,1,1161.7900000419468,undefined,undefined,undefined,
jdphqdbwlf,undefined,undefined,undefined,undefined,21,Know,4,MARY,MARY,true,4028.4950000350364,21,31,14,2,21,18,13,1,0,0,2786.610000010114,undefined,undefined,undefined,
jdphqdbwlf,undefined,undefined,undefined,undefined,22,Familiar,23,NA,NA,NA,NA,22,9,19,1,22,1,4,0,0,0,1408.045000047423,undefined,undefined,undefined,
jdphqdbwlf,undefined,undefined,undefined,undefined,23,Know,25,ALYSSA,ALYSSA,true,3197.8849999723025,23,12,18,1,23,26,3,0,2,0,1560.585000028368,undefined,undefined,undefined,
jdphqdbwlf,undefined,undefined,undefined,undefined,24,Familiar,30,NA,NA,NA,NA,24,11,33,2,24,11,33,0,2,0,1414.7399999783374,undefined,undefined,undefined,
jdphqdbwlf,undefined,undefined,undefined,undefined,25,Know,15,REBECCA,REBECCA,true,6111.734999984037,25,14,9,0,25,31,14,0,2,0,2102.744999981951,undefined,undefined,undefined,
jdphqdbwlf,undefined,undefined,undefined,undefined,26,Know,3,HANNAH,STEPHANIE,false,5190.960000036284,26,20,5,2,26,36,31,1,2,0,1345.5700000049546,undefined,undefined,undefined,
jdphqdbwlf,undefined,undefined,undefined,undefined,27,Familiar,14,NA,NA,NA,NA,27,1,4,0,27,7,15,0,2,0,1365.5499999877065,undefined,undefined,undefined,
jdphqdbwlf,undefined,undefined,undefined,undefined,28,Know,6,COURTNEY,SAMANTHA,false,5532.565000001341,28,18,29,0,28,22,28,1,2,0,1083.9600000181235,undefined,undefined,undefined,
jdphqdbwlf,undefined,undefined,undefined,undefined,29,Familiar,30,NA,NA,NA,NA,29,8,34,2,29,5,8,1,0,0,2243.3750000200234,undefined,undefined,undefined,
jdphqdbwlf,undefined,undefined,undefined,undefined,30,Familiar,32,NA,NA,NA,NA,30,33,6,0,30,20,5,0,2,0,878.035000001546,undefined,undefined,undefined,
jdphqdbwlf,undefined,undefined,undefined,undefined,31,Know,28,MARGARET,STEPHANIE,false,10221.945000055712,31,35,35,1,31,15,30,0,1,0,1752.570000011474,undefined,undefined,undefined,
jdphqdbwlf,undefined,undefined,undefined,undefined,32,Know,12,AUDREY,AUDREY,true,3968.315000005532,32,4,16,1,32,14,9,0,0,0,1142.6249999785796,undefined,undefined,undefined,
jdphqdbwlf,undefined,undefined,undefined,undefined,33,Familiar,33,NA,NA,NA,NA,33,21,12,2,33,10,34,1,2,1,3625.9399999980815,undefined,undefined,undefined,
jdphqdbwlf,undefined,undefined,undefined,undefined,34,Familiar,5,NA,NA,NA,NA,34,3,22,1,34,8,27,1,2,0,1939.955000008922,undefined,undefined,undefined,
jdphqdbwlf,undefined,undefined,undefined,undefined,35,Know,9,ASHLEY,SAMANTHA,false,10641.759999969508,35,36,28,2,35,23,11,1,0,1,2746.1650000186637,undefined,undefined,undefined,
jdphqdbwlf,undefined,undefined,undefined,undefined,36,Familiar,18,NA,NA,NA,NA,36,17,13,0,36,28,36,1,1,1,2538.5600000154227,undefined,undefined,undefined,
jdphqdbwlf,undefined,undefined,undefined,undefined,37,Know,25,ALYSSA,SAMANTHA,false,8603.424999979325,37,17,13,0,undefined,undefined,undefined,undefined,undefined,undefined,undefined,undefined,undefined,undefined,
jdphqdbwlf,undefined,undefined,undefined,undefined,38,Familiar,13,NA,NA,NA,NA,38,28,10,1,undefined,undefined,undefined,undefined,undefined,undefined,undefined,undefined,undefined,undefined,
jdphqdbwlf,undefined,undefined,undefined,undefined,39,Familiar,1,NA,NA,NA,NA,39,25,26,1,undefined,undefined,undefined,undefined,undefined,undefined,undefined,undefined,undefined,undefined,
jdphqdbwlf,undefined,undefined,undefined,undefined,40,Know,35,SARAH,HANNAH,false,6761.750000005122,40,8,34,2,undefined,undefined,undefined,undefined,undefined,undefined,undefined,undefined,undefined,undefined,
jdphqdbwlf,undefined,undefined,undefined,undefined,41,Familiar,24,NA,NA,NA,NA,41,34,7,2,undefined,undefined,undefined,undefined,undefined,undefined,undefined,undefined,undefined,undefined,
jdphqdbwlf,undefined,undefined,undefined,undefined,42,Know,27,STEPHANIE,SAMANTHA,false,3786.2650000024587,42,9,19,1,undefined,undefined,undefined,undefined,undefined,undefined,undefined,undefined,undefined,undefined,
jdphqdbwlf,undefined,undefined,undefined,undefined,43,Know,4,MARY,STEPHANIE,false,8049.469999969006,43,21,12,2,undefined,undefined,undefined,undefined,undefined,undefined,undefined,undefined,undefined,undefined,
jdphqdbwlf,undefined,undefined,undefined,undefined,44,Familiar,17,NA,NA,NA,NA,44,1,4,0,undefined,undefined,undefined,undefined,undefined,undefined,undefined,undefined,undefined,undefined,
jdphqdbwlf,undefined,undefined,undefined,undefined,45,Know,19,SAMANTHA,REBECCA,false,11471.079999988433,45,24,24,0,undefined,undefined,undefined,undefined,undefined,undefined,undefined,undefined,undefined,undefined,
jdphqdbwlf,undefined,undefined,undefined,undefined,46,Familiar,16,NA,NA,NA,NA,46,10,27,2,undefined,undefined,undefined,undefined,undefined,undefined,undefined,undefined,undefined,undefined,
jdphqdbwlf,undefined,undefined,undefined,undefined,47,Familiar,23,NA,NA,NA,NA,47,30,25,0,undefined,undefined,undefined,undefined,undefined,undefined,undefined,undefined,undefined,undefined,
jdphqdbwlf,undefined,undefined,undefined,undefined,48,Know,29,ZOEY,SAMANTHA,false,13868.269999977201,48,36,28,2,undefined,undefined,undefined,undefined,undefined,undefined,undefined,undefined,undefined,undefined,
jdphqdbwlf,undefined,undefined,undefined,undefined,49,Familiar,14,NA,NA,NA,NA,49,27,32,1,undefined,undefined,undefined,undefined,undefined,undefined,undefined,undefined,undefined,undefined,
jdphqdbwlf,undefined,undefined,undefined,undefined,50,Know,25,ALYSSA,SAMANTHA,false,5582.369999960065,50,3,22,1,undefined,undefined,undefined,undefined,undefined,undefined,undefined,undefined,undefined,undefined,
jdphqdbwlf,undefined,undefined,undefined,undefined,51,Familiar,16,NA,NA,NA,NA,51,26,3,2,undefined,undefined,undefined,undefined,undefined,undefined,undefined,undefined,undefined,undefined,
jdphqdbwlf,undefined,undefined,undefined,undefined,52,Know,29,ZOEY,ALYSSA,false,19138.919999997597,52,16,20,0,undefined,undefined,undefined,undefined,undefined,undefined,undefined,undefined,undefined,undefined,
jdphqdbwlf,undefined,undefined,undefined,undefined,53,Know,27,STEPHANIE,SAMANTHA,false,5428.83999994956,53,12,18,1,undefined,undefined,undefined,undefined,undefined,undefined,undefined,undefined,undefined,undefined,
jdphqdbwlf,undefined,undefined,undefined,undefined,54,Familiar,1,NA,NA,NA,NA,54,29,36,1,undefined,undefined,undefined,undefined,undefined,undefined,undefined,undefined,undefined,undefined,
jdphqdbwlf,undefined,undefined,undefined,undefined,55,Know,6,COURTNEY,SAMANTHA,false,6644.5150000508875,55,32,21,0,undefined,undefined,undefined,undefined,undefined,undefined,undefined,undefined,undefined,undefined,
jdphqdbwlf,undefined,undefined,undefined,undefined,56,Familiar,5,NA,NA,NA,NA,56,23,8,0,undefined,undefined,undefined,undefined,undefined,undefined,undefined,undefined,undefined,undefined,
jdphqdbwlf,undefined,undefined,undefined,undefined,57,Know,9,ASHLEY,COURTNEY,false,5875.059999991208,57,35,35,1,undefined,undefined,undefined,undefined,undefined,undefined,undefined,undefined,undefined,undefined,
jdphqdbwlf,undefined,undefined,undefined,undefined,58,Know,3,HANNAH,COURTNEY,false,11570.814999984577,58,7,15,2,undefined,undefined,undefined,undefined,undefined,undefined,undefined,undefined,undefined,undefined,
jdphqdbwlf,undefined,undefined,undefined,undefined,59,Familiar,30,NA,NA,NA,NA,59,22,31,2,undefined,undefined,undefined,undefined,undefined,undefined,undefined,undefined,undefined,undefined,
jdphqdbwlf,undefined,undefined,undefined,undefined,60,Know,19,SAMANTHA,SAMANTHA,true,4704.589999979362,60,33,6,0,undefined,undefined,undefined,undefined,undefined,undefined,undefined,undefined,undefined,undefined,
jdphqdbwlf,undefined,undefined,undefined,undefined,61,Familiar,32,NA,NA,NA,NA,61,6,2,1,undefined,undefined,undefined,undefined,undefined,undefined,undefined,undefined,undefined,undefined,
jdphqdbwlf,undefined,undefined,undefined,undefined,62,Familiar,33,NA,NA,NA,NA,62,18,29,0,undefined,undefined,undefined,undefined,undefined,undefined,undefined,undefined,undefined,undefined,
jdphqdbwlf,undefined,undefined,undefined,undefined,63,Know,28,MARGARET,COURTNEY,false,11480.125000001863,63,5,11,0,undefined,undefined,undefined,undefined,undefined,undefined,undefined,undefined,undefined,undefined,
jdphqdbwlf,undefined,undefined,undefined,undefined,64,Know,12,AUDREY,AUDREY,true,5691.954999987502,64,31,14,2,undefined,undefined,undefined,undefined,undefined,undefined,undefined,undefined,undefined,undefined,
jdphqdbwlf,undefined,undefined,undefined,undefined,65,Familiar,24,NA,NA,NA,NA,65,11,33,2,undefined,undefined,undefined,undefined,undefined,undefined,undefined,undefined,undefined,undefined,
jdphqdbwlf,undefined,undefined,undefined,undefined,66,Familiar,23,NA,NA,NA,NA,66,15,30,1,undefined,undefined,undefined,undefined,undefined,undefined,undefined,undefined,undefined,undefined,
jdphqdbwlf,undefined,undefined,undefined,undefined,67,Know,35,SARAH,CHLOE,false,6446.54500001343,67,4,16,1,undefined,undefined,undefined,undefined,undefined,undefined,undefined,undefined,undefined,undefined,
jdphqdbwlf,undefined,undefined,undefined,undefined,68,Know,15,REBECCA,MARGARET,false,10378.574999980628,68,14,9,0,undefined,undefined,undefined,undefined,undefined,undefined,undefined,undefined,undefined,undefined,
jdphqdbwlf,undefined,undefined,undefined,undefined,69,Familiar,13,NA,NA,NA,NA,69,19,17,1,undefined,undefined,undefined,undefined,undefined,undefined,undefined,undefined,undefined,undefined,
jdphqdbwlf,undefined,undefined,undefined,undefined,70,Know,4,MARY,ASHLEY,false,13496.314999996684,70,20,5,2,undefined,undefined,undefined,undefined,undefined,undefined,undefined,undefined,undefined,undefined,
jdphqdbwlf,undefined,undefined,undefined,undefined,71,Familiar,18,NA,NA,NA,NA,71,2,1,2,undefined,undefined,undefined,undefined,undefined,undefined,undefined,undefined,undefined,undefined,
jdphqdbwlf,undefined,undefined,undefined,undefined,72,Familiar,17,NA,NA,NA,NA,72,13,23,0,undefined,undefined,undefined,undefined,undefined,undefined,undefined,undefined,undefined,undefined,
jdphqdbwlf,undefined,undefined,undefined,undefined,73,Know,25,ALYSSA,REBECCA,false,9803.649999957997,undefined,undefined,undefined,undefined,undefined,undefined,undefined,undefined,undefined,undefined,undefined,undefined,undefined,undefined,
jdphqdbwlf,undefined,undefined,undefined,undefined,74,Know,12,AUDREY,AUDREY,true,2862.075000011828,undefined,undefined,undefined,undefined,undefined,undefined,undefined,undefined,undefined,undefined,undefined,undefined,undefined,undefined,
jdphqdbwlf,undefined,undefined,undefined,undefined,75,Familiar,13,NA,NA,NA,NA,undefined,undefined,undefined,undefined,undefined,undefined,undefined,undefined,undefined,undefined,undefined,undefined,undefined,undefined,
jdphqdbwlf,undefined,undefined,undefined,undefined,76,Know,6,COURTNEY,ALYSSA,false,6527.020000037737,undefined,undefined,undefined,undefined,undefined,undefined,undefined,undefined,undefined,undefined,undefined,undefined,undefined,undefined,
jdphqdbwlf,undefined,undefined,undefined,undefined,77,Familiar,16,NA,NA,NA,NA,undefined,undefined,undefined,undefined,undefined,undefined,undefined,undefined,undefined,undefined,undefined,undefined,undefined,undefined,
jdphqdbwlf,undefined,undefined,undefined,undefined,78,Familiar,5,NA,NA,NA,NA,undefined,undefined,undefined,undefined,undefined,undefined,undefined,undefined,undefined,undefined,undefined,undefined,undefined,undefined,
jdphqdbwlf,undefined,undefined,undefined,undefined,79,Know,19,SAMANTHA,SAMANTHA,true,7099.435000040103,undefined,undefined,undefined,undefined,undefined,undefined,undefined,undefined,undefined,undefined,undefined,undefined,undefined,undefined,
jdphqdbwlf,undefined,undefined,undefined,undefined,80,Know,3,HANNAH,KATIE,false,9771.360000013374,undefined,undefined,undefined,undefined,undefined,undefined,undefined,undefined,undefined,undefined,undefined,undefined,undefined,undefined,
jdphqdbwlf,undefined,undefined,undefined,undefined,81,Familiar,1,NA,NA,NA,NA,undefined,undefined,undefined,undefined,undefined,undefined,undefined,undefined,undefined,undefined,undefined,undefined,undefined,undefined,
jdphqdbwlf,undefined,undefined,undefined,undefined,82,Know,15,REBECCA,REBECCA,true,3930.1500000292435,undefined,undefined,undefined,undefined,undefined,undefined,undefined,undefined,undefined,undefined,undefined,undefined,undefined,undefined,
jdphqdbwlf,undefined,undefined,undefined,undefined,83,Familiar,23,NA,NA,NA,NA,undefined,undefined,undefined,undefined,undefined,undefined,undefined,undefined,undefined,undefined,undefined,undefined,undefined,undefined,
jdphqdbwlf,undefined,undefined,undefined,undefined,84,Know,28,MARGARET,HEATHER,false,6656.095000042114,undefined,undefined,undefined,undefined,undefined,undefined,undefined,undefined,undefined,undefined,undefined,undefined,undefined,undefined,
jdphqdbwlf,undefined,undefined,undefined,undefined,85,Familiar,32,NA,NA,NA,NA,undefined,undefined,undefined,undefined,undefined,undefined,undefined,undefined,undefined,undefined,undefined,undefined,undefined,undefined,
jdphqdbwlf,undefined,undefined,undefined,undefined,86,Familiar,18,NA,NA,NA,NA,undefined,undefined,undefined,undefined,undefined,undefined,undefined,undefined,undefined,undefined,undefined,undefined,undefined,undefined,
jdphqdbwlf,undefined,undefined,undefined,undefined,87,Know,9,ASHLEY,ASHLEY,true,8077.604999998584,undefined,undefined,undefined,undefined,undefined,undefined,undefined,undefined,undefined,undefined,undefined,undefined,undefined,undefined,
jdphqdbwlf,undefined,undefined,undefined,undefined,88,Know,4,MARY,COURTNEY,false,11242.365000012796,undefined,undefined,undefined,undefined,undefined,undefined,undefined,undefined,undefined,undefined,undefined,undefined,undefined,undefined,
jdphqdbwlf,undefined,undefined,undefined,undefined,89,Familiar,14,NA,NA,NA,NA,undefined,undefined,undefined,undefined,undefined,undefined,undefined,undefined,undefined,undefined,undefined,undefined,undefined,undefined,
jdphqdbwlf,undefined,undefined,undefined,undefined,90,Familiar,30,NA,NA,NA,NA,undefined,undefined,undefined,undefined,undefined,undefined,undefined,undefined,undefined,undefined,undefined,undefined,undefined,undefined,
jdphqdbwlf,undefined,undefined,undefined,undefined,91,Know,29,ZOEY,HEATHER,false,3705.5850000469945,undefined,undefined,undefined,undefined,undefined,undefined,undefined,undefined,undefined,undefined,undefined,undefined,undefined,undefined,
jdphqdbwlf,undefined,undefined,undefined,undefined,92,Know,27,STEPHANIE,HEATHER,false,2917.604999965988,undefined,undefined,undefined,undefined,undefined,undefined,undefined,undefined,undefined,undefined,undefined,undefined,undefined,undefined,
jdphqdbwlf,undefined,undefined,undefined,undefined,93,Familiar,33,NA,NA,NA,NA,undefined,undefined,undefined,undefined,undefined,undefined,undefined,undefined,undefined,undefined,undefined,undefined,undefined,undefined,
jdphqdbwlf,undefined,undefined,undefined,undefined,94,Familiar,24,NA,NA,NA,NA,undefined,undefined,undefined,undefined,undefined,undefined,undefined,undefined,undefined,undefined,undefined,undefined,undefined,undefined,
jdphqdbwlf,undefined,undefined,undefined,undefined,95,Know,35,SARAH,KATIE,false,24742.715000000317,undefined,undefined,undefined,undefined,undefined,undefined,undefined,undefined,undefined,undefined,undefined,undefined,undefined,undefined,
jdphqdbwlf,undefined,undefined,undefined,undefined,96,Familiar,17,NA,NA,NA,NA,undefined,undefined,undefined,undefined,undefined,undefined,undefined,undefined,undefined,undefined,undefined,undefined,undefined,undefined,
