SubNum,SubNum_demo,Exp_start_time,Exp_today_date,Exp_today_time,TrialNum,Condition,Face,Name,Response,NameAcc,RespTime,StudyTrialNum,StudyFace,StudyContext,StudyFamCond,TestTrialNum,TestFace,TestContext,TestSDCond,TestFamCond,TestResponse,TestResponseTime,Exp_end_time,Distractor_1_duration,Distractor_2_duration,
zurbd4xejv,ltc3jx179x,Wed Oct 07 2020 23:59:55 GMT-0500 (Central Daylight Time),2020-10-7,23:59:55,1,Know,12,LISA,LISA,true,7260.790000203997,1,2,14,1,1,34,8,0,2,0,2940.415000077337,0:22:13,123378.30500025302,64072.72500032559,
zurbd4xejv,undefined,undefined,undefined,undefined,2,Know,36,NICOLE,NICOLE,true,6997.630000114441,2,12,35,1,2,12,35,0,1,0,1066.1399997770786,undefined,undefined,undefined,
zurbd4xejv,undefined,undefined,undefined,undefined,3,Familiar,25,NA,NA,NA,NA,3,13,23,0,3,19,13,1,2,1,6315.119999926537,undefined,undefined,undefined,
zurbd4xejv,undefined,undefined,undefined,undefined,4,Know,32,AUDREY,AUDREY,true,5791.000000201166,4,5,22,2,4,20,17,1,2,1,1700.0850001350045,undefined,undefined,undefined,
zurbd4xejv,undefined,undefined,undefined,undefined,5,Familiar,1,NA,NA,NA,NA,5,14,2,1,5,7,7,1,2,1,1164.3250002525747,undefined,undefined,undefined,
zurbd4xejv,undefined,undefined,undefined,undefined,6,Familiar,21,NA,NA,NA,NA,6,7,33,2,6,9,25,0,2,1,4422.809999901801,undefined,undefined,undefined,
zurbd4xejv,undefined,undefined,undefined,undefined,7,Know,27,MARGARET,MARGARET,true,4506.010000128299,7,8,18,1,7,29,4,1,0,1,1273.1650001369417,undefined,undefined,undefined,
zurbd4xejv,undefined,undefined,undefined,undefined,8,Familiar,23,NA,NA,NA,NA,8,24,12,0,8,31,10,1,1,1,1115.359999705106,undefined,undefined,undefined,
zurbd4xejv,undefined,undefined,undefined,undefined,9,Know,6,BRIANNA,BRIANNA,true,5118.995000142604,9,30,10,1,9,36,32,0,1,0,1444.6350000798702,undefined,undefined,undefined,
zurbd4xejv,undefined,undefined,undefined,undefined,10,Familiar,13,NA,NA,NA,NA,10,29,15,0,10,35,15,1,0,1,1125.2999999560416,undefined,undefined,undefined,
zurbd4xejv,undefined,undefined,undefined,undefined,11,Familiar,18,NA,NA,NA,NA,11,6,19,1,11,15,33,1,2,1,2410.3650003671646,undefined,undefined,undefined,
zurbd4xejv,undefined,undefined,undefined,undefined,12,Know,26,EMILY,EMILY,true,2718.505000229925,12,15,7,2,12,30,31,1,1,1,2913.8100002892315,undefined,undefined,undefined,
zurbd4xejv,undefined,undefined,undefined,undefined,13,Know,2,VICTORIA,VICTORIA,true,3979.1149999946356,13,27,27,1,13,27,27,0,1,0,1633.6799999698997,undefined,undefined,undefined,
zurbd4xejv,undefined,undefined,undefined,undefined,14,Familiar,29,NA,NA,NA,NA,14,11,9,2,14,6,19,0,1,0,945.8499997854233,undefined,undefined,undefined,
zurbd4xejv,undefined,undefined,undefined,undefined,15,Know,10,GRACE,GRACE,true,2749.9599996954203,15,3,21,0,15,21,36,0,0,0,1602.760000154376,undefined,undefined,undefined,
zurbd4xejv,undefined,undefined,undefined,undefined,16,Know,14,BETTY,BETTY,true,2424.064999911934,16,18,16,0,16,26,5,0,1,0,911.3349998369813,undefined,undefined,undefined,
zurbd4xejv,undefined,undefined,undefined,undefined,17,Familiar,16,NA,NA,NA,NA,17,22,1,2,17,25,24,0,0,0,4212.809999939054,undefined,undefined,undefined,
zurbd4xejv,undefined,undefined,undefined,undefined,18,Familiar,24,NA,NA,NA,NA,18,28,3,0,18,14,28,1,1,1,1153.5749998874962,undefined,undefined,undefined,
zurbd4xejv,undefined,undefined,undefined,undefined,19,Know,8,MARY,MARY,true,2703.1600000336766,19,19,17,2,19,11,20,1,2,1,3083.680000156164,undefined,undefined,undefined,
zurbd4xejv,undefined,undefined,undefined,undefined,20,Familiar,28,NA,NA,NA,NA,20,32,30,1,20,10,2,1,1,1,1372.6500002667308,undefined,undefined,undefined,
zurbd4xejv,undefined,undefined,undefined,undefined,21,Know,30,MADISON,MADISON,true,3591.115000192076,21,21,36,0,21,33,9,1,2,0,2644.6050000377,undefined,undefined,undefined,
zurbd4xejv,undefined,undefined,undefined,undefined,22,Familiar,35,NA,NA,NA,NA,22,9,25,2,22,5,22,0,2,0,2882.8949998132885,undefined,undefined,undefined,
zurbd4xejv,undefined,undefined,undefined,undefined,23,Know,31,ALYSSA,ALYSSA,true,2552.5000002235174,23,35,4,0,23,17,29,0,2,0,2127.109999768436,undefined,undefined,undefined,
zurbd4xejv,undefined,undefined,undefined,undefined,24,Familiar,3,NA,NA,NA,NA,24,31,31,1,24,22,1,0,2,0,1397.0349999144673,undefined,undefined,undefined,
zurbd4xejv,undefined,undefined,undefined,undefined,25,Familiar,21,NA,NA,NA,NA,25,1,6,0,25,4,34,0,2,0,1409.6300001256168,undefined,undefined,undefined,
zurbd4xejv,undefined,undefined,undefined,undefined,26,Know,14,BETTY,ALYSSA,false,10467.790000140667,26,17,29,2,26,32,30,0,1,0,1224.3900001049042,undefined,undefined,undefined,
zurbd4xejv,undefined,undefined,undefined,undefined,27,Familiar,24,NA,NA,NA,NA,27,34,8,2,27,18,16,0,0,0,1820.625000167638,undefined,undefined,undefined,
zurbd4xejv,undefined,undefined,undefined,undefined,28,Know,27,MARGARET,NICOLE,false,4109.235000330955,28,16,11,0,28,1,6,0,0,0,1021.6399999335408,undefined,undefined,undefined,
zurbd4xejv,undefined,undefined,undefined,undefined,29,Familiar,29,NA,NA,NA,NA,29,25,24,0,29,3,11,1,0,1,1215.4299998655915,undefined,undefined,undefined,
zurbd4xejv,undefined,undefined,undefined,undefined,30,Familiar,3,NA,NA,NA,NA,30,10,28,1,30,23,26,0,0,0,2055.269999895245,undefined,undefined,undefined,
zurbd4xejv,undefined,undefined,undefined,undefined,31,Know,2,VICTORIA,EML\ILY,false,5264.634999912232,31,23,26,0,31,13,23,0,0,0,2074.2599996738136,undefined,undefined,undefined,
zurbd4xejv,undefined,undefined,undefined,undefined,32,Know,8,MARY,NICOLE,false,5548.314999789,32,36,32,1,32,16,21,1,0,1,1087.9999999888241,undefined,undefined,undefined,
zurbd4xejv,undefined,undefined,undefined,undefined,33,Familiar,35,NA,NA,NA,NA,33,20,13,2,33,24,3,1,0,0,10128.81000014022,undefined,undefined,undefined,
zurbd4xejv,undefined,undefined,undefined,undefined,34,Familiar,18,NA,NA,NA,NA,34,4,34,2,34,28,12,1,0,1,1013.9700002036989,undefined,undefined,undefined,
zurbd4xejv,undefined,undefined,undefined,undefined,35,Know,26,EMILY,EMILY,true,4473.125000018626,35,26,5,1,35,8,14,1,1,1,5733.8100001215935,undefined,undefined,undefined,
zurbd4xejv,undefined,undefined,undefined,undefined,36,Know,31,ALYSSA,BETTY,false,4158.740000333637,36,33,20,2,36,2,18,1,1,1,955.5700002238154,undefined,undefined,undefined,
zurbd4xejv,undefined,undefined,undefined,undefined,37,Familiar,1,NA,NA,NA,NA,37,33,20,2,undefined,undefined,undefined,undefined,undefined,undefined,undefined,undefined,undefined,undefined,
zurbd4xejv,undefined,undefined,undefined,undefined,38,Know,10,GRACE,CLAUDIA,false,4381.870000157505,38,2,14,1,undefined,undefined,undefined,undefined,undefined,undefined,undefined,undefined,undefined,undefined,
zurbd4xejv,undefined,undefined,undefined,undefined,39,Know,30,MADISON,MADISON,true,2944.900000002235,39,11,9,2,undefined,undefined,undefined,undefined,undefined,undefined,undefined,undefined,undefined,undefined,
zurbd4xejv,undefined,undefined,undefined,undefined,40,Familiar,16,NA,NA,NA,NA,40,29,15,0,undefined,undefined,undefined,undefined,undefined,undefined,undefined,undefined,undefined,undefined,
zurbd4xejv,undefined,undefined,undefined,undefined,41,Familiar,28,NA,NA,NA,NA,41,14,2,1,undefined,undefined,undefined,undefined,undefined,undefined,undefined,undefined,undefined,undefined,
zurbd4xejv,undefined,undefined,undefined,undefined,42,Know,6,BRIANNA,NICOLE,false,4517.6099999807775,42,24,12,0,undefined,undefined,undefined,undefined,undefined,undefined,undefined,undefined,undefined,undefined,
zurbd4xejv,undefined,undefined,undefined,undefined,43,Familiar,23,NA,NA,NA,NA,43,19,17,2,undefined,undefined,undefined,undefined,undefined,undefined,undefined,undefined,undefined,undefined,
zurbd4xejv,undefined,undefined,undefined,undefined,44,Familiar,25,NA,NA,NA,NA,44,5,22,2,undefined,undefined,undefined,undefined,undefined,undefined,undefined,undefined,undefined,undefined,
zurbd4xejv,undefined,undefined,undefined,undefined,45,Know,12,LISA,ANNA,false,3780.1450002007186,45,16,11,0,undefined,undefined,undefined,undefined,undefined,undefined,undefined,undefined,undefined,undefined,
zurbd4xejv,undefined,undefined,undefined,undefined,46,Know,32,AUDREY,EMILY,false,4339.124999940395,46,12,35,1,undefined,undefined,undefined,undefined,undefined,undefined,undefined,undefined,undefined,undefined,
zurbd4xejv,undefined,undefined,undefined,undefined,47,Familiar,13,NA,NA,NA,NA,47,13,23,0,undefined,undefined,undefined,undefined,undefined,undefined,undefined,undefined,undefined,undefined,
zurbd4xejv,undefined,undefined,undefined,undefined,48,Know,36,NICOLE,NICOLE,true,4074.9900001101196,48,23,26,0,undefined,undefined,undefined,undefined,undefined,undefined,undefined,undefined,undefined,undefined,
zurbd4xejv,undefined,undefined,undefined,undefined,49,Know,27,MARGARET,MARGARET,true,7536.379999946803,49,4,34,2,undefined,undefined,undefined,undefined,undefined,undefined,undefined,undefined,undefined,undefined,
zurbd4xejv,undefined,undefined,undefined,undefined,50,Familiar,1,NA,NA,NA,NA,50,34,8,2,undefined,undefined,undefined,undefined,undefined,undefined,undefined,undefined,undefined,undefined,
zurbd4xejv,undefined,undefined,undefined,undefined,51,Familiar,25,NA,NA,NA,NA,51,32,30,1,undefined,undefined,undefined,undefined,undefined,undefined,undefined,undefined,undefined,undefined,
zurbd4xejv,undefined,undefined,undefined,undefined,52,Know,36,NICOLE,ALYSSA,false,7304.089999757707,52,18,16,0,undefined,undefined,undefined,undefined,undefined,undefined,undefined,undefined,undefined,undefined,
zurbd4xejv,undefined,undefined,undefined,undefined,53,Know,10,GRACE,GRACE,true,4196.990000084043,53,26,5,1,undefined,undefined,undefined,undefined,undefined,undefined,undefined,undefined,undefined,undefined,
zurbd4xejv,undefined,undefined,undefined,undefined,54,Familiar,35,NA,NA,NA,NA,54,17,29,2,undefined,undefined,undefined,undefined,undefined,undefined,undefined,undefined,undefined,undefined,
zurbd4xejv,undefined,undefined,undefined,undefined,55,Familiar,23,NA,NA,NA,NA,55,30,10,1,undefined,undefined,undefined,undefined,undefined,undefined,undefined,undefined,undefined,undefined,
zurbd4xejv,undefined,undefined,undefined,undefined,56,Know,14,BETTY,BETTY,true,6362.269999925047,56,36,32,1,undefined,undefined,undefined,undefined,undefined,undefined,undefined,undefined,undefined,undefined,
zurbd4xejv,undefined,undefined,undefined,undefined,57,Know,32,AUDREY,LISA,false,4167.905000038445,57,21,36,0,undefined,undefined,undefined,undefined,undefined,undefined,undefined,undefined,undefined,undefined,
zurbd4xejv,undefined,undefined,undefined,undefined,58,Familiar,28,NA,NA,NA,NA,58,15,7,2,undefined,undefined,undefined,undefined,undefined,undefined,undefined,undefined,undefined,undefined,
zurbd4xejv,undefined,undefined,undefined,undefined,59,Familiar,21,NA,NA,NA,NA,59,10,28,1,undefined,undefined,undefined,undefined,undefined,undefined,undefined,undefined,undefined,undefined,
zurbd4xejv,undefined,undefined,undefined,undefined,60,Know,6,BRIANNA,BRIANNA,true,3918.6449996195734,60,25,24,0,undefined,undefined,undefined,undefined,undefined,undefined,undefined,undefined,undefined,undefined,
zurbd4xejv,undefined,undefined,undefined,undefined,61,Know,31,ALYSSA,NICOLE,false,2876.759999897331,61,1,6,0,undefined,undefined,undefined,undefined,undefined,undefined,undefined,undefined,undefined,undefined,
zurbd4xejv,undefined,undefined,undefined,undefined,62,Familiar,13,NA,NA,NA,NA,62,9,25,2,undefined,undefined,undefined,undefined,undefined,undefined,undefined,undefined,undefined,undefined,
zurbd4xejv,undefined,undefined,undefined,undefined,63,Familiar,3,NA,NA,NA,NA,63,3,21,0,undefined,undefined,undefined,undefined,undefined,undefined,undefined,undefined,undefined,undefined,
zurbd4xejv,undefined,undefined,undefined,undefined,64,Know,2,VICTORIA,VICTORIA,true,3619.969999883324,64,28,3,0,undefined,undefined,undefined,undefined,undefined,undefined,undefined,undefined,undefined,undefined,
zurbd4xejv,undefined,undefined,undefined,undefined,65,Familiar,18,NA,NA,NA,NA,65,8,18,1,undefined,undefined,undefined,undefined,undefined,undefined,undefined,undefined,undefined,undefined,
zurbd4xejv,undefined,undefined,undefined,undefined,66,Familiar,24,NA,NA,NA,NA,66,20,13,2,undefined,undefined,undefined,undefined,undefined,undefined,undefined,undefined,undefined,undefined,
zurbd4xejv,undefined,undefined,undefined,undefined,67,Know,12,LISA,EMILY,false,8101.539999712259,67,6,19,1,undefined,undefined,undefined,undefined,undefined,undefined,undefined,undefined,undefined,undefined,
zurbd4xejv,undefined,undefined,undefined,undefined,68,Familiar,29,NA,NA,NA,NA,68,31,31,1,undefined,undefined,undefined,undefined,undefined,undefined,undefined,undefined,undefined,undefined,
zurbd4xejv,undefined,undefined,undefined,undefined,69,Know,30,MADISON,EMILY,false,4894.9000001885,69,35,4,0,undefined,undefined,undefined,undefined,undefined,undefined,undefined,undefined,undefined,undefined,
zurbd4xejv,undefined,undefined,undefined,undefined,70,Know,26,EMILY,EMILY,true,3361.2600001506507,70,7,33,2,undefined,undefined,undefined,undefined,undefined,undefined,undefined,undefined,undefined,undefined,
zurbd4xejv,undefined,undefined,undefined,undefined,71,Familiar,16,NA,NA,NA,NA,71,22,1,2,undefined,undefined,undefined,undefined,undefined,undefined,undefined,undefined,undefined,undefined,
zurbd4xejv,undefined,undefined,undefined,undefined,72,Know,8,MARY,NICOLE,false,4508.709999732673,72,27,27,1,undefined,undefined,undefined,undefined,undefined,undefined,undefined,undefined,undefined,undefined,
zurbd4xejv,undefined,undefined,undefined,undefined,73,Familiar,16,NA,NA,NA,NA,undefined,undefined,undefined,undefined,undefined,undefined,undefined,undefined,undefined,undefined,undefined,undefined,undefined,undefined,
zurbd4xejv,undefined,undefined,undefined,undefined,74,Know,12,LISA,LISA,true,3283.2450000569224,undefined,undefined,undefined,undefined,undefined,undefined,undefined,undefined,undefined,undefined,undefined,undefined,undefined,undefined,
zurbd4xejv,undefined,undefined,undefined,undefined,75,Familiar,1,NA,NA,NA,NA,undefined,undefined,undefined,undefined,undefined,undefined,undefined,undefined,undefined,undefined,undefined,undefined,undefined,undefined,
zurbd4xejv,undefined,undefined,undefined,undefined,76,Familiar,25,NA,NA,NA,NA,undefined,undefined,undefined,undefined,undefined,undefined,undefined,undefined,undefined,undefined,undefined,undefined,undefined,undefined,
zurbd4xejv,undefined,undefined,undefined,undefined,77,Know,26,EMILY,EMILY,true,5477.0050002262,undefined,undefined,undefined,undefined,undefined,undefined,undefined,undefined,undefined,undefined,undefined,undefined,undefined,undefined,
zurbd4xejv,undefined,undefined,undefined,undefined,78,Know,30,MADISON,MADISON,true,2654.714999720454,undefined,undefined,undefined,undefined,undefined,undefined,undefined,undefined,undefined,undefined,undefined,undefined,undefined,undefined,
zurbd4xejv,undefined,undefined,undefined,undefined,79,Familiar,18,NA,NA,NA,NA,undefined,undefined,undefined,undefined,undefined,undefined,undefined,undefined,undefined,undefined,undefined,undefined,undefined,undefined,
zurbd4xejv,undefined,undefined,undefined,undefined,80,Familiar,3,NA,NA,NA,NA,undefined,undefined,undefined,undefined,undefined,undefined,undefined,undefined,undefined,undefined,undefined,undefined,undefined,undefined,
zurbd4xejv,undefined,undefined,undefined,undefined,81,Know,36,NICOLE,NICOLE,true,3204.539999831468,undefined,undefined,undefined,undefined,undefined,undefined,undefined,undefined,undefined,undefined,undefined,undefined,undefined,undefined,
zurbd4xejv,undefined,undefined,undefined,undefined,82,Know,31,ALYSSA,LISA,false,6039.8650001734495,undefined,undefined,undefined,undefined,undefined,undefined,undefined,undefined,undefined,undefined,undefined,undefined,undefined,undefined,
zurbd4xejv,undefined,undefined,undefined,undefined,83,Familiar,35,NA,NA,NA,NA,undefined,undefined,undefined,undefined,undefined,undefined,undefined,undefined,undefined,undefined,undefined,undefined,undefined,undefined,
zurbd4xejv,undefined,undefined,undefined,undefined,84,Familiar,28,NA,NA,NA,NA,undefined,undefined,undefined,undefined,undefined,undefined,undefined,undefined,undefined,undefined,undefined,undefined,undefined,undefined,
zurbd4xejv,undefined,undefined,undefined,undefined,85,Know,27,MARGARET,BRIANNA,false,28185.920000076294,undefined,undefined,undefined,undefined,undefined,undefined,undefined,undefined,undefined,undefined,undefined,undefined,undefined,undefined,
zurbd4xejv,undefined,undefined,undefined,undefined,86,Familiar,23,NA,NA,NA,NA,undefined,undefined,undefined,undefined,undefined,undefined,undefined,undefined,undefined,undefined,undefined,undefined,undefined,undefined,
zurbd4xejv,undefined,undefined,undefined,undefined,87,Know,8,MARY,NICOLE,false,4297.5349999032915,undefined,undefined,undefined,undefined,undefined,undefined,undefined,undefined,undefined,undefined,undefined,undefined,undefined,undefined,
zurbd4xejv,undefined,undefined,undefined,undefined,88,Know,10,GRACE,GRACE,true,3795.7799998112023,undefined,undefined,undefined,undefined,undefined,undefined,undefined,undefined,undefined,undefined,undefined,undefined,undefined,undefined,
zurbd4xejv,undefined,undefined,undefined,undefined,89,Familiar,29,NA,NA,NA,NA,undefined,undefined,undefined,undefined,undefined,undefined,undefined,undefined,undefined,undefined,undefined,undefined,undefined,undefined,
zurbd4xejv,undefined,undefined,undefined,undefined,90,Know,2,VICTORIA,VICTORIA,true,3100.020000245422,undefined,undefined,undefined,undefined,undefined,undefined,undefined,undefined,undefined,undefined,undefined,undefined,undefined,undefined,
zurbd4xejv,undefined,undefined,undefined,undefined,91,Familiar,13,NA,NA,NA,NA,undefined,undefined,undefined,undefined,undefined,undefined,undefined,undefined,undefined,undefined,undefined,undefined,undefined,undefined,
zurbd4xejv,undefined,undefined,undefined,undefined,92,Know,32,AUDREY,AUDREY,true,12543.27500006184,undefined,undefined,undefined,undefined,undefined,undefined,undefined,undefined,undefined,undefined,undefined,undefined,undefined,undefined,
zurbd4xejv,undefined,undefined,undefined,undefined,93,Know,6,BRIANNA,BRIANNA,true,2913.9000000432134,undefined,undefined,undefined,undefined,undefined,undefined,undefined,undefined,undefined,undefined,undefined,undefined,undefined,undefined,
zurbd4xejv,undefined,undefined,undefined,undefined,94,Familiar,24,NA,NA,NA,NA,undefined,undefined,undefined,undefined,undefined,undefined,undefined,undefined,undefined,undefined,undefined,undefined,undefined,undefined,
zurbd4xejv,undefined,undefined,undefined,undefined,95,Know,14,BETTY,BETTY,true,7121.460000053048,undefined,undefined,undefined,undefined,undefined,undefined,undefined,undefined,undefined,undefined,undefined,undefined,undefined,undefined,
zurbd4xejv,undefined,undefined,undefined,undefined,96,Familiar,21,NA,NA,NA,NA,undefined,undefined,undefined,undefined,undefined,undefined,undefined,undefined,undefined,undefined,undefined,undefined,undefined,undefined,
