SubNum,SubNum_demo,Exp_start_time,Exp_today_date,Exp_today_time,TrialNum,Condition,Face,Name,Response,NameAcc,RespTime,StudyTrialNum,StudyFace,StudyContext,StudyFamCond,TestTrialNum,TestFace,TestContext,TestSDCond,TestFamCond,TestResponse,TestResponseTime,Exp_end_time,Distractor_1_duration,Distractor_2_duration,
6v4v5xyued,1wk5nb576c,Fri Nov 13 2020 13:54:08 GMT-0600 (Central Standard Time),2020-11-13,13:54:8,1,Know,10,ALEXIS,ALEXIS,true,3811.714999843389,1,25,3,1,1,22,21,1,0,1,1877.4900001008064,14:16:36,120571.05500018224,61456.36499999091,
6v4v5xyued,undefined,undefined,undefined,undefined,2,Familiar,20,NA,NA,NA,NA,2,2,36,2,2,33,27,1,1,1,1576.4499998185784,undefined,undefined,undefined,
6v4v5xyued,undefined,undefined,undefined,undefined,3,Know,27,MEGAN,MEGAN,true,2331.8450001534075,3,22,19,0,3,17,16,1,1,1,1397.5400000344962,undefined,undefined,undefined,
6v4v5xyued,undefined,undefined,undefined,undefined,4,Know,15,AUDREY,AUDREY,true,3305.350000038743,4,26,12,2,4,24,19,1,0,1,1306.5349999815226,undefined,undefined,undefined,
6v4v5xyued,undefined,undefined,undefined,undefined,5,Familiar,32,NA,NA,NA,NA,5,18,17,2,5,11,6,0,2,0,849.4699997827411,undefined,undefined,undefined,
6v4v5xyued,undefined,undefined,undefined,undefined,6,Familiar,29,NA,NA,NA,NA,6,10,22,1,6,34,2,0,0,0,939.1149999573827,undefined,undefined,undefined,
6v4v5xyued,undefined,undefined,undefined,undefined,7,Know,16,LAUREN,LAUREN,true,2245.9299999754876,7,24,21,0,7,36,29,0,2,1,1549.580000108108,undefined,undefined,undefined,
6v4v5xyued,undefined,undefined,undefined,undefined,8,Know,21,LISA,LISA,true,1736.8199999909848,8,19,13,1,8,35,20,1,0,1,1680.7599999010563,undefined,undefined,undefined,
6v4v5xyued,undefined,undefined,undefined,undefined,9,Familiar,34,NA,NA,NA,NA,9,30,31,2,9,7,14,0,0,0,1127.3749999236315,undefined,undefined,undefined,
6v4v5xyued,undefined,undefined,undefined,undefined,10,Familiar,7,NA,NA,NA,NA,10,9,1,0,10,4,15,1,0,1,1112.3250001110137,undefined,undefined,undefined,
6v4v5xyued,undefined,undefined,undefined,undefined,11,Know,25,ASHLEY,ASHLEY,true,3493.019999936223,11,21,28,1,11,16,5,0,1,0,806.5550001338124,undefined,undefined,undefined,
6v4v5xyued,undefined,undefined,undefined,undefined,12,Familiar,5,NA,NA,NA,NA,12,15,23,1,12,5,26,0,0,0,1136.9549999944866,undefined,undefined,undefined,
6v4v5xyued,undefined,undefined,undefined,undefined,13,Familiar,24,NA,NA,NA,NA,13,13,24,2,13,9,30,1,0,1,1282.9500001389533,undefined,undefined,undefined,
6v4v5xyued,undefined,undefined,undefined,undefined,14,Know,19,MADISON,MADISON,true,3079.2799999471754,14,5,26,0,14,12,24,1,2,1,2479.899999918416,undefined,undefined,undefined,
6v4v5xyued,undefined,undefined,undefined,undefined,15,Know,33,MARGARET,MARGARET,true,3386.8800001218915,15,16,5,1,15,13,18,1,2,0,892.2250000759959,undefined,undefined,undefined,
6v4v5xyued,undefined,undefined,undefined,undefined,16,Familiar,22,NA,NA,NA,NA,16,31,11,1,16,23,17,1,2,1,1535.48499988392,undefined,undefined,undefined,
6v4v5xyued,undefined,undefined,undefined,undefined,17,Familiar,9,NA,NA,NA,NA,17,11,6,2,17,25,3,0,1,0,804.6999999787658,undefined,undefined,undefined,
6v4v5xyued,undefined,undefined,undefined,undefined,18,Know,6,SAMANTHA,SAMANTHA,true,3133.224999997765,18,27,10,1,18,2,36,0,2,0,954.3099999427795,undefined,undefined,undefined,
6v4v5xyued,undefined,undefined,undefined,undefined,19,Familiar,35,NA,NA,NA,NA,19,32,35,0,19,6,11,1,1,0,889.1049998346716,undefined,undefined,undefined,
6v4v5xyued,undefined,undefined,undefined,undefined,20,Know,31,CHLOE,CHLOE,true,3083.240000065416,20,23,9,2,20,21,28,0,1,0,765.3149999678135,undefined,undefined,undefined,
6v4v5xyued,undefined,undefined,undefined,undefined,21,Know,17,SARAH,SARAH,true,1843.9100000541657,21,36,29,2,21,14,1,1,0,1,1177.0549998618662,undefined,undefined,undefined,
6v4v5xyued,undefined,undefined,undefined,undefined,22,Familiar,4,NA,NA,NA,NA,22,35,15,0,22,3,32,0,2,0,957.4549999088049,undefined,undefined,undefined,
6v4v5xyued,undefined,undefined,undefined,undefined,23,Know,1,BRITTANY,BRITTANY,true,16507.91499996558,23,17,27,1,23,18,9,1,2,0,1328.7549999076873,undefined,undefined,undefined,
6v4v5xyued,undefined,undefined,undefined,undefined,24,Familiar,14,NA,NA,NA,NA,24,8,8,2,24,29,4,0,0,1,1734.4149998389184,undefined,undefined,undefined,
6v4v5xyued,undefined,undefined,undefined,undefined,25,Know,19,MADISON,SAMANTHA,false,6019.924999913201,25,3,32,2,25,30,12,1,2,0,1980.0350000150502,undefined,undefined,undefined,
6v4v5xyued,undefined,undefined,undefined,undefined,26,Know,1,BRITTANY,BRITTANY,true,3596.144999843091,26,4,20,0,26,26,31,1,2,0,1396.0700000170618,undefined,undefined,undefined,
6v4v5xyued,undefined,undefined,undefined,undefined,27,Familiar,4,NA,NA,NA,NA,27,14,30,0,27,31,25,1,1,0,1376.4750000555068,undefined,undefined,undefined,
6v4v5xyued,undefined,undefined,undefined,undefined,28,Know,16,LAUREN,SAMANTHA,false,9517.345000058413,28,28,33,2,28,8,8,0,2,0,1825.6449999753386,undefined,undefined,undefined,
6v4v5xyued,undefined,undefined,undefined,undefined,29,Familiar,35,NA,NA,NA,NA,29,6,25,1,29,1,13,1,1,1,1217.4800001084805,undefined,undefined,undefined,
6v4v5xyued,undefined,undefined,undefined,undefined,30,Familiar,20,NA,NA,NA,NA,30,1,7,1,30,20,34,0,0,0,1182.5399999506772,undefined,undefined,undefined,
6v4v5xyued,undefined,undefined,undefined,undefined,31,Know,25,ASHLEY,ALEXIS,false,9388.999999966472,31,34,2,0,31,19,7,1,1,0,1231.6250000149012,undefined,undefined,undefined,
6v4v5xyued,undefined,undefined,undefined,undefined,32,Familiar,14,NA,NA,NA,NA,32,29,4,0,32,28,33,0,2,0,1197.4399997852743,undefined,undefined,undefined,
6v4v5xyued,undefined,undefined,undefined,undefined,33,Know,15,AUDREY,MARGARET,false,6456.5649998839945,33,12,18,2,33,10,22,0,1,0,1423.9300000481308,undefined,undefined,undefined,
6v4v5xyued,undefined,undefined,undefined,undefined,34,Know,17,SARAH,MARGARET,false,4922.920000040904,34,20,34,0,34,32,35,0,0,0,1146.1600000038743,undefined,undefined,undefined,
6v4v5xyued,undefined,undefined,undefined,undefined,35,Familiar,34,NA,NA,NA,NA,35,7,14,0,35,15,23,0,1,0,1040.0350000709295,undefined,undefined,undefined,
6v4v5xyued,undefined,undefined,undefined,undefined,36,Familiar,9,NA,NA,NA,NA,36,33,16,1,36,27,10,0,1,0,1021.6899998486042,undefined,undefined,undefined,
6v4v5xyued,undefined,undefined,undefined,undefined,37,Know,6,SAMANTHA,MARGARET,false,7479.215000057593,37,25,3,1,undefined,undefined,undefined,undefined,undefined,undefined,undefined,undefined,undefined,undefined,
6v4v5xyued,undefined,undefined,undefined,undefined,38,Familiar,32,NA,NA,NA,NA,38,11,6,2,undefined,undefined,undefined,undefined,undefined,undefined,undefined,undefined,undefined,undefined,
6v4v5xyued,undefined,undefined,undefined,undefined,39,Know,10,ALEXIS,MARGARET,false,19869.41000004299,39,24,21,0,undefined,undefined,undefined,undefined,undefined,undefined,undefined,undefined,undefined,undefined,
6v4v5xyued,undefined,undefined,undefined,undefined,40,Know,33,MARGARET,MARGARET,true,3815.7050001900643,40,33,16,1,undefined,undefined,undefined,undefined,undefined,undefined,undefined,undefined,undefined,undefined,
6v4v5xyued,undefined,undefined,undefined,undefined,41,Familiar,5,NA,NA,NA,NA,41,34,2,0,undefined,undefined,undefined,undefined,undefined,undefined,undefined,undefined,undefined,undefined,
6v4v5xyued,undefined,undefined,undefined,undefined,42,Familiar,29,NA,NA,NA,NA,42,29,4,0,undefined,undefined,undefined,undefined,undefined,undefined,undefined,undefined,undefined,undefined,
6v4v5xyued,undefined,undefined,undefined,undefined,43,Know,27,MEGAN,ASHLEY,false,5810.674999840558,43,21,28,1,undefined,undefined,undefined,undefined,undefined,undefined,undefined,undefined,undefined,undefined,
6v4v5xyued,undefined,undefined,undefined,undefined,44,Familiar,22,NA,NA,NA,NA,44,12,18,2,undefined,undefined,undefined,undefined,undefined,undefined,undefined,undefined,undefined,undefined,
6v4v5xyued,undefined,undefined,undefined,undefined,45,Familiar,24,NA,NA,NA,NA,45,18,17,2,undefined,undefined,undefined,undefined,undefined,undefined,undefined,undefined,undefined,undefined,
6v4v5xyued,undefined,undefined,undefined,undefined,46,Know,21,LISA,ASHLEY,false,6793.460000073537,46,20,34,0,undefined,undefined,undefined,undefined,undefined,undefined,undefined,undefined,undefined,undefined,
6v4v5xyued,undefined,undefined,undefined,undefined,47,Familiar,7,NA,NA,NA,NA,47,6,25,1,undefined,undefined,undefined,undefined,undefined,undefined,undefined,undefined,undefined,undefined,
6v4v5xyued,undefined,undefined,undefined,undefined,48,Know,31,CHLOE,ASHLEY,false,15418.580000055954,48,5,26,0,undefined,undefined,undefined,undefined,undefined,undefined,undefined,undefined,undefined,undefined,
6v4v5xyued,undefined,undefined,undefined,undefined,49,Know,19,MADISON,ASHLEY,false,21210.5749999173,49,36,29,2,undefined,undefined,undefined,undefined,undefined,undefined,undefined,undefined,undefined,undefined,
6v4v5xyued,undefined,undefined,undefined,undefined,50,Familiar,5,NA,NA,NA,NA,50,9,1,0,undefined,undefined,undefined,undefined,undefined,undefined,undefined,undefined,undefined,undefined,
6v4v5xyued,undefined,undefined,undefined,undefined,51,Familiar,14,NA,NA,NA,NA,51,15,23,1,undefined,undefined,undefined,undefined,undefined,undefined,undefined,undefined,undefined,undefined,
6v4v5xyued,undefined,undefined,undefined,undefined,52,Know,25,ASHLEY,ASHLEY,true,6221.790000097826,52,28,33,2,undefined,undefined,undefined,undefined,undefined,undefined,undefined,undefined,undefined,undefined,
6v4v5xyued,undefined,undefined,undefined,undefined,53,Know,16,LAUREN,MADISON,false,9553.244999842718,53,8,8,2,undefined,undefined,undefined,undefined,undefined,undefined,undefined,undefined,undefined,undefined,
6v4v5xyued,undefined,undefined,undefined,undefined,54,Familiar,29,NA,NA,NA,NA,54,16,5,1,undefined,undefined,undefined,undefined,undefined,undefined,undefined,undefined,undefined,undefined,
6v4v5xyued,undefined,undefined,undefined,undefined,55,Familiar,32,NA,NA,NA,NA,55,27,10,1,undefined,undefined,undefined,undefined,undefined,undefined,undefined,undefined,undefined,undefined,
6v4v5xyued,undefined,undefined,undefined,undefined,56,Know,17,SARAH,MADISON,false,3407.5949999969453,56,22,19,0,undefined,undefined,undefined,undefined,undefined,undefined,undefined,undefined,undefined,undefined,
6v4v5xyued,undefined,undefined,undefined,undefined,57,Know,1,BRITTANY,BRITTANY,true,3016.7750001419336,57,1,7,1,undefined,undefined,undefined,undefined,undefined,undefined,undefined,undefined,undefined,undefined,
6v4v5xyued,undefined,undefined,undefined,undefined,58,Familiar,9,NA,NA,NA,NA,58,3,32,2,undefined,undefined,undefined,undefined,undefined,undefined,undefined,undefined,undefined,undefined,
6v4v5xyued,undefined,undefined,undefined,undefined,59,Familiar,20,NA,NA,NA,NA,59,13,24,2,undefined,undefined,undefined,undefined,undefined,undefined,undefined,undefined,undefined,undefined,
6v4v5xyued,undefined,undefined,undefined,undefined,60,Know,15,AUDREY,MARGARET,false,3950.315000023693,60,19,13,1,undefined,undefined,undefined,undefined,undefined,undefined,undefined,undefined,undefined,undefined,
6v4v5xyued,undefined,undefined,undefined,undefined,61,Familiar,22,NA,NA,NA,NA,61,10,22,1,undefined,undefined,undefined,undefined,undefined,undefined,undefined,undefined,undefined,undefined,
6v4v5xyued,undefined,undefined,undefined,undefined,62,Know,33,MARGARET,MARGARET,true,5470.590000040829,62,2,36,2,undefined,undefined,undefined,undefined,undefined,undefined,undefined,undefined,undefined,undefined,
6v4v5xyued,undefined,undefined,undefined,undefined,63,Know,27,MEGAN,ALEXIS,false,7249.679999891669,63,4,20,0,undefined,undefined,undefined,undefined,undefined,undefined,undefined,undefined,undefined,undefined,
6v4v5xyued,undefined,undefined,undefined,undefined,64,Familiar,4,NA,NA,NA,NA,64,26,12,2,undefined,undefined,undefined,undefined,undefined,undefined,undefined,undefined,undefined,undefined,
6v4v5xyued,undefined,undefined,undefined,undefined,65,Know,6,SAMANTHA,ASHLEY,false,7709.634999977425,65,31,11,1,undefined,undefined,undefined,undefined,undefined,undefined,undefined,undefined,undefined,undefined,
6v4v5xyued,undefined,undefined,undefined,undefined,66,Familiar,34,NA,NA,NA,NA,66,35,15,0,undefined,undefined,undefined,undefined,undefined,undefined,undefined,undefined,undefined,undefined,
6v4v5xyued,undefined,undefined,undefined,undefined,67,Familiar,35,NA,NA,NA,NA,67,23,9,2,undefined,undefined,undefined,undefined,undefined,undefined,undefined,undefined,undefined,undefined,
6v4v5xyued,undefined,undefined,undefined,undefined,68,Know,31,CHLOE,ASHLEY,false,7473.574999952689,68,14,30,0,undefined,undefined,undefined,undefined,undefined,undefined,undefined,undefined,undefined,undefined,
6v4v5xyued,undefined,undefined,undefined,undefined,69,Know,10,ALEXIS,ALEXIS,true,4048.2499999925494,69,7,14,0,undefined,undefined,undefined,undefined,undefined,undefined,undefined,undefined,undefined,undefined,
6v4v5xyued,undefined,undefined,undefined,undefined,70,Familiar,7,NA,NA,NA,NA,70,30,31,2,undefined,undefined,undefined,undefined,undefined,undefined,undefined,undefined,undefined,undefined,
6v4v5xyued,undefined,undefined,undefined,undefined,71,Familiar,24,NA,NA,NA,NA,71,17,27,1,undefined,undefined,undefined,undefined,undefined,undefined,undefined,undefined,undefined,undefined,
6v4v5xyued,undefined,undefined,undefined,undefined,72,Know,21,LISA,LISA,true,3392.6399999763817,72,32,35,0,undefined,undefined,undefined,undefined,undefined,undefined,undefined,undefined,undefined,undefined,
6v4v5xyued,undefined,undefined,undefined,undefined,73,Familiar,9,NA,NA,NA,NA,undefined,undefined,undefined,undefined,undefined,undefined,undefined,undefined,undefined,undefined,undefined,undefined,undefined,undefined,
6v4v5xyued,undefined,undefined,undefined,undefined,74,Know,15,AUDREY,SAMANTHA,false,11520.774999866262,undefined,undefined,undefined,undefined,undefined,undefined,undefined,undefined,undefined,undefined,undefined,undefined,undefined,undefined,
6v4v5xyued,undefined,undefined,undefined,undefined,75,Familiar,4,NA,NA,NA,NA,undefined,undefined,undefined,undefined,undefined,undefined,undefined,undefined,undefined,undefined,undefined,undefined,undefined,undefined,
6v4v5xyued,undefined,undefined,undefined,undefined,76,Know,19,MADISON,MARGARET,false,7809.644999913871,undefined,undefined,undefined,undefined,undefined,undefined,undefined,undefined,undefined,undefined,undefined,undefined,undefined,undefined,
6v4v5xyued,undefined,undefined,undefined,undefined,77,Know,21,LISA,LISA,true,2435.780000174418,undefined,undefined,undefined,undefined,undefined,undefined,undefined,undefined,undefined,undefined,undefined,undefined,undefined,undefined,
6v4v5xyued,undefined,undefined,undefined,undefined,78,Familiar,29,NA,NA,NA,NA,undefined,undefined,undefined,undefined,undefined,undefined,undefined,undefined,undefined,undefined,undefined,undefined,undefined,undefined,
6v4v5xyued,undefined,undefined,undefined,undefined,79,Know,16,LAUREN,MADISON,false,3767.5999999046326,undefined,undefined,undefined,undefined,undefined,undefined,undefined,undefined,undefined,undefined,undefined,undefined,undefined,undefined,
6v4v5xyued,undefined,undefined,undefined,undefined,80,Know,31,CHLOE,MADISON,false,7130.974999861792,undefined,undefined,undefined,undefined,undefined,undefined,undefined,undefined,undefined,undefined,undefined,undefined,undefined,undefined,
6v4v5xyued,undefined,undefined,undefined,undefined,81,Familiar,22,NA,NA,NA,NA,undefined,undefined,undefined,undefined,undefined,undefined,undefined,undefined,undefined,undefined,undefined,undefined,undefined,undefined,
6v4v5xyued,undefined,undefined,undefined,undefined,82,Familiar,32,NA,NA,NA,NA,undefined,undefined,undefined,undefined,undefined,undefined,undefined,undefined,undefined,undefined,undefined,undefined,undefined,undefined,
6v4v5xyued,undefined,undefined,undefined,undefined,83,Know,17,SARAH,SAMANTHA,false,4742.52500012517,undefined,undefined,undefined,undefined,undefined,undefined,undefined,undefined,undefined,undefined,undefined,undefined,undefined,undefined,
6v4v5xyued,undefined,undefined,undefined,undefined,84,Know,33,MARGARET,MARGARET,true,3051.8050000537187,undefined,undefined,undefined,undefined,undefined,undefined,undefined,undefined,undefined,undefined,undefined,undefined,undefined,undefined,
6v4v5xyued,undefined,undefined,undefined,undefined,85,Familiar,35,NA,NA,NA,NA,undefined,undefined,undefined,undefined,undefined,undefined,undefined,undefined,undefined,undefined,undefined,undefined,undefined,undefined,
6v4v5xyued,undefined,undefined,undefined,undefined,86,Familiar,7,NA,NA,NA,NA,undefined,undefined,undefined,undefined,undefined,undefined,undefined,undefined,undefined,undefined,undefined,undefined,undefined,undefined,
6v4v5xyued,undefined,undefined,undefined,undefined,87,Know,10,ALEXIS,ALEXIS,true,3109.225000021979,undefined,undefined,undefined,undefined,undefined,undefined,undefined,undefined,undefined,undefined,undefined,undefined,undefined,undefined,
6v4v5xyued,undefined,undefined,undefined,undefined,88,Familiar,34,NA,NA,NA,NA,undefined,undefined,undefined,undefined,undefined,undefined,undefined,undefined,undefined,undefined,undefined,undefined,undefined,undefined,
6v4v5xyued,undefined,undefined,undefined,undefined,89,Know,1,BRITTANY,BRITTANY,true,3645.8000000566244,undefined,undefined,undefined,undefined,undefined,undefined,undefined,undefined,undefined,undefined,undefined,undefined,undefined,undefined,
6v4v5xyued,undefined,undefined,undefined,undefined,90,Familiar,14,NA,NA,NA,NA,undefined,undefined,undefined,undefined,undefined,undefined,undefined,undefined,undefined,undefined,undefined,undefined,undefined,undefined,
6v4v5xyued,undefined,undefined,undefined,undefined,91,Familiar,20,NA,NA,NA,NA,undefined,undefined,undefined,undefined,undefined,undefined,undefined,undefined,undefined,undefined,undefined,undefined,undefined,undefined,
6v4v5xyued,undefined,undefined,undefined,undefined,92,Know,6,SAMANTHA,AUDREY,false,4511.7450000252575,undefined,undefined,undefined,undefined,undefined,undefined,undefined,undefined,undefined,undefined,undefined,undefined,undefined,undefined,
6v4v5xyued,undefined,undefined,undefined,undefined,93,Familiar,24,NA,NA,NA,NA,undefined,undefined,undefined,undefined,undefined,undefined,undefined,undefined,undefined,undefined,undefined,undefined,undefined,undefined,
6v4v5xyued,undefined,undefined,undefined,undefined,94,Know,25,ASHLEY,ASHLEY,true,5600.755000021309,undefined,undefined,undefined,undefined,undefined,undefined,undefined,undefined,undefined,undefined,undefined,undefined,undefined,undefined,
6v4v5xyued,undefined,undefined,undefined,undefined,95,Know,27,MEGAN,MADISON,false,3042.5500001292676,undefined,undefined,undefined,undefined,undefined,undefined,undefined,undefined,undefined,undefined,undefined,undefined,undefined,undefined,
6v4v5xyued,undefined,undefined,undefined,undefined,96,Familiar,5,NA,NA,NA,NA,undefined,undefined,undefined,undefined,undefined,undefined,undefined,undefined,undefined,undefined,undefined,undefined,undefined,undefined,
