subID,trialType,trialNum,cntBalance,correct,rt,rwdType,tgtCol,tgtDir,tgtPos,colPos,colMatch,
42y,VDACtrain,0,g,null,null,1,r,h,0,,,
42y,VDACtrain,0,g,false,572.2999999523163,2,g,h,5,,,
42y,VDACtrain,0,g,true,956,1,r,h,2,,,
42y,VDACtrain,0,g,null,null,1,r,v,3,,,
42y,VDACtrain,0,g,null,null,1,r,v,4,,,
42y,VDACtrain,0,g,true,991.6999999880791,2,g,v,0,,,
42y,VDACtrain,0,g,true,787.8000000119209,1,r,h,1,,,
42y,VDACtrain,0,g,null,null,2,g,h,3,,,
42y,VDACtrain,0,g,true,607.5,2,g,v,2,,,
42y,VDACtrain,0,g,true,813.1000000238419,2,g,v,5,,,
42y,VDACtest,1,g,true,915,2,g,h,4,,,
42y,VDACtest,2,g,false,725.3999999761581,1,r,h,0,,,
42y,VDACtest,3,g,false,867.3000000119209,1,r,v,5,,,
42y,VDACtest,4,g,null,null,2,g,h,3,,,
42y,VDACtest,5,g,false,575.9000000357628,2,g,h,5,,,
42y,VDACtest,6,g,true,826.6000000238419,1,r,h,4,,,
42y,VDACtest,7,g,false,933.2999999523163,2,g,v,0,,,
42y,VDACtest,8,g,true,723.9000000357628,2,g,h,3,,,
42y,VDACtest,9,g,true,697.2000000476837,1,r,v,2,,,
42y,VDACtest,10,g,true,540.1999999880791,1,r,v,5,,,
42y,VDACtest,11,g,true,500.5,2,g,v,5,,,
42y,VDACtest,12,g,true,516,1,r,h,3,,,
42y,VDACtest,13,g,false,748.3999999761581,2,g,h,0,,,
42y,VDACtest,14,g,true,582.2000000476837,1,r,h,2,,,
42y,VDACtest,15,g,true,572.6999999880791,2,g,h,2,,,
42y,VDACtest,16,g,true,475.5,1,r,h,2,,,
42y,VDACtest,17,g,true,724.3999999761581,2,g,h,1,,,
42y,VDACtest,18,g,true,670.3999999761581,2,g,h,1,,,
42y,VDACtest,19,g,true,773.8000000119209,1,r,h,4,,,
42y,VDACtest,20,g,true,679.3999999761581,1,r,v,1,,,
42y,VDACtest,21,g,true,748.8999999761581,2,g,h,1,,,
42y,VDACtest,22,g,true,831.3000000119209,2,g,v,4,,,
42y,VDACtest,23,g,true,669.8999999761581,2,g,h,4,,,
42y,VDACtest,24,g,false,766.5999999642372,1,r,v,3,,,
42y,VDACtest,25,g,true,719.1999999880791,1,r,v,3,,,
42y,VDACtest,26,g,true,789.7999999523163,2,g,v,1,,,
42y,VDACtest,27,g,true,798.1999999880791,1,r,v,3,,,
42y,VDACtest,28,g,false,854.1999999880791,2,g,v,2,,,
42y,VDACtest,29,g,true,743.3000000119209,1,r,h,5,,,
42y,VDACtest,30,g,true,743.2999999523163,1,r,h,1,,,
42y,VDACtest,31,g,true,647.6000000238419,1,r,v,0,,,
42y,VDACtest,32,g,false,694.8000000119209,2,g,v,1,,,
42y,VDACtest,33,g,true,909.1999999880791,1,r,h,4,,,
42y,VDACtest,34,g,true,710.3999999761581,2,g,h,2,,,
42y,VDACtest,35,g,true,573.6999999880791,1,r,v,4,,,
42y,VDACtest,36,g,null,null,2,g,h,3,,,
42y,VDACtest,37,g,true,644.6999999880791,2,g,v,1,,,
42y,VDACtest,38,g,true,575.5,1,r,v,0,,,
42y,VDACtest,39,g,true,574.6999999880791,1,r,h,1,,,
42y,VDACtest,40,g,true,486.2999999523163,2,g,v,0,,,
42y,VDACtest,41,g,true,591.0999999642372,1,r,h,0,,,
42y,VDACtest,42,g,true,934,2,g,h,3,,,
42y,VDACtest,43,g,null,null,1,r,h,3,,,
42y,VDACtest,44,g,false,480.60000002384186,2,g,v,1,,,
42y,VDACtest,45,g,true,758.6000000238419,1,r,h,4,,,
42y,VDACtest,46,g,true,558,1,r,h,5,,,
42y,VDACtest,47,g,true,509.69999998807907,1,r,v,5,,,
42y,VDACtest,48,g,null,null,2,g,h,4,,,
42y,VDACtest,49,g,true,624.8999999761581,1,r,v,3,,,
42y,VDACtest,50,g,true,606.1999999880791,2,g,v,5,,,
brk,brk,brk,brk,brk,brk,brk,brk,brk,brk,brk,brk,
42y,VDACtest,51,g,true,664.5999999642372,2,g,v,0,,,
42y,VDACtest,52,g,true,596.8000000119209,2,g,h,0,,,
42y,VDACtest,53,g,false,670.3999999761581,2,g,h,5,,,
42y,VDACtest,54,g,true,773.6000000238419,1,r,v,4,,,
42y,VDACtest,55,g,false,509.19999998807907,1,r,h,5,,,
42y,VDACtest,56,g,null,null,1,r,v,1,,,
42y,VDACtest,57,g,true,739.8000000119209,2,g,v,2,,,
42y,VDACtest,58,g,true,652.8999999761581,2,g,h,0,,,
42y,VDACtest,59,g,true,779.7000000476837,1,r,h,2,,,
42y,VDACtest,60,g,true,599,2,g,h,0,,,
42y,VDACtest,61,g,true,526.5,1,r,v,5,,,
42y,VDACtest,62,g,null,null,2,g,h,2,,,
42y,VDACtest,63,g,true,533.6999999880791,1,r,v,2,,,
42y,VDACtest,64,g,true,877.9000000357628,2,g,h,1,,,
42y,VDACtest,65,g,false,502,1,r,h,0,,,
42y,VDACtest,66,g,true,478.39999997615814,2,g,v,1,,,
42y,VDACtest,67,g,true,676.5,2,g,v,1,,,
42y,VDACtest,68,g,true,597.7000000476837,2,g,h,1,,,
42y,VDACtest,69,g,true,551.1000000238419,2,g,v,5,,,
42y,VDACtest,70,g,true,527.3999999761581,1,r,h,2,,,
42y,VDACtest,71,g,true,518.3999999761581,2,g,v,5,,,
42y,VDACtest,72,g,true,518.6000000238419,1,r,v,5,,,
42y,VDACtest,73,g,true,428.69999998807907,2,g,v,5,,,
42y,VDACtest,74,g,true,582.3000000119209,1,r,h,1,,,
42y,VDACtest,75,g,true,478.5999999642372,2,g,v,0,,,
42y,VDACtest,76,g,true,652.1999999880791,2,g,v,4,,,
42y,VDACtest,77,g,false,501,1,r,v,1,,,
42y,VDACtest,78,g,true,500.69999998807907,2,g,v,5,,,
42y,VDACtest,79,g,true,613.5,2,g,h,4,,,
42y,VDACtest,80,g,true,572.4000000357628,2,g,h,1,,,
42y,VDACtest,81,g,false,462.2000000476837,1,r,h,0,,,
42y,VDACtest,82,g,true,573.0999999642372,1,r,v,2,,,
42y,VDACtest,83,g,true,646.8999999761581,1,r,h,1,,,
42y,VDACtest,84,g,true,567.2000000476837,2,g,v,4,,,
42y,VDACtest,85,g,true,498.80000001192093,2,g,v,4,,,
42y,VDACtest,86,g,true,668.3000000119209,1,r,h,0,,,
42y,VDACtest,87,g,true,502.30000001192093,1,r,v,0,,,
42y,VDACtest,88,g,false,581,1,r,v,2,,,
42y,VDACtest,89,g,true,556,2,g,v,2,,,
42y,VDACtest,90,g,true,542.5,1,r,v,2,,,
42y,VDACtest,91,g,true,756.8000000119209,1,r,h,3,,,
42y,VDACtest,92,g,true,542.6000000238419,1,r,v,2,,,
42y,VDACtest,93,g,true,702.1999999880791,2,g,v,3,,,
42y,VDACtest,94,g,true,500.39999997615814,1,r,v,5,,,
42y,VDACtest,95,g,true,487.19999998807907,1,r,h,5,,,
42y,VDACtest,96,g,true,758.3000000119209,2,g,v,4,,,
42y,VDACtest,97,g,true,580.6999999880791,2,g,h,5,,,
42y,VDACtest,98,g,false,540.9000000357628,1,r,h,4,,,
42y,VDACtest,99,g,null,null,1,r,h,1,,,
42y,VDACtest,100,g,true,594.1999999880791,1,r,v,4,,,
brk,brk,brk,brk,brk,brk,brk,brk,brk,brk,brk,brk,
42y,VDACtest,101,g,true,714.6000000238419,2,g,v,4,,,
42y,VDACtest,102,g,true,510.19999998807907,2,g,h,4,,,
42y,VDACtest,103,g,true,606.3000000119209,2,g,h,0,,,
42y,VDACtest,104,g,true,438.30000001192093,2,g,v,1,,,
42y,VDACtest,105,g,false,555.8999999761581,2,g,v,2,,,
42y,VDACtest,106,g,false,494.89999997615814,2,g,h,5,,,
42y,VDACtest,107,g,true,614.4000000357628,2,g,v,1,,,
42y,VDACtest,108,g,false,781.1000000238419,1,r,v,3,,,
42y,VDACtest,109,g,true,461.4000000357628,1,r,v,0,,,
42y,VDACtest,110,g,true,797,1,r,h,2,,,
42y,VDACtest,111,g,false,892.8999999761581,1,r,v,2,,,
42y,VDACtest,112,g,true,679.0999999642372,1,r,h,1,,,
42y,VDACtest,113,g,true,701.4000000357628,1,r,v,3,,,
42y,VDACtest,114,g,true,484.89999997615814,1,r,v,4,,,
42y,VDACtest,115,g,true,581.4000000357628,1,r,h,0,,,
42y,VDACtest,116,g,true,621.3000000119209,1,r,h,4,,,
42y,VDACtest,117,g,true,581,2,g,h,3,,,
42y,VDACtest,118,g,false,501.30000001192093,2,g,h,5,,,
42y,VDACtest,119,g,false,668.3999999761581,1,r,h,4,,,
42y,VDACtest,120,g,true,476.39999997615814,2,g,h,3,,,
42y,VDACtest,121,g,true,521.5,1,r,v,1,,,
42y,VDACtest,122,g,true,644.1000000238419,1,r,h,3,,,
42y,VDACtest,123,g,true,540.9000000357628,2,g,v,3,,,
42y,VDACtest,124,g,true,572.8999999761581,1,r,h,5,,,
42y,VDACtest,125,g,true,578.8999999761581,1,r,h,4,,,
42y,VDACtest,126,g,true,741.4000000357628,2,g,h,2,,,
42y,VDACtest,127,g,true,525.1000000238419,2,g,v,5,,,
42y,VDACtest,128,g,true,476.30000001192093,2,g,v,0,,,
42y,VDACtest,129,g,true,461.19999998807907,2,g,v,0,,,
42y,VDACtest,130,g,true,510,1,r,v,4,,,
42y,VDACtest,131,g,true,550.3000000119209,1,r,h,1,,,
42y,VDACtest,132,g,false,485.2999999523163,1,r,h,5,,,
42y,VDACtest,133,g,false,509.19999998807907,1,r,v,1,,,
42y,VDACtest,134,g,true,534.6000000238419,2,g,v,5,,,
42y,VDACtest,135,g,true,419.30000001192093,1,r,h,3,,,
42y,VDACtest,136,g,false,604.3000000119209,2,g,h,4,,,
42y,VDACtest,137,g,true,485.30000001192093,2,g,v,1,,,
42y,VDACtest,138,g,true,453.39999997615814,2,g,v,4,,,
42y,VDACtest,139,g,true,540.7999999523163,2,g,h,4,,,
42y,VDACtest,140,g,true,454.80000001192093,2,g,v,4,,,
42y,VDACtest,141,g,true,627.6999999880791,2,g,h,0,,,
42y,VDACtest,142,g,true,518.0999999642372,1,r,v,0,,,
42y,VDACtest,143,g,true,757.8999999761581,2,g,v,2,,,
42y,VDACtest,144,g,true,612.1000000238419,2,g,v,3,,,
42y,VDACtest,145,g,true,662.1999999880791,1,r,h,2,,,
42y,VDACtest,146,g,true,557.4000000357628,1,r,v,1,,,
42y,VDACtest,147,g,true,701.3000000119209,2,g,h,4,,,
42y,VDACtest,148,g,true,533.6999999880791,2,g,h,5,,,
42y,VDACtest,149,g,true,476.2000000476837,1,r,v,1,,,
42y,VDACtest,150,g,true,606.1000000238419,2,g,h,1,,,
brk,brk,brk,brk,brk,brk,brk,brk,brk,brk,brk,brk,
42y,VDACtest,151,g,true,573.6999999880791,1,r,v,4,,,
42y,VDACtest,152,g,true,445.5999999642372,2,g,h,4,,,
42y,VDACtest,153,g,false,597.7000000476837,1,r,v,3,,,
42y,VDACtest,154,g,true,647.1999999880791,2,g,v,2,,,
42y,VDACtest,155,g,true,492.30000001192093,1,r,h,0,,,
42y,VDACtest,156,g,true,653.3000000119209,2,g,v,3,,,
42y,VDACtest,157,g,true,549.5,1,r,v,2,,,
42y,VDACtest,158,g,true,589.1999999880791,2,g,v,3,,,
42y,VDACtest,159,g,true,478.2000000476837,2,g,h,2,,,
42y,VDACtest,160,g,true,510.5999999642372,2,g,v,3,,,
42y,VDACtest,161,g,true,357.30000001192093,1,r,v,1,,,
42y,VDACtest,162,g,true,509.5,1,r,h,3,,,
42y,VDACtest,163,g,true,443.80000001192093,1,r,v,5,,,
42y,VDACtest,164,g,false,477.2999999523163,1,r,h,2,,,
42y,VDACtest,165,g,true,454.7999999523163,1,r,v,0,,,
42y,VDACtest,166,g,false,542.8000000119209,1,r,v,1,,,
42y,VDACtest,167,g,true,565.7999999523163,2,g,h,1,,,
42y,VDACtest,168,g,true,565.5,1,r,h,1,,,
42y,VDACtest,169,g,true,647.8999999761581,2,g,h,2,,,
42y,VDACtest,170,g,true,740.4000000357628,2,g,v,3,,,
42y,VDACtest,171,g,false,524.5,1,r,h,2,,,
42y,VDACtest,172,g,true,638.2000000476837,2,g,h,1,,,
42y,VDACtest,173,g,true,532.1999999880791,2,g,h,0,,,
42y,VDACtest,174,g,true,541.4000000357628,1,r,h,1,,,
42y,VDACtest,175,g,true,518.8000000119209,1,r,h,0,,,
42y,VDACtest,176,g,true,645.1999999880791,2,g,v,2,,,
42y,VDACtest,177,g,true,621.5,2,g,h,5,,,
42y,VDACtest,178,g,true,565.8999999761581,1,r,h,5,,,
42y,VDACtest,179,g,true,669.5999999642372,2,g,v,2,,,
42y,VDACtest,180,g,true,669.3999999761581,1,r,v,3,,,
42y,VDACtest,181,g,true,550.5,2,g,v,0,,,
42y,VDACtest,182,g,true,660.5,2,g,h,2,,,
42y,VDACtest,183,g,true,605.3000000119209,2,g,h,0,,,
42y,VDACtest,184,g,true,532.5999999642372,2,g,h,2,,,
42y,VDACtest,185,g,true,540.3999999761581,2,g,v,0,,,
42y,VDACtest,186,g,true,565.3999999761581,1,r,h,4,,,
42y,VDACtest,187,g,true,582,2,g,v,4,,,
42y,VDACtest,188,g,true,604.3000000119209,2,g,h,3,,,
42y,VDACtest,189,g,true,515.7000000476837,1,r,v,5,,,
42y,VDACtest,190,g,true,524.8999999761581,1,r,v,4,,,
42y,VDACtest,191,g,true,620.1000000238419,2,g,h,3,,,
42y,VDACtest,192,g,true,557.1000000238419,1,r,h,3,,,
42y,VDACtest,193,g,false,541.8000000119209,2,g,h,5,,,
42y,VDACtest,194,g,true,570.6000000238419,1,r,v,4,,,
42y,VDACtest,195,g,true,589.1000000238419,1,r,v,0,,,
42y,VDACtest,196,g,true,573.3999999761581,1,r,v,0,,,
42y,VDACtest,197,g,true,564.0999999642372,2,g,v,3,,,
42y,VDACtest,198,g,true,636.6999999880791,1,r,h,3,,,
42y,VDACtest,199,g,true,653.8999999761581,1,r,h,5,,,
42y,VDACtest,200,g,true,563.3999999761581,1,r,v,4,,,
42y,RSVPtrain,0,g,null,null,1,r,,0,0,2,
42y,RSVPtrain,0,g,true,789.5,2,g,,3,0,1,
42y,RSVPtrain,0,g,false,792.4000000357628,1,r,,1,1,2,
42y,RSVPtrain,0,g,true,789.7999999523163,0,b,,1,3,0,
42y,RSVPtrain,0,g,false,791.8999999761581,2,g,,2,2,2,
42y,RSVPtrain,0,g,true,1007.7999999523163,2,g,,3,1,1,
42y,RSVPtrain,0,g,false,927.8999999761581,1,r,,3,2,1,
42y,RSVPtrain,0,g,false,687.3000000119209,0,b,,0,3,0,
42y,RSVPtrain,0,g,true,821.6999999880791,2,g,,1,0,1,
42y,RSVPtrain,0,g,true,707.4000000357628,0,b,,3,3,0,
42y,RSVPtest,1,g,false,684.8000000119209,1,r,,1,2,1,
42y,RSVPtest,2,g,true,704.4000000357628,1,r,,3,1,1,
42y,RSVPtest,3,g,true,677.6000000238419,1,r,,3,2,1,
42y,RSVPtest,4,g,true,652.6000000238419,2,g,,1,0,1,
42y,RSVPtest,5,g,false,1271.199999988079,1,r,,2,0,1,
42y,RSVPtest,6,g,true,759.8000000119209,1,r,,3,0,1,
42y,RSVPtest,7,g,true,637.1000000238419,2,g,,3,1,1,
42y,RSVPtest,8,g,true,725.0999999642372,2,g,,3,1,1,
42y,RSVPtest,9,g,true,639.5,1,r,,3,1,1,
42y,RSVPtest,10,g,true,705.3000000119209,1,r,,2,1,1,
42y,RSVPtest,11,g,true,688,0,b,,3,3,0,
42y,RSVPtest,12,g,true,872.3999999761581,2,g,,2,0,1,
42y,RSVPtest,13,g,true,976.6000000238419,0,b,,2,3,0,
42y,RSVPtest,14,g,true,857.1000000238419,2,g,,1,1,2,
42y,RSVPtest,15,g,true,705.6999999880791,1,r,,0,0,2,
42y,RSVPtest,16,g,true,551.6000000238419,0,b,,0,3,0,
42y,RSVPtest,17,g,true,779.6000000238419,2,g,,3,0,1,
42y,RSVPtest,18,g,false,753.5,1,r,,2,2,2,
42y,RSVPtest,19,g,true,624.1999999880791,2,g,,2,2,2,
42y,RSVPtest,20,g,true,501.80000001192093,2,g,,3,1,1,
42y,RSVPtest,21,g,true,778.3999999761581,0,b,,0,3,0,
42y,RSVPtest,22,g,true,540.6999999880791,0,b,,2,3,0,
42y,RSVPtest,23,g,true,745.6000000238419,2,g,,1,2,1,
42y,RSVPtest,24,g,false,815.8999999761581,2,g,,1,2,1,
42y,RSVPtest,25,g,true,600.1000000238419,2,g,,3,2,1,
42y,RSVPtest,26,g,true,744.5,2,g,,2,1,1,
42y,RSVPtest,27,g,true,755.8000000119209,2,g,,2,0,1,
42y,RSVPtest,28,g,true,697.0999999642372,2,g,,3,1,1,
42y,RSVPtest,29,g,false,807.7000000476837,0,b,,3,3,0,
42y,RSVPtest,30,g,true,584.6000000238419,2,g,,3,0,1,
42y,RSVPtest,31,g,true,864.3999999761581,0,b,,2,3,0,
42y,RSVPtest,32,g,false,477.4000000357628,0,b,,3,3,0,
42y,RSVPtest,33,g,false,631.3000000119209,2,g,,2,2,2,
42y,RSVPtest,34,g,false,624.8999999761581,2,g,,3,0,1,
42y,RSVPtest,35,g,true,1127.800000011921,2,g,,2,0,1,
42y,RSVPtest,36,g,true,647.6999999880791,2,g,,3,2,1,
42y,RSVPtest,37,g,true,606.5,0,b,,3,3,0,
42y,RSVPtest,38,g,true,745.3000000119209,1,r,,1,1,2,
42y,RSVPtest,39,g,true,631.3999999761581,2,g,,2,1,1,
42y,RSVPtest,40,g,false,853.5,1,r,,1,1,2,
42y,RSVPtest,41,g,true,479.39999997615814,1,r,,1,0,1,
42y,RSVPtest,42,g,true,741.8000000119209,1,r,,3,1,1,
42y,RSVPtest,43,g,true,598.8000000119209,0,b,,1,3,0,
42y,RSVPtest,44,g,true,728.5,0,b,,1,3,0,
42y,RSVPtest,45,g,true,806.3000000119209,2,g,,3,2,1,
42y,RSVPtest,46,g,true,767,2,g,,0,1,1,
42y,RSVPtest,47,g,false,618.7000000476837,2,g,,3,0,1,
42y,RSVPtest,48,g,true,708.8999999761581,0,b,,3,3,0,
42y,RSVPtest,49,g,false,901.3000000119209,2,g,,2,2,2,
42y,RSVPtest,50,g,true,638.9000000357628,1,r,,0,1,1,
42y,RSVPtest,51,g,false,773.8000000119209,0,b,,3,3,0,
42y,RSVPtest,52,g,true,919.3000000119209,2,g,,0,2,1,
42y,RSVPtest,53,g,true,778,2,g,,0,2,1,
42y,RSVPtest,54,g,true,919.3999999761581,2,g,,3,1,1,
42y,RSVPtest,55,g,true,643.7000000476837,1,r,,3,2,1,
42y,RSVPtest,56,g,false,734.1000000238419,2,g,,3,2,1,
42y,RSVPtest,57,g,true,943,1,r,,0,2,1,
42y,RSVPtest,58,g,false,879.7000000476837,1,r,,1,0,1,
42y,RSVPtest,59,g,false,982.6000000238419,0,b,,2,3,0,
42y,RSVPtest,60,g,true,742.9000000357628,0,b,,3,3,0,
brk,brk,brk,brk,brk,brk,brk,brk,brk,brk,brk,brk,
42y,RSVPtest,61,g,false,932.3000000119209,2,g,,1,1,2,
42y,RSVPtest,62,g,true,704.2999999523163,1,r,,2,1,1,
42y,RSVPtest,63,g,true,546.2000000476837,0,b,,0,3,0,
42y,RSVPtest,64,g,true,830.5999999642372,0,b,,1,3,0,
42y,RSVPtest,65,g,false,959.3000000119209,2,g,,0,0,2,
42y,RSVPtest,66,g,true,679.6999999880791,0,b,,0,3,0,
42y,RSVPtest,67,g,false,764.8000000119209,2,g,,1,0,1,
42y,RSVPtest,68,g,true,1350.699999988079,1,r,,2,1,1,
42y,RSVPtest,69,g,true,727.3999999761581,1,r,,0,2,1,
42y,RSVPtest,70,g,true,566.3000000119209,1,r,,3,1,1,
42y,RSVPtest,71,g,true,781.5999999642372,1,r,,3,0,1,
42y,RSVPtest,72,g,true,991.5999999642372,1,r,,3,0,1,
42y,RSVPtest,73,g,true,902.1000000238419,0,b,,1,3,0,
42y,RSVPtest,74,g,true,653.9000000357628,2,g,,3,0,1,
42y,RSVPtest,75,g,true,619.8999999761581,0,b,,1,3,0,
42y,RSVPtest,76,g,false,621,2,g,,1,0,1,
42y,RSVPtest,77,g,true,1052.800000011921,0,b,,3,3,0,
42y,RSVPtest,78,g,true,797.1000000238419,1,r,,3,0,1,
42y,RSVPtest,79,g,true,998.1999999880791,2,g,,3,2,1,
42y,RSVPtest,80,g,false,1085.199999988079,2,g,,2,0,1,
42y,RSVPtest,81,g,true,822,2,g,,0,2,1,
42y,RSVPtest,82,g,true,902.2999999523163,0,b,,0,3,0,
42y,RSVPtest,83,g,true,703.6999999880791,0,b,,3,3,0,
42y,RSVPtest,84,g,true,1213.8999999761581,0,b,,3,3,0,
42y,RSVPtest,85,g,false,1036.5,1,r,,0,0,2,
42y,RSVPtest,86,g,true,926.1000000238419,0,b,,2,3,0,
42y,RSVPtest,87,g,true,789.8000000119209,1,r,,3,1,1,
42y,RSVPtest,88,g,false,853.6999999880791,1,r,,0,1,1,
42y,RSVPtest,89,g,true,798.8000000119209,0,b,,3,3,0,
42y,RSVPtest,90,g,true,838.9000000357628,1,r,,3,2,1,
42y,RSVPtest,91,g,true,758.1999999880791,2,g,,2,1,1,
42y,RSVPtest,92,g,true,1078.9000000357628,2,g,,0,0,2,
42y,RSVPtest,93,g,true,616.3999999761581,1,r,,3,2,1,
42y,RSVPtest,94,g,false,958.5,2,g,,3,1,1,
42y,RSVPtest,95,g,true,1096.7999999523163,1,r,,0,2,1,
42y,RSVPtest,96,g,true,1061.5,0,b,,3,3,0,
42y,RSVPtest,97,g,false,1102.5999999642372,0,b,,0,3,0,
42y,RSVPtest,98,g,true,842.7000000476837,0,b,,3,3,0,
42y,RSVPtest,99,g,true,635.1999999880791,0,b,,3,3,0,
42y,RSVPtest,100,g,false,879.1999999880791,1,r,,3,2,1,
42y,RSVPtest,101,g,true,1135.199999988079,2,g,,3,0,1,
42y,RSVPtest,102,g,true,766.1000000238419,0,b,,3,3,0,
42y,RSVPtest,103,g,true,686,1,r,,3,2,1,
42y,RSVPtest,104,g,false,760,1,r,,1,1,2,
42y,RSVPtest,105,g,false,1053.5,2,g,,0,1,1,
42y,RSVPtest,106,g,true,1191.199999988079,2,g,,1,1,2,
42y,RSVPtest,107,g,true,976.3000000119209,0,b,,3,3,0,
42y,RSVPtest,108,g,true,1324.5,2,g,,1,2,1,
42y,RSVPtest,109,g,true,799.4000000357628,1,r,,3,1,1,
42y,RSVPtest,110,g,false,950.5999999642372,2,g,,3,0,1,
42y,RSVPtest,111,g,true,859.6000000238419,1,r,,2,2,2,
42y,RSVPtest,112,g,true,685.7000000476837,1,r,,3,0,1,
42y,RSVPtest,113,g,true,1415.5,1,r,,2,1,1,
42y,RSVPtest,114,g,true,686,1,r,,3,1,1,
42y,RSVPtest,115,g,false,1029.800000011921,2,g,,0,0,2,
42y,RSVPtest,116,g,true,829.5,1,r,,1,1,2,
42y,RSVPtest,117,g,true,893.3999999761581,0,b,,2,3,0,
42y,RSVPtest,118,g,false,829.5,2,g,,2,2,2,
42y,RSVPtest,119,g,true,810.5,2,g,,1,1,2,
42y,RSVPtest,120,g,true,868.8999999761581,2,g,,0,1,1,
brk,brk,brk,brk,brk,brk,brk,brk,brk,brk,brk,brk,
42y,RSVPtest,121,g,true,1285,0,b,,0,3,0,
42y,RSVPtest,122,g,true,789.5,0,b,,1,3,0,
42y,RSVPtest,123,g,true,639.3000000119209,0,b,,2,3,0,
42y,RSVPtest,124,g,true,651.5,1,r,,1,2,1,
42y,RSVPtest,125,g,false,1629.4000000357628,1,r,,3,1,1,
42y,RSVPtest,126,g,true,861.1999999880791,1,r,,0,0,2,
42y,RSVPtest,127,g,true,729.4000000357628,1,r,,1,0,1,
42y,RSVPtest,128,g,true,671.6999999880791,1,r,,2,0,1,
42y,RSVPtest,129,g,false,654,1,r,,3,2,1,
42y,RSVPtest,130,g,true,563.1000000238419,2,g,,2,1,1,
42y,RSVPtest,131,g,false,685.4000000357628,1,r,,2,1,1,
42y,RSVPtest,132,g,true,653,0,b,,2,3,0,
42y,RSVPtest,133,g,true,1093.6000000238419,0,b,,3,3,0,
42y,RSVPtest,134,g,true,620.5,1,r,,2,2,2,
42y,RSVPtest,135,g,true,546.3999999761581,2,g,,1,2,1,
42y,RSVPtest,136,g,true,598,1,r,,3,2,1,
42y,RSVPtest,137,g,true,700.3999999761581,0,b,,3,3,0,
42y,RSVPtest,138,g,false,531.1999999880791,1,r,,2,0,1,
42y,RSVPtest,139,g,false,807.4000000357628,1,r,,0,2,1,
42y,RSVPtest,140,g,true,652.1000000238419,2,g,,3,2,1,
42y,RSVPtest,141,g,true,812.0999999642372,1,r,,3,0,1,
42y,RSVPtest,142,g,true,1093.199999988079,1,r,,2,2,2,
42y,RSVPtest,143,g,true,731.3000000119209,2,g,,1,1,2,
42y,RSVPtest,144,g,true,748.6000000238419,0,b,,2,3,0,
42y,RSVPtest,145,g,true,655,2,g,,0,1,1,
42y,RSVPtest,146,g,false,1094.5999999642372,1,r,,3,0,1,
42y,RSVPtest,147,g,true,650.1000000238419,0,b,,0,3,0,
42y,RSVPtest,148,g,true,619,1,r,,2,2,2,
42y,RSVPtest,149,g,true,629.8000000119209,2,g,,3,1,1,
42y,RSVPtest,150,g,false,843.5,0,b,,1,3,0,
42y,RSVPtest,151,g,false,642.3000000119209,1,r,,2,1,1,
42y,RSVPtest,152,g,true,1145.199999988079,2,g,,0,1,1,
42y,RSVPtest,153,g,true,1045.1000000238419,0,b,,2,3,0,
42y,RSVPtest,154,g,false,724.1000000238419,2,g,,0,2,1,
42y,RSVPtest,155,g,true,861.2000000476837,2,g,,1,1,2,
42y,RSVPtest,156,g,true,1117.3999999761581,1,r,,1,1,2,
42y,RSVPtest,157,g,false,789.1000000238419,0,b,,1,3,0,
42y,RSVPtest,158,g,true,589.5,0,b,,1,3,0,
42y,RSVPtest,159,g,true,1042.3999999761581,0,b,,2,3,0,
42y,RSVPtest,160,g,false,1013.5,0,b,,2,3,0,
42y,RSVPtest,161,g,false,1653.699999988079,1,r,,1,2,1,
42y,RSVPtest,162,g,false,1060.5,0,b,,0,3,0,
42y,RSVPtest,163,g,false,760.5,2,g,,3,0,1,
42y,RSVPtest,164,g,true,1118.5,1,r,,0,2,1,
42y,RSVPtest,165,g,true,893,0,b,,3,3,0,
42y,RSVPtest,166,g,false,1010.0999999642372,0,b,,0,3,0,
42y,RSVPtest,167,g,true,1052.3999999761581,2,g,,3,2,1,
42y,RSVPtest,168,g,true,1413.2999999523163,2,g,,2,0,1,
42y,RSVPtest,169,g,true,700.0999999642372,1,r,,3,1,1,
42y,RSVPtest,170,g,true,742.0999999642372,2,g,,3,2,1,
42y,RSVPtest,171,g,true,819.6999999880791,2,g,,3,0,1,
42y,RSVPtest,172,g,true,1551.199999988079,2,g,,3,2,1,
42y,RSVPtest,173,g,false,1252,2,g,,3,1,1,
42y,RSVPtest,174,g,false,1155.800000011921,0,b,,0,3,0,
42y,RSVPtest,175,g,true,1605,0,b,,1,3,0,
42y,RSVPtest,176,g,true,1116,2,g,,0,1,1,
42y,RSVPtest,177,g,true,715.8999999761581,2,g,,1,0,1,
42y,RSVPtest,178,g,true,1101,1,r,,2,0,1,
42y,RSVPtest,179,g,true,899.5,2,g,,1,0,1,
42y,RSVPtest,180,g,true,1108.5,0,b,,3,3,0,
brk,brk,brk,brk,brk,brk,brk,brk,brk,brk,brk,brk,
42y,RSVPtest,181,g,true,730.1999999880791,1,r,,3,2,1,
42y,RSVPtest,182,g,true,1485.8999999761581,1,r,,1,0,1,
42y,RSVPtest,183,g,true,1077.2999999523163,2,g,,0,0,2,
42y,RSVPtest,184,g,true,733.5999999642372,0,b,,1,3,0,
42y,RSVPtest,185,g,true,749.1999999880791,1,r,,2,2,2,
42y,RSVPtest,186,g,true,1133.7999999523163,1,r,,0,1,1,
42y,RSVPtest,187,g,true,1020.3000000119209,2,g,,0,0,2,
42y,RSVPtest,188,g,true,892.8999999761581,1,r,,0,2,1,
42y,RSVPtest,189,g,true,925.4000000357628,2,g,,0,2,1,
42y,RSVPtest,190,g,true,701,2,g,,0,0,2,
42y,RSVPtest,191,g,true,1332.800000011921,2,g,,3,0,1,
42y,RSVPtest,192,g,true,684.3000000119209,2,g,,3,2,1,
42y,RSVPtest,193,g,true,1374.199999988079,1,r,,3,0,1,
42y,RSVPtest,194,g,true,716.7000000476837,1,r,,3,1,1,
42y,RSVPtest,195,g,false,838.6999999880791,2,g,,3,2,1,
42y,RSVPtest,196,g,true,1588.300000011921,2,g,,2,1,1,
42y,RSVPtest,197,g,true,723.6999999880791,2,g,,3,0,1,
42y,RSVPtest,198,g,true,1716.2000000476837,0,b,,3,3,0,
42y,RSVPtest,199,g,true,1211.7999999523163,1,r,,0,0,2,
42y,RSVPtest,200,g,true,1197,1,r,,0,0,2,
42y,RSVPtest,201,g,true,1892.300000011921,0,b,,3,3,0,
42y,RSVPtest,202,g,false,762.8999999761581,1,r,,3,2,1,
42y,RSVPtest,203,g,true,961.0999999642372,1,r,,1,0,1,
42y,RSVPtest,204,g,true,1074.699999988079,2,g,,2,2,2,
42y,RSVPtest,205,g,true,821.4000000357628,1,r,,2,0,1,
42y,RSVPtest,206,g,false,2226.5,0,b,,3,3,0,
42y,RSVPtest,207,g,false,842.7000000476837,1,r,,1,2,1,
42y,RSVPtest,208,g,true,1317.199999988079,0,b,,3,3,0,
42y,RSVPtest,209,g,true,1604.1000000238419,2,g,,1,2,1,
42y,RSVPtest,210,g,true,436.19999998807907,0,b,,1,3,0,
42y,RSVPtest,211,g,false,872.5,2,g,,2,2,2,
42y,RSVPtest,212,g,true,828.3000000119209,1,r,,1,0,1,
42y,RSVPtest,213,g,true,1100.7000000476837,2,g,,1,2,1,
42y,RSVPtest,214,g,true,732.6999999880791,2,g,,2,1,1,
42y,RSVPtest,215,g,true,457.0999999642372,1,r,,0,1,1,
42y,RSVPtest,216,g,true,689.3000000119209,1,r,,3,0,1,
42y,RSVPtest,217,g,true,1138.7999999523163,1,r,,1,2,1,
42y,RSVPtest,218,g,false,573.3999999761581,1,r,,3,1,1,
42y,RSVPtest,219,g,true,1434.4000000357628,1,r,,0,1,1,
42y,RSVPtest,220,g,true,1565.1000000238419,1,r,,0,0,2,
42y,RSVPtest,221,g,false,1756.3999999761581,2,g,,3,1,1,
42y,RSVPtest,222,g,true,932,1,r,,3,0,1,
42y,RSVPtest,223,g,false,698.1000000238419,1,r,,0,1,1,
42y,RSVPtest,224,g,false,1212.0999999642372,1,r,,3,2,1,
42y,RSVPtest,225,g,false,2363.600000023842,1,r,,1,2,1,
42y,RSVPtest,226,g,true,1706.0999999642372,1,r,,3,1,1,
42y,RSVPtest,227,g,false,1722.300000011921,2,g,,3,1,1,
42y,RSVPtest,228,g,false,1394.8999999761581,2,g,,3,0,1,
42y,RSVPtest,229,g,true,820.5,1,r,,3,0,1,
42y,RSVPtest,230,g,false,787.0999999642372,2,g,,0,2,1,
42y,RSVPtest,231,g,true,1148.300000011921,2,g,,3,1,1,
42y,RSVPtest,232,g,true,1747.800000011921,1,r,,3,0,1,
42y,RSVPtest,233,g,true,831.8999999761581,2,g,,3,2,1,
42y,RSVPtest,234,g,true,1299.800000011921,0,b,,0,3,0,
42y,RSVPtest,235,g,true,1155.1000000238419,1,r,,1,1,2,
42y,RSVPtest,236,g,true,1428,1,r,,3,2,1,
42y,RSVPtest,237,g,false,1932.800000011921,2,g,,1,0,1,
42y,RSVPtest,238,g,false,1211.8999999761581,2,g,,3,1,1,
42y,RSVPtest,239,g,true,1036.300000011921,2,g,,2,0,1,
42y,RSVPtest,240,g,true,1181,1,r,,2,0,1,
