subID,trialType,trialNum,cntBalance,correct,rt,rwdType,tgtCol,tgtDir,tgtPos,colPos,colMatch,
x09,VDACtrain,0,r,true,638.2999999821186,1,g,h,5,,,
x09,VDACtrain,0,r,true,835,2,r,h,2,,,
x09,VDACtrain,0,r,true,760.5,2,r,v,4,,,
x09,VDACtrain,0,r,null,null,1,g,v,2,,,
x09,VDACtrain,0,r,true,596.3000000119209,1,g,h,3,,,
x09,VDACtrain,0,r,false,57.29999998211861,2,r,h,0,,,
x09,VDACtrain,0,r,null,null,1,g,v,5,,,
x09,VDACtrain,0,r,true,725.5,2,r,v,3,,,
x09,VDACtrain,0,r,true,945.7999999821186,2,r,h,1,,,
x09,VDACtrain,0,r,true,601.2999999821186,1,g,v,0,,,
x09,VDACtest,1,r,false,763.5999999940395,2,r,h,1,,,
x09,VDACtest,2,r,true,505.90000000596046,1,g,v,3,,,
x09,VDACtest,3,r,true,553.3999999761581,1,g,h,5,,,
x09,VDACtest,4,r,true,450.7000000178814,2,r,h,3,,,
x09,VDACtest,5,r,true,649.5999999940395,2,r,h,5,,,
x09,VDACtest,6,r,true,456.39999997615814,1,g,v,3,,,
x09,VDACtest,7,r,true,627.3000000119209,1,g,v,4,,,
x09,VDACtest,8,r,true,586,1,g,h,4,,,
x09,VDACtest,9,r,false,653.6999999880791,1,g,h,0,,,
x09,VDACtest,10,r,false,540.7999999821186,1,g,v,1,,,
x09,VDACtest,11,r,true,922.0999999940395,1,g,h,4,,,
x09,VDACtest,12,r,true,424.59999999403954,2,r,v,0,,,
x09,VDACtest,13,r,false,721.2999999821186,1,g,h,5,,,
x09,VDACtest,14,r,true,435.40000000596046,1,g,h,5,,,
x09,VDACtest,15,r,true,504.5,1,g,h,0,,,
x09,VDACtest,16,r,true,672.7000000178814,2,r,v,0,,,
x09,VDACtest,17,r,true,625.8000000119209,2,r,v,2,,,
x09,VDACtest,18,r,true,587.3999999761581,2,r,h,4,,,
x09,VDACtest,19,r,true,418.7000000178814,1,g,h,4,,,
x09,VDACtest,20,r,true,722.5999999940395,2,r,v,0,,,
x09,VDACtest,21,r,true,818.7999999821186,2,r,h,2,,,
x09,VDACtest,22,r,true,561.5,2,r,h,1,,,
x09,VDACtest,23,r,true,497.90000000596046,1,g,h,2,,,
x09,VDACtest,24,r,true,497.2999999821186,2,r,v,1,,,
x09,VDACtest,25,r,true,729.5,2,r,v,5,,,
x09,VDACtest,26,r,true,538.5999999940395,2,r,v,4,,,
x09,VDACtest,27,r,true,512.2999999821186,1,g,h,1,,,
x09,VDACtest,28,r,true,575.1999999880791,2,r,v,0,,,
x09,VDACtest,29,r,true,473.5,1,g,h,3,,,
x09,VDACtest,30,r,true,620.0999999940395,1,g,h,0,,,
x09,VDACtest,31,r,true,465.2999999821186,1,g,h,5,,,
x09,VDACtest,32,r,true,482.30000001192093,2,r,h,1,,,
x09,VDACtest,33,r,true,658.1999999880791,1,g,v,0,,,
x09,VDACtest,34,r,true,529.7999999821186,1,g,v,5,,,
x09,VDACtest,35,r,true,746,1,g,h,3,,,
x09,VDACtest,36,r,true,552.6999999880791,1,g,v,0,,,
x09,VDACtest,37,r,true,618.2999999821186,1,g,v,4,,,
x09,VDACtest,38,r,true,618.4000000059605,1,g,h,4,,,
x09,VDACtest,39,r,false,800.6999999880791,2,r,v,3,,,
x09,VDACtest,40,r,true,714.7999999821186,1,g,h,0,,,
x09,VDACtest,41,r,true,594.6999999880791,2,r,v,1,,,
x09,VDACtest,42,r,true,488.40000000596046,2,r,v,3,,,
x09,VDACtest,43,r,true,874.2999999821186,1,g,v,1,,,
x09,VDACtest,44,r,true,474.40000000596046,1,g,v,3,,,
x09,VDACtest,45,r,true,585.8000000119209,1,g,h,2,,,
x09,VDACtest,46,r,true,514.7999999821186,1,g,v,4,,,
x09,VDACtest,47,r,true,779.0999999940395,2,r,h,1,,,
x09,VDACtest,48,r,true,873.0999999940395,1,g,v,0,,,
x09,VDACtest,49,r,false,609.5999999940395,2,r,h,3,,,
x09,VDACtest,50,r,true,690.4000000059605,1,g,h,2,,,
brk,brk,brk,brk,brk,brk,brk,brk,brk,brk,brk,brk,
x09,VDACtest,51,r,true,739.9000000059605,1,g,v,2,,,
x09,VDACtest,52,r,true,729,1,g,h,4,,,
x09,VDACtest,53,r,true,469.59999999403954,2,r,v,3,,,
x09,VDACtest,54,r,true,513.5999999940395,2,r,v,0,,,
x09,VDACtest,55,r,false,369.89999997615814,1,g,v,3,,,
x09,VDACtest,56,r,true,617.9000000059605,1,g,h,2,,,
x09,VDACtest,57,r,false,506.5,2,r,h,0,,,
x09,VDACtest,58,r,true,578.2999999821186,1,g,h,4,,,
x09,VDACtest,59,r,false,497.5,1,g,v,1,,,
x09,VDACtest,60,r,true,633.5999999940395,2,r,h,0,,,
x09,VDACtest,61,r,true,610.4000000059605,2,r,h,1,,,
x09,VDACtest,62,r,true,536.2999999821186,1,g,v,3,,,
x09,VDACtest,63,r,true,546.1999999880791,2,r,v,1,,,
x09,VDACtest,64,r,true,775.7999999821186,2,r,v,5,,,
x09,VDACtest,65,r,true,514.7000000178814,1,g,v,2,,,
x09,VDACtest,66,r,true,472.59999999403954,2,r,h,2,,,
x09,VDACtest,67,r,true,423.19999998807907,2,r,h,2,,,
x09,VDACtest,68,r,true,583.7999999821186,1,g,v,2,,,
x09,VDACtest,69,r,true,648.9000000059605,1,g,v,2,,,
x09,VDACtest,70,r,true,983.9000000059605,1,g,v,4,,,
x09,VDACtest,71,r,true,625.0999999940395,2,r,h,0,,,
x09,VDACtest,72,r,true,745.5999999940395,2,r,h,4,,,
x09,VDACtest,73,r,true,584.8999999761581,2,r,h,1,,,
x09,VDACtest,74,r,true,599.6000000238419,2,r,v,4,,,
x09,VDACtest,75,r,true,762.5,1,g,h,3,,,
x09,VDACtest,76,r,true,593.2999999821186,1,g,v,5,,,
x09,VDACtest,77,r,true,785.5999999940395,2,r,v,0,,,
x09,VDACtest,78,r,true,521.5,1,g,h,0,,,
x09,VDACtest,79,r,true,625.0999999940395,1,g,h,3,,,
x09,VDACtest,80,r,true,465.2999999821186,2,r,v,2,,,
x09,VDACtest,81,r,true,561.6999999880791,2,r,v,1,,,
x09,VDACtest,82,r,true,553.2999999821186,1,g,v,5,,,
x09,VDACtest,83,r,true,697.5999999940395,2,r,v,1,,,
x09,VDACtest,84,r,true,457.30000001192093,2,r,v,4,,,
x09,VDACtest,85,r,true,446.39999997615814,1,g,v,5,,,
x09,VDACtest,86,r,true,506.09999999403954,1,g,h,5,,,
x09,VDACtest,87,r,true,737.0999999940395,1,g,h,1,,,
x09,VDACtest,88,r,true,457.69999998807907,2,r,v,5,,,
x09,VDACtest,89,r,true,585.9000000059605,1,g,v,0,,,
x09,VDACtest,90,r,true,683.1999999880791,2,r,h,4,,,
x09,VDACtest,91,r,false,417.40000000596046,2,r,h,0,,,
x09,VDACtest,92,r,true,489.7999999821186,2,r,v,0,,,
x09,VDACtest,93,r,true,618,1,g,h,1,,,
x09,VDACtest,94,r,true,450.40000000596046,2,r,v,4,,,
x09,VDACtest,95,r,true,552.3000000119209,1,g,v,1,,,
x09,VDACtest,96,r,true,427.40000000596046,1,g,h,2,,,
x09,VDACtest,97,r,true,568,2,r,h,3,,,
x09,VDACtest,98,r,true,564.9000000059605,2,r,v,3,,,
x09,VDACtest,99,r,true,618.3000000119209,2,r,h,5,,,
x09,VDACtest,100,r,true,578.0999999940395,2,r,v,3,,,
brk,brk,brk,brk,brk,brk,brk,brk,brk,brk,brk,brk,
x09,VDACtest,101,r,true,473.90000000596046,2,r,h,2,,,
x09,VDACtest,102,r,true,448.5,2,r,h,3,,,
x09,VDACtest,103,r,true,425.69999998807907,2,r,v,2,,,
x09,VDACtest,104,r,true,609.4000000059605,1,g,v,0,,,
x09,VDACtest,105,r,true,343.7999999821186,1,g,v,5,,,
x09,VDACtest,106,r,true,393.19999998807907,2,r,h,5,,,
x09,VDACtest,107,r,true,548,1,g,h,4,,,
x09,VDACtest,108,r,true,312.59999999403954,1,g,v,5,,,
x09,VDACtest,109,r,true,512.3000000119209,1,g,v,4,,,
x09,VDACtest,110,r,false,410.40000000596046,2,r,v,1,,,
x09,VDACtest,111,r,true,432.5,1,g,v,4,,,
x09,VDACtest,112,r,true,466.7999999821186,1,g,h,2,,,
x09,VDACtest,113,r,true,626.2000000178814,2,r,h,4,,,
x09,VDACtest,114,r,false,402.7999999821186,2,r,h,5,,,
x09,VDACtest,115,r,true,418.59999999403954,1,g,h,3,,,
x09,VDACtest,116,r,true,424.59999999403954,2,r,h,2,,,
x09,VDACtest,117,r,true,577.1999999880791,1,g,v,1,,,
x09,VDACtest,118,r,true,497,1,g,v,1,,,
x09,VDACtest,119,r,false,506,2,r,v,4,,,
x09,VDACtest,120,r,true,443.2999999821186,2,r,v,5,,,
x09,VDACtest,121,r,true,488.90000000596046,2,r,v,1,,,
x09,VDACtest,122,r,true,690,2,r,h,4,,,
x09,VDACtest,123,r,false,513.5999999940395,1,g,v,3,,,
x09,VDACtest,124,r,true,466.39999997615814,2,r,h,3,,,
x09,VDACtest,125,r,true,592.4000000059605,2,r,v,5,,,
x09,VDACtest,126,r,true,546,2,r,h,0,,,
x09,VDACtest,127,r,true,738.1999999880791,1,g,h,2,,,
x09,VDACtest,128,r,true,562.5,2,r,v,3,,,
x09,VDACtest,129,r,true,623.5,2,r,v,5,,,
x09,VDACtest,130,r,true,622.4000000059605,1,g,h,3,,,
x09,VDACtest,131,r,true,610.0999999940395,1,g,h,5,,,
x09,VDACtest,132,r,true,744,2,r,v,0,,,
x09,VDACtest,133,r,true,777.5,1,g,v,1,,,
x09,VDACtest,134,r,false,538.5999999940395,2,r,h,5,,,
x09,VDACtest,135,r,true,545.1999999880791,2,r,h,4,,,
x09,VDACtest,136,r,true,552.2999999821186,2,r,v,4,,,
x09,VDACtest,137,r,true,449.80000001192093,1,g,h,1,,,
x09,VDACtest,138,r,true,522.2999999821186,1,g,v,2,,,
x09,VDACtest,139,r,true,603.1999999880791,1,g,v,3,,,
x09,VDACtest,140,r,true,522.0999999940395,1,g,v,4,,,
x09,VDACtest,141,r,true,489.09999999403954,1,g,h,4,,,
x09,VDACtest,142,r,true,545.1999999880791,2,r,v,5,,,
x09,VDACtest,143,r,false,522.3000000119209,1,g,v,2,,,
x09,VDACtest,144,r,true,649.0999999940395,2,r,h,0,,,
x09,VDACtest,145,r,true,810.2999999821186,2,r,v,2,,,
x09,VDACtest,146,r,true,602.0999999940395,1,g,h,3,,,
x09,VDACtest,147,r,true,504.69999998807907,1,g,h,5,,,
x09,VDACtest,148,r,true,609.4000000059605,1,g,h,1,,,
x09,VDACtest,149,r,true,548.0999999940395,1,g,h,0,,,
x09,VDACtest,150,r,true,601.6999999880791,2,r,h,4,,,
brk,brk,brk,brk,brk,brk,brk,brk,brk,brk,brk,brk,
x09,VDACtest,151,r,true,787.4000000059605,1,g,v,4,,,
x09,VDACtest,152,r,true,522.5,2,r,v,2,,,
x09,VDACtest,153,r,true,599.9000000059605,2,r,v,4,,,
x09,VDACtest,154,r,true,482.40000000596046,2,r,v,2,,,
x09,VDACtest,155,r,true,351.59999999403954,2,r,v,2,,,
x09,VDACtest,156,r,true,487.89999997615814,1,g,v,5,,,
x09,VDACtest,157,r,false,409.5,1,g,h,1,,,
x09,VDACtest,158,r,true,512.4000000059605,1,g,h,0,,,
x09,VDACtest,159,r,false,562,2,r,h,5,,,
x09,VDACtest,160,r,false,536.7000000178814,2,r,v,2,,,
x09,VDACtest,161,r,true,560.0999999940395,1,g,h,1,,,
x09,VDACtest,162,r,true,559.5999999940395,2,r,h,0,,,
x09,VDACtest,163,r,true,443.69999998807907,2,r,h,1,,,
x09,VDACtest,164,r,true,649.5999999940395,1,g,v,4,,,
x09,VDACtest,165,r,true,402.19999998807907,1,g,h,3,,,
x09,VDACtest,166,r,false,465.40000000596046,1,g,v,2,,,
x09,VDACtest,167,r,false,568.1999999880791,1,g,h,5,,,
x09,VDACtest,168,r,true,537.0999999940395,1,g,v,0,,,
x09,VDACtest,169,r,true,433.80000001192093,1,g,v,1,,,
x09,VDACtest,170,r,true,453.90000000596046,1,g,v,3,,,
x09,VDACtest,171,r,true,434.5,2,r,h,5,,,
x09,VDACtest,172,r,true,617.4000000059605,1,g,v,1,,,
x09,VDACtest,173,r,true,401.40000000596046,2,r,v,1,,,
x09,VDACtest,174,r,true,506,1,g,v,0,,,
x09,VDACtest,175,r,true,377.19999998807907,1,g,v,0,,,
x09,VDACtest,176,r,false,544.2999999821186,2,r,h,2,,,
x09,VDACtest,177,r,true,456.10000002384186,2,r,v,3,,,
x09,VDACtest,178,r,true,522.3000000119209,2,r,h,4,,,
x09,VDACtest,179,r,true,516.6999999880791,2,r,v,3,,,
x09,VDACtest,180,r,true,413.7999999821186,1,g,v,5,,,
x09,VDACtest,181,r,true,475,2,r,h,3,,,
x09,VDACtest,182,r,true,513,2,r,v,4,,,
x09,VDACtest,183,r,true,465.7999999821186,2,r,h,3,,,
x09,VDACtest,184,r,true,790.4000000059605,1,g,h,1,,,
x09,VDACtest,185,r,true,719.7999999821186,1,g,h,1,,,
x09,VDACtest,186,r,true,648.7999999821186,2,r,v,4,,,
x09,VDACtest,187,r,false,529.5,2,r,v,1,,,
x09,VDACtest,188,r,true,529.4000000059605,1,g,h,0,,,
x09,VDACtest,189,r,true,490.69999998807907,2,r,h,1,,,
x09,VDACtest,190,r,true,727.7000000178814,2,r,h,3,,,
x09,VDACtest,191,r,true,466.19999998807907,2,r,h,0,,,
x09,VDACtest,192,r,true,537.3000000119209,2,r,h,2,,,
x09,VDACtest,193,r,true,482.7000000178814,2,r,v,5,,,
x09,VDACtest,194,r,true,510.2000000178814,2,r,h,4,,,
x09,VDACtest,195,r,true,593.0999999940395,1,g,v,2,,,
x09,VDACtest,196,r,true,487.40000000596046,1,g,h,4,,,
x09,VDACtest,197,r,true,624.8999999761581,2,r,h,1,,,
x09,VDACtest,198,r,true,385.40000000596046,1,g,h,2,,,
x09,VDACtest,199,r,true,521.5,2,r,h,5,,,
x09,VDACtest,200,r,true,424.19999998807907,2,r,h,2,,,
x09,RSVPtrain,0,r,true,812.1999999880791,1,g,,1,0,1,
x09,RSVPtrain,0,r,true,1582.5,0,b,,1,3,0,
x09,RSVPtrain,0,r,false,878.2999999821186,2,r,,3,2,1,
x09,RSVPtrain,0,r,true,539.5,0,b,,3,3,0,
x09,RSVPtrain,0,r,false,536,2,r,,0,0,2,
x09,RSVPtrain,0,r,true,510.5,1,g,,3,1,1,
x09,RSVPtrain,0,r,false,676.4000000059605,2,r,,1,1,2,
x09,RSVPtrain,0,r,false,542.5,1,g,,3,0,1,
x09,RSVPtrain,0,r,true,475.90000000596046,0,b,,0,3,0,
x09,RSVPtrain,0,r,true,470.40000000596046,1,g,,2,2,2,
x09,RSVPtest,1,r,true,454.7000000178814,1,g,,1,2,1,
x09,RSVPtest,2,r,true,500.40000000596046,1,g,,3,1,1,
x09,RSVPtest,3,r,true,684.6999999880791,2,r,,3,0,1,
x09,RSVPtest,4,r,true,540.2999999821186,2,r,,3,1,1,
x09,RSVPtest,5,r,false,659.4000000059605,1,g,,0,1,1,
x09,RSVPtest,6,r,true,489.59999999403954,1,g,,2,0,1,
x09,RSVPtest,7,r,true,413,2,r,,2,0,1,
x09,RSVPtest,8,r,true,501.19999998807907,1,g,,2,2,2,
x09,RSVPtest,9,r,true,415.7000000178814,2,r,,3,1,1,
x09,RSVPtest,10,r,false,738.1999999880791,2,r,,1,0,1,
x09,RSVPtest,11,r,false,510.2999999821186,2,r,,1,2,1,
x09,RSVPtest,12,r,true,467.69999998807907,0,b,,3,3,0,
x09,RSVPtest,13,r,true,484.5,1,g,,0,1,1,
x09,RSVPtest,14,r,true,595.7999999821186,0,b,,0,3,0,
x09,RSVPtest,15,r,true,484.5,1,g,,2,1,1,
x09,RSVPtest,16,r,true,491.2999999821186,0,b,,2,3,0,
x09,RSVPtest,17,r,true,618.7999999821186,2,r,,3,2,1,
x09,RSVPtest,18,r,true,554,1,g,,3,0,1,
x09,RSVPtest,19,r,true,490.90000000596046,1,g,,3,2,1,
x09,RSVPtest,20,r,false,456.5,1,g,,2,2,2,
x09,RSVPtest,21,r,true,916,2,r,,0,0,2,
x09,RSVPtest,22,r,false,425.7999999821186,2,r,,3,0,1,
x09,RSVPtest,23,r,true,460.30000001192093,2,r,,1,1,2,
x09,RSVPtest,24,r,true,537.1999999880791,0,b,,2,3,0,
x09,RSVPtest,25,r,true,580.0999999940395,2,r,,2,1,1,
x09,RSVPtest,26,r,true,453.09999999403954,1,g,,1,0,1,
x09,RSVPtest,27,r,true,698.0999999940395,2,r,,3,2,1,
x09,RSVPtest,28,r,false,580.7999999821186,1,g,,2,1,1,
x09,RSVPtest,29,r,true,620.5999999940395,2,r,,3,1,1,
x09,RSVPtest,30,r,true,627.6999999880791,1,g,,0,0,2,
x09,RSVPtest,31,r,true,765.2000000178814,2,r,,2,1,1,
x09,RSVPtest,32,r,true,564.3000000119209,1,g,,2,1,1,
x09,RSVPtest,33,r,false,664.3000000119209,2,r,,3,1,1,
x09,RSVPtest,34,r,false,786,1,g,,2,2,2,
x09,RSVPtest,35,r,true,701.4000000059605,2,r,,2,0,1,
x09,RSVPtest,36,r,true,443,0,b,,3,3,0,
x09,RSVPtest,37,r,false,773,2,r,,3,1,1,
x09,RSVPtest,38,r,true,475,1,g,,2,0,1,
x09,RSVPtest,39,r,true,613.2000000178814,0,b,,3,3,0,
x09,RSVPtest,40,r,true,716.3000000119209,1,g,,3,2,1,
x09,RSVPtest,41,r,false,596,1,g,,3,1,1,
x09,RSVPtest,42,r,true,579.4000000059605,1,g,,0,0,2,
x09,RSVPtest,43,r,false,595.2000000178814,0,b,,1,3,0,
x09,RSVPtest,44,r,false,733.5,0,b,,3,3,0,
x09,RSVPtest,45,r,true,646.3000000119209,1,g,,0,2,1,
x09,RSVPtest,46,r,false,868.9000000059605,0,b,,3,3,0,
x09,RSVPtest,47,r,true,627.2000000178814,1,g,,3,0,1,
x09,RSVPtest,48,r,true,603.9000000059605,0,b,,1,3,0,
x09,RSVPtest,49,r,false,793.3000000119209,2,r,,0,1,1,
x09,RSVPtest,50,r,true,611.5999999940395,2,r,,3,2,1,
x09,RSVPtest,51,r,true,563.6999999880791,0,b,,3,3,0,
x09,RSVPtest,52,r,true,604,2,r,,1,2,1,
x09,RSVPtest,53,r,true,1540.9000000059605,0,b,,1,3,0,
x09,RSVPtest,54,r,true,804.1999999880791,0,b,,3,3,0,
x09,RSVPtest,55,r,true,679.4000000059605,0,b,,3,3,0,
x09,RSVPtest,56,r,true,547,0,b,,3,3,0,
x09,RSVPtest,57,r,false,706.1000000238419,2,r,,1,2,1,
x09,RSVPtest,58,r,true,667,2,r,,2,2,2,
x09,RSVPtest,59,r,false,555.1999999880791,2,r,,3,2,1,
x09,RSVPtest,60,r,true,671.0999999940395,2,r,,2,0,1,
brk,brk,brk,brk,brk,brk,brk,brk,brk,brk,brk,brk,
x09,RSVPtest,61,r,false,564.2000000178814,0,b,,1,3,0,
x09,RSVPtest,62,r,true,450,2,r,,0,2,1,
x09,RSVPtest,63,r,true,401.69999998807907,0,b,,1,3,0,
x09,RSVPtest,64,r,false,708,0,b,,0,3,0,
x09,RSVPtest,65,r,true,371.5,2,r,,1,0,1,
x09,RSVPtest,66,r,true,547.3000000119209,2,r,,1,1,2,
x09,RSVPtest,67,r,true,594.4000000059605,0,b,,0,3,0,
x09,RSVPtest,68,r,true,568.5,1,g,,3,1,1,
x09,RSVPtest,69,r,true,604.8000000119209,2,r,,3,2,1,
x09,RSVPtest,70,r,true,513.4000000059605,2,r,,3,1,1,
x09,RSVPtest,71,r,false,488.10000002384186,0,b,,3,3,0,
x09,RSVPtest,72,r,true,513.8000000119209,2,r,,0,1,1,
x09,RSVPtest,73,r,false,678.9000000059605,1,g,,3,2,1,
x09,RSVPtest,74,r,true,617,1,g,,1,0,1,
x09,RSVPtest,75,r,true,489.80000001192093,2,r,,1,1,2,
x09,RSVPtest,76,r,true,462.69999998807907,1,g,,1,1,2,
x09,RSVPtest,77,r,true,673.6999999880791,1,g,,1,2,1,
x09,RSVPtest,78,r,false,633.3000000119209,1,g,,3,2,1,
x09,RSVPtest,79,r,true,635.2999999821186,2,r,,1,0,1,
x09,RSVPtest,80,r,true,427.59999999403954,0,b,,0,3,0,
x09,RSVPtest,81,r,true,618.5,2,r,,3,0,1,
x09,RSVPtest,82,r,false,465.5,0,b,,0,3,0,
x09,RSVPtest,83,r,true,419,2,r,,2,1,1,
x09,RSVPtest,84,r,true,498,0,b,,0,3,0,
x09,RSVPtest,85,r,false,698.4000000059605,2,r,,3,2,1,
x09,RSVPtest,86,r,true,366,2,r,,0,0,2,
x09,RSVPtest,87,r,true,355.60000002384186,1,g,,2,0,1,
x09,RSVPtest,88,r,true,331.59999999403954,1,g,,2,0,1,
x09,RSVPtest,89,r,true,676.2000000178814,1,g,,1,2,1,
x09,RSVPtest,90,r,true,330.09999999403954,0,b,,2,3,0,
x09,RSVPtest,91,r,true,370.10000002384186,1,g,,0,2,1,
x09,RSVPtest,92,r,true,483,1,g,,2,1,1,
x09,RSVPtest,93,r,true,577.6999999880791,0,b,,3,3,0,
x09,RSVPtest,94,r,false,467.90000000596046,1,g,,0,2,1,
x09,RSVPtest,95,r,true,675.2999999821186,2,r,,1,0,1,
x09,RSVPtest,96,r,true,682.1999999880791,2,r,,3,1,1,
x09,RSVPtest,97,r,false,459.60000002384186,0,b,,3,3,0,
x09,RSVPtest,98,r,true,447.69999998807907,0,b,,2,3,0,
x09,RSVPtest,99,r,true,376,2,r,,0,0,2,
x09,RSVPtest,100,r,true,404.40000000596046,1,g,,1,2,1,
x09,RSVPtest,101,r,true,523.4000000059605,2,r,,0,1,1,
x09,RSVPtest,102,r,true,674.8000000119209,2,r,,3,2,1,
x09,RSVPtest,103,r,true,730.4000000059605,1,g,,3,0,1,
x09,RSVPtest,104,r,false,528.6999999880791,2,r,,0,2,1,
x09,RSVPtest,105,r,true,482.69999998807907,1,g,,1,1,2,
x09,RSVPtest,106,r,true,633.7000000178814,1,g,,3,1,1,
x09,RSVPtest,107,r,true,859.7000000178814,1,g,,3,2,1,
x09,RSVPtest,108,r,true,331.40000000596046,2,r,,1,0,1,
x09,RSVPtest,109,r,true,290,2,r,,2,0,1,
x09,RSVPtest,110,r,true,489.40000000596046,0,b,,3,3,0,
x09,RSVPtest,111,r,true,555.4000000059605,0,b,,0,3,0,
x09,RSVPtest,112,r,true,560.3999999761581,0,b,,3,3,0,
x09,RSVPtest,113,r,true,510.80000001192093,2,r,,3,1,1,
x09,RSVPtest,114,r,true,467.19999998807907,1,g,,3,0,1,
x09,RSVPtest,115,r,false,466.80000001192093,2,r,,3,2,1,
x09,RSVPtest,116,r,true,768.9000000059605,1,g,,1,0,1,
x09,RSVPtest,117,r,true,634.2999999821186,0,b,,3,3,0,
x09,RSVPtest,118,r,false,592.0999999940395,1,g,,3,0,1,
x09,RSVPtest,119,r,true,449.40000000596046,0,b,,1,3,0,
x09,RSVPtest,120,r,true,603.0999999940395,1,g,,1,2,1,
brk,brk,brk,brk,brk,brk,brk,brk,brk,brk,brk,brk,
x09,RSVPtest,121,r,false,501.5,2,r,,1,2,1,
x09,RSVPtest,122,r,false,512.1999999880791,2,r,,2,2,2,
x09,RSVPtest,123,r,true,497.09999999403954,2,r,,3,0,1,
x09,RSVPtest,124,r,true,361.09999999403954,1,g,,0,1,1,
x09,RSVPtest,125,r,true,514.8000000119209,1,g,,0,2,1,
x09,RSVPtest,126,r,true,691.7000000178814,0,b,,3,3,0,
x09,RSVPtest,127,r,true,355.7999999821186,2,r,,2,2,2,
x09,RSVPtest,128,r,false,504.2000000178814,2,r,,0,2,1,
x09,RSVPtest,129,r,false,622.3999999761581,2,r,,2,2,2,
x09,RSVPtest,130,r,true,417.69999998807907,2,r,,0,0,2,
x09,RSVPtest,131,r,true,570,2,r,,0,2,1,
x09,RSVPtest,132,r,true,583.4000000059605,2,r,,0,0,2,
x09,RSVPtest,133,r,true,369.89999997615814,1,g,,2,2,2,
x09,RSVPtest,134,r,false,541.8000000119209,0,b,,3,3,0,
x09,RSVPtest,135,r,true,833.5,0,b,,3,3,0,
x09,RSVPtest,136,r,true,625.8000000119209,0,b,,0,3,0,
x09,RSVPtest,137,r,false,512.7999999821186,2,r,,3,2,1,
x09,RSVPtest,138,r,true,520.9000000059605,2,r,,0,2,1,
x09,RSVPtest,139,r,true,659.5,1,g,,3,1,1,
x09,RSVPtest,140,r,true,720.5,0,b,,0,3,0,
x09,RSVPtest,141,r,true,449.69999998807907,0,b,,1,3,0,
x09,RSVPtest,142,r,false,632.3000000119209,0,b,,1,3,0,
x09,RSVPtest,143,r,true,826.5,1,g,,3,0,1,
x09,RSVPtest,144,r,false,1456.5999999940395,1,g,,3,0,1,
x09,RSVPtest,145,r,true,536.6999999880791,2,r,,0,1,1,
x09,RSVPtest,146,r,true,651.7000000178814,1,g,,2,0,1,
x09,RSVPtest,147,r,true,385.39999997615814,2,r,,0,1,1,
x09,RSVPtest,148,r,true,829.2000000178814,2,r,,3,0,1,
x09,RSVPtest,149,r,true,378.2000000178814,1,g,,1,1,2,
x09,RSVPtest,150,r,true,601.5999999940395,1,g,,0,0,2,
x09,RSVPtest,151,r,true,426.2000000178814,2,r,,1,1,2,
x09,RSVPtest,152,r,true,343,1,g,,1,1,2,
x09,RSVPtest,153,r,true,546.6999999880791,2,r,,0,2,1,
x09,RSVPtest,154,r,false,569.3000000119209,2,r,,3,1,1,
x09,RSVPtest,155,r,true,308.5,1,g,,2,2,2,
x09,RSVPtest,156,r,true,327.2000000178814,0,b,,1,3,0,
x09,RSVPtest,157,r,true,666.6999999880791,0,b,,2,3,0,
x09,RSVPtest,158,r,true,546.5,2,r,,3,0,1,
x09,RSVPtest,159,r,false,809.3000000119209,2,r,,1,2,1,
x09,RSVPtest,160,r,true,625,1,g,,3,2,1,
x09,RSVPtest,161,r,false,486.60000002384186,2,r,,2,2,2,
x09,RSVPtest,162,r,true,634,1,g,,3,1,1,
x09,RSVPtest,163,r,true,617.8000000119209,1,g,,2,0,1,
x09,RSVPtest,164,r,true,384.59999999403954,2,r,,1,2,1,
x09,RSVPtest,165,r,false,529.3999999761581,2,r,,3,0,1,
x09,RSVPtest,166,r,true,657.0999999940395,0,b,,3,3,0,
x09,RSVPtest,167,r,true,537.5999999940395,0,b,,3,3,0,
x09,RSVPtest,168,r,true,480.09999999403954,1,g,,1,2,1,
x09,RSVPtest,169,r,false,530.4000000059605,0,b,,2,3,0,
x09,RSVPtest,170,r,true,496.59999999403954,0,b,,0,3,0,
x09,RSVPtest,171,r,true,544.1000000238419,2,r,,0,1,1,
x09,RSVPtest,172,r,true,686.9000000059605,1,g,,3,0,1,
x09,RSVPtest,173,r,true,639.5,2,r,,3,0,1,
x09,RSVPtest,174,r,true,758.5999999940395,1,g,,1,0,1,
x09,RSVPtest,175,r,true,640.6999999880791,1,g,,3,2,1,
x09,RSVPtest,176,r,true,833.4000000059605,0,b,,2,3,0,
x09,RSVPtest,177,r,true,585.5999999940395,2,r,,3,1,1,
x09,RSVPtest,178,r,true,759.8000000119209,1,g,,1,0,1,
x09,RSVPtest,179,r,true,606.3999999761581,1,g,,3,1,1,
x09,RSVPtest,180,r,true,593.8000000119209,2,r,,3,1,1,
brk,brk,brk,brk,brk,brk,brk,brk,brk,brk,brk,brk,
x09,RSVPtest,181,r,true,442.80000001192093,1,g,,0,2,1,
x09,RSVPtest,182,r,false,487.30000001192093,2,r,,3,2,1,
x09,RSVPtest,183,r,true,687.8999999761581,0,b,,3,3,0,
x09,RSVPtest,184,r,true,642.3000000119209,0,b,,1,3,0,
x09,RSVPtest,185,r,false,817.2999999821186,1,g,,0,1,1,
x09,RSVPtest,186,r,true,727.4000000059605,0,b,,3,3,0,
x09,RSVPtest,187,r,true,608.5,0,b,,2,3,0,
x09,RSVPtest,188,r,true,451.40000000596046,1,g,,0,0,2,
x09,RSVPtest,189,r,true,725.5,2,r,,3,1,1,
x09,RSVPtest,190,r,true,713.0999999940395,2,r,,2,0,1,
x09,RSVPtest,191,r,true,558.2999999821186,0,b,,3,3,0,
x09,RSVPtest,192,r,true,520.3000000119209,1,g,,3,1,1,
x09,RSVPtest,193,r,true,497.59999999403954,2,r,,3,0,1,
x09,RSVPtest,194,r,true,792.0999999940395,1,g,,2,1,1,
x09,RSVPtest,195,r,false,590.0999999940395,1,g,,2,1,1,
x09,RSVPtest,196,r,true,568.5,1,g,,3,1,1,
x09,RSVPtest,197,r,true,703.3999999761581,2,r,,3,0,1,
x09,RSVPtest,198,r,true,705.1000000238419,1,g,,3,2,1,
x09,RSVPtest,199,r,true,593.0999999940395,1,g,,2,2,2,
x09,RSVPtest,200,r,true,535,1,g,,3,2,1,
x09,RSVPtest,201,r,true,567.8999999761581,0,b,,2,3,0,
x09,RSVPtest,202,r,true,622.0999999940395,2,r,,1,0,1,
x09,RSVPtest,203,r,true,601.0999999940395,0,b,,2,3,0,
x09,RSVPtest,204,r,true,639.9000000059605,1,g,,0,0,2,
x09,RSVPtest,205,r,true,577.1999999880791,1,g,,0,1,1,
x09,RSVPtest,206,r,true,834.5999999940395,0,b,,3,3,0,
x09,RSVPtest,207,r,true,520,0,b,,0,3,0,
x09,RSVPtest,208,r,false,754.5,0,b,,1,3,0,
x09,RSVPtest,209,r,true,617.2999999821186,1,g,,3,1,1,
x09,RSVPtest,210,r,false,879,1,g,,3,1,1,
x09,RSVPtest,211,r,true,507.5,2,r,,3,2,1,
x09,RSVPtest,212,r,true,473,2,r,,3,0,1,
x09,RSVPtest,213,r,false,728.1999999880791,2,r,,3,0,1,
x09,RSVPtest,214,r,true,391.7000000178814,2,r,,2,1,1,
x09,RSVPtest,215,r,true,456,2,r,,2,1,1,
x09,RSVPtest,216,r,true,614.0999999940395,1,g,,0,2,1,
x09,RSVPtest,217,r,true,632.4000000059605,0,b,,0,3,0,
x09,RSVPtest,218,r,true,647.7000000178814,2,r,,2,0,1,
x09,RSVPtest,219,r,true,400.7999999821186,2,r,,2,1,1,
x09,RSVPtest,220,r,false,1248.9000000059605,2,r,,3,2,1,
x09,RSVPtest,221,r,true,535.9000000059605,1,g,,3,1,1,
x09,RSVPtest,222,r,true,365.7000000178814,2,r,,1,1,2,
x09,RSVPtest,223,r,true,484.2999999821186,0,b,,1,3,0,
x09,RSVPtest,224,r,false,213.5,2,r,,2,2,2,
x09,RSVPtest,225,r,false,544.5,1,g,,3,0,1,
x09,RSVPtest,226,r,true,470.90000000596046,2,r,,1,1,2,
x09,RSVPtest,227,r,true,361.2999999821186,1,g,,1,1,2,
x09,RSVPtest,228,r,true,686,1,g,,1,0,1,
x09,RSVPtest,229,r,false,761.1999999880791,1,g,,0,1,1,
x09,RSVPtest,230,r,true,832.1000000238419,1,g,,3,0,1,
x09,RSVPtest,231,r,true,624.1999999880791,0,b,,2,3,0,
x09,RSVPtest,232,r,true,728.4000000059605,1,g,,3,0,1,
x09,RSVPtest,233,r,false,600.5,1,g,,0,0,2,
x09,RSVPtest,234,r,false,479.90000000596046,1,g,,3,2,1,
x09,RSVPtest,235,r,true,584.1999999880791,1,g,,3,2,1,
x09,RSVPtest,236,r,true,607.9000000059605,1,g,,1,1,2,
x09,RSVPtest,237,r,true,599,1,g,,3,0,1,
x09,RSVPtest,238,r,true,854.9000000059605,2,r,,0,0,2,
x09,RSVPtest,239,r,true,689.8999999761581,1,g,,3,2,1,
x09,RSVPtest,240,r,true,625.1000000238419,0,b,,2,3,0,
