subID,trialType,trialNum,cntBalance,correct,rt,rwdType,tgtCol,tgtDir,tgtPos,colPos,colMatch,
111,VDACtrain,0,r,false,948.5,2,r,h,0,,,
111,VDACtrain,0,r,true,905.4000000357628,2,r,h,2,,,
111,VDACtrain,0,r,true,911.6000000238419,2,r,v,3,,,
111,VDACtrain,0,r,true,625.3999999761581,1,g,h,3,,,
111,VDACtrain,0,r,true,487.30000001192093,1,g,v,0,,,
111,VDACtrain,0,r,true,696.0999999642372,2,r,v,4,,,
111,VDACtrain,0,r,false,648.3999999761581,1,g,v,2,,,
111,VDACtrain,0,r,true,760.3999999761581,1,g,h,5,,,
111,VDACtrain,0,r,null,null,2,r,h,1,,,
111,VDACtrain,0,r,true,488.80000001192093,1,g,v,5,,,
111,VDACtrain,0,r,true,574,1,g,v,0,,,
111,VDACtrain,0,r,true,815.3999999761581,1,g,h,3,,,
111,VDACtrain,0,r,true,905.8000000119209,2,r,h,1,,,
111,VDACtrain,0,r,true,538.0999999642372,2,r,v,3,,,
111,VDACtrain,0,r,true,503.19999998807907,2,r,v,4,,,
111,VDACtrain,0,r,true,873,2,r,h,2,,,
111,VDACtrain,0,r,true,520.4000000357628,1,g,v,5,,,
111,VDACtrain,0,r,true,656.2999999523163,1,g,v,2,,,
111,VDACtrain,0,r,true,532.5,1,g,h,5,,,
111,VDACtrain,0,r,true,657.3000000119209,2,r,h,0,,,
111,VDACtest,1,r,true,595.3999999761581,2,r,h,1,,,
111,VDACtest,2,r,true,440,1,g,v,2,,,
111,VDACtest,3,r,true,487.5,1,g,h,0,,,
111,VDACtest,4,r,true,537.8000000119209,2,r,v,1,,,
111,VDACtest,5,r,true,472.0999999642372,1,g,v,4,,,
111,VDACtest,6,r,true,406.80000001192093,2,r,h,5,,,
111,VDACtest,7,r,true,496,1,g,h,1,,,
111,VDACtest,8,r,true,481.2000000476837,2,r,v,0,,,
111,VDACtest,9,r,true,471.0999999642372,2,r,v,4,,,
111,VDACtest,10,r,true,532.8000000119209,1,g,h,5,,,
111,VDACtest,11,r,false,456.10000002384186,1,g,v,5,,,
111,VDACtest,12,r,true,440.19999998807907,1,g,v,4,,,
111,VDACtest,13,r,true,696.8000000119209,2,r,h,4,,,
111,VDACtest,14,r,true,600.3999999761581,1,g,h,4,,,
111,VDACtest,15,r,true,631.6000000238419,2,r,h,0,,,
111,VDACtest,16,r,true,441.39999997615814,2,r,v,0,,,
111,VDACtest,17,r,true,582.6999999880791,2,r,h,5,,,
111,VDACtest,18,r,true,654.1999999880791,2,r,h,2,,,
111,VDACtest,19,r,true,456.69999998807907,1,g,v,0,,,
111,VDACtest,20,r,true,430.2999999523163,2,r,v,0,,,
111,VDACtest,21,r,true,424,1,g,h,0,,,
111,VDACtest,22,r,true,424.89999997615814,1,g,v,5,,,
111,VDACtest,23,r,true,536.5,1,g,h,3,,,
111,VDACtest,24,r,true,520.7999999523163,1,g,v,1,,,
111,VDACtest,25,r,true,473.69999998807907,1,g,v,1,,,
111,VDACtest,26,r,true,544.6999999880791,1,g,v,4,,,
111,VDACtest,27,r,true,439.5,1,g,v,4,,,
111,VDACtest,28,r,true,480.19999998807907,2,r,v,4,,,
111,VDACtest,29,r,true,462.10000002384186,1,g,v,0,,,
111,VDACtest,30,r,true,400.5,2,r,v,4,,,
111,VDACtest,31,r,true,529.1999999880791,1,g,v,1,,,
111,VDACtest,32,r,true,647.2000000476837,1,g,h,4,,,
111,VDACtest,33,r,true,823.5,2,r,v,2,,,
111,VDACtest,34,r,true,550,1,g,h,1,,,
111,VDACtest,35,r,true,479.60000002384186,2,r,v,5,,,
111,VDACtest,36,r,true,432.4000000357628,1,g,h,2,,,
111,VDACtest,37,r,true,582.8999999761581,1,g,v,3,,,
111,VDACtest,38,r,true,400.2999999523163,1,g,v,3,,,
111,VDACtest,39,r,true,624.6000000238419,2,r,h,0,,,
111,VDACtest,40,r,true,416.7999999523163,2,r,v,2,,,
111,VDACtest,41,r,true,447.19999998807907,1,g,h,4,,,
111,VDACtest,42,r,true,440.2999999523163,1,g,h,3,,,
111,VDACtest,43,r,true,542.8999999761581,1,g,h,2,,,
111,VDACtest,44,r,true,439.30000001192093,2,r,v,3,,,
111,VDACtest,45,r,true,406.7999999523163,2,r,v,3,,,
111,VDACtest,46,r,true,646.3000000119209,2,r,h,1,,,
111,VDACtest,47,r,true,424.30000001192093,2,r,v,5,,,
111,VDACtest,48,r,true,608.5,1,g,v,1,,,
111,VDACtest,49,r,true,448,1,g,h,3,,,
111,VDACtest,50,r,true,527.8999999761581,2,r,h,1,,,
brk,brk,brk,brk,brk,brk,brk,brk,brk,brk,brk,brk,
111,VDACtest,51,r,true,533.1000000238419,2,r,v,2,,,
111,VDACtest,52,r,true,415.2999999523163,2,r,h,0,,,
111,VDACtest,53,r,true,359,2,r,v,1,,,
111,VDACtest,54,r,true,384.4000000357628,2,r,h,0,,,
111,VDACtest,55,r,true,536,1,g,h,1,,,
111,VDACtest,56,r,true,495.0999999642372,1,g,v,5,,,
111,VDACtest,57,r,true,487.10000002384186,1,g,h,4,,,
111,VDACtest,58,r,false,455.5,2,r,v,3,,,
111,VDACtest,59,r,true,511.9000000357628,2,r,h,4,,,
111,VDACtest,60,r,true,384.30000001192093,2,r,v,5,,,
111,VDACtest,61,r,true,464.30000001192093,2,r,v,4,,,
111,VDACtest,62,r,true,407.80000001192093,1,g,v,0,,,
111,VDACtest,63,r,true,417,2,r,h,5,,,
111,VDACtest,64,r,true,487.5,2,r,v,3,,,
111,VDACtest,65,r,true,655.1999999880791,1,g,v,3,,,
111,VDACtest,66,r,true,424.39999997615814,2,r,v,2,,,
111,VDACtest,67,r,true,359.10000002384186,2,r,v,5,,,
111,VDACtest,68,r,true,384.2000000476837,2,r,v,1,,,
111,VDACtest,69,r,true,488.69999998807907,2,r,h,0,,,
111,VDACtest,70,r,true,368.60000002384186,2,r,v,1,,,
111,VDACtest,71,r,true,463.60000002384186,1,g,v,4,,,
111,VDACtest,72,r,true,439.89999997615814,2,r,h,0,,,
111,VDACtest,73,r,true,527.6999999880791,2,r,h,2,,,
111,VDACtest,74,r,true,407.80000001192093,1,g,v,2,,,
111,VDACtest,75,r,true,391.5999999642372,1,g,v,5,,,
111,VDACtest,76,r,true,382.89999997615814,1,g,v,0,,,
111,VDACtest,77,r,true,585,2,r,h,1,,,
111,VDACtest,78,r,true,441.60000002384186,1,g,v,4,,,
111,VDACtest,79,r,true,432,1,g,h,5,,,
111,VDACtest,80,r,true,472.19999998807907,1,g,h,0,,,
111,VDACtest,81,r,true,543.2000000476837,2,r,h,3,,,
111,VDACtest,82,r,true,558.9000000357628,1,g,v,2,,,
111,VDACtest,83,r,true,489.39999997615814,2,r,h,2,,,
111,VDACtest,84,r,true,480.0999999642372,1,g,h,5,,,
111,VDACtest,85,r,false,502.5999999642372,1,g,h,1,,,
111,VDACtest,86,r,true,415.80000001192093,1,g,h,2,,,
111,VDACtest,87,r,true,425.80000001192093,1,g,h,3,,,
111,VDACtest,88,r,true,535.4000000357628,1,g,v,3,,,
111,VDACtest,89,r,true,449.5,1,g,h,1,,,
111,VDACtest,90,r,true,351.19999998807907,1,g,v,1,,,
111,VDACtest,91,r,false,528.7000000476837,2,r,v,2,,,
111,VDACtest,92,r,true,462.5,2,r,h,2,,,
111,VDACtest,93,r,true,527.3000000119209,2,r,h,2,,,
111,VDACtest,94,r,true,423.89999997615814,1,g,v,3,,,
111,VDACtest,95,r,true,485.89999997615814,2,r,h,1,,,
111,VDACtest,96,r,true,523.8999999761581,1,g,h,0,,,
111,VDACtest,97,r,true,417.10000002384186,1,g,v,4,,,
111,VDACtest,98,r,true,423.60000002384186,1,g,v,0,,,
111,VDACtest,99,r,true,464.80000001192093,1,g,v,3,,,
111,VDACtest,100,r,true,470.5,1,g,v,4,,,
brk,brk,brk,brk,brk,brk,brk,brk,brk,brk,brk,brk,
111,VDACtest,101,r,true,464.5,2,r,v,4,,,
111,VDACtest,102,r,true,583.9000000357628,1,g,h,1,,,
111,VDACtest,103,r,true,416.80000001192093,1,g,v,0,,,
111,VDACtest,104,r,true,432.19999998807907,2,r,v,4,,,
111,VDACtest,105,r,true,678.4000000357628,1,g,h,1,,,
111,VDACtest,106,r,true,494.39999997615814,2,r,h,4,,,
111,VDACtest,107,r,true,487.80000001192093,2,r,h,5,,,
111,VDACtest,108,r,true,488.7999999523163,1,g,v,3,,,
111,VDACtest,109,r,true,447.89999997615814,1,g,v,1,,,
111,VDACtest,110,r,true,536.8000000119209,1,g,h,1,,,
111,VDACtest,111,r,true,438.2999999523163,2,r,v,5,,,
111,VDACtest,112,r,true,449.0999999642372,2,r,v,2,,,
111,VDACtest,113,r,true,391.7000000476837,1,g,v,2,,,
111,VDACtest,114,r,true,462.5,2,r,h,1,,,
111,VDACtest,115,r,true,455.80000001192093,2,r,h,2,,,
111,VDACtest,116,r,true,445.30000001192093,2,r,h,1,,,
111,VDACtest,117,r,true,624.1000000238419,2,r,h,4,,,
111,VDACtest,118,r,true,479.89999997615814,1,g,h,3,,,
111,VDACtest,119,r,true,501.89999997615814,1,g,h,0,,,
111,VDACtest,120,r,true,525.6999999880791,2,r,h,4,,,
111,VDACtest,121,r,true,438.39999997615814,1,g,h,2,,,
111,VDACtest,122,r,true,520.6999999880791,1,g,v,2,,,
111,VDACtest,123,r,true,486.5,2,r,h,3,,,
111,VDACtest,124,r,true,479.9000000357628,2,r,h,0,,,
111,VDACtest,125,r,true,471.89999997615814,1,g,v,3,,,
111,VDACtest,126,r,true,480.19999998807907,1,g,v,2,,,
111,VDACtest,127,r,true,471.69999998807907,2,r,h,3,,,
111,VDACtest,128,r,true,695,2,r,h,1,,,
111,VDACtest,129,r,true,519.1999999880791,2,r,h,4,,,
111,VDACtest,130,r,true,472.5,1,g,h,0,,,
111,VDACtest,131,r,true,439.89999997615814,1,g,v,4,,,
111,VDACtest,132,r,true,432.39999997615814,1,g,h,4,,,
111,VDACtest,133,r,true,439.2999999523163,1,g,h,4,,,
111,VDACtest,134,r,true,503.19999998807907,2,r,v,5,,,
111,VDACtest,135,r,true,478.9000000357628,2,r,h,4,,,
111,VDACtest,136,r,true,477.4000000357628,1,g,h,2,,,
111,VDACtest,137,r,true,479.30000001192093,1,g,h,3,,,
111,VDACtest,138,r,true,503.30000001192093,1,g,h,5,,,
111,VDACtest,139,r,true,390.89999997615814,2,r,v,0,,,
111,VDACtest,140,r,true,518.8000000119209,2,r,v,2,,,
111,VDACtest,141,r,true,487.89999997615814,1,g,v,5,,,
111,VDACtest,142,r,true,479.5,2,r,v,3,,,
111,VDACtest,143,r,true,471.39999997615814,2,r,v,2,,,
111,VDACtest,144,r,true,534.8000000119209,1,g,h,3,,,
111,VDACtest,145,r,true,575.3999999761581,2,r,h,1,,,
111,VDACtest,146,r,true,543.8999999761581,2,r,v,1,,,
111,VDACtest,147,r,true,446.80000001192093,1,g,v,5,,,
111,VDACtest,148,r,true,464.69999998807907,2,r,h,3,,,
111,VDACtest,149,r,true,416.30000001192093,1,g,v,2,,,
111,VDACtest,150,r,true,422.10000002384186,1,g,v,5,,,
brk,brk,brk,brk,brk,brk,brk,brk,brk,brk,brk,brk,
111,VDACtest,151,r,true,469.4000000357628,2,r,v,1,,,
111,VDACtest,152,r,true,383.69999998807907,2,r,v,0,,,
111,VDACtest,153,r,false,436.9000000357628,2,r,h,3,,,
111,VDACtest,154,r,true,479.89999997615814,2,r,v,4,,,
111,VDACtest,155,r,true,446.60000002384186,2,r,v,0,,,
111,VDACtest,156,r,true,519.1000000238419,2,r,h,5,,,
111,VDACtest,157,r,true,671.5,1,g,v,1,,,
111,VDACtest,158,r,true,431,1,g,v,1,,,
111,VDACtest,159,r,true,542.8000000119209,1,g,h,5,,,
111,VDACtest,160,r,true,456.19999998807907,2,r,v,3,,,
111,VDACtest,161,r,true,470.60000002384186,1,g,v,0,,,
111,VDACtest,162,r,true,591.2000000476837,2,r,h,5,,,
111,VDACtest,163,r,true,432.2999999523163,1,g,h,5,,,
111,VDACtest,164,r,true,520.1999999880791,2,r,v,3,,,
111,VDACtest,165,r,true,391.5999999642372,2,r,h,0,,,
111,VDACtest,166,r,true,480.69999998807907,2,r,v,5,,,
111,VDACtest,167,r,true,455.0999999642372,2,r,h,4,,,
111,VDACtest,168,r,true,472.9000000357628,2,r,v,4,,,
111,VDACtest,169,r,true,433.2000000476837,1,g,h,0,,,
111,VDACtest,170,r,true,390.0999999642372,2,r,v,3,,,
111,VDACtest,171,r,true,566.9000000357628,1,g,h,2,,,
111,VDACtest,172,r,true,479.69999998807907,1,g,h,4,,,
111,VDACtest,173,r,true,468.69999998807907,1,g,h,4,,,
111,VDACtest,174,r,true,448.5999999642372,2,r,v,1,,,
111,VDACtest,175,r,true,406.5,2,r,v,0,,,
111,VDACtest,176,r,true,424,2,r,v,1,,,
111,VDACtest,177,r,true,384.89999997615814,1,g,v,1,,,
111,VDACtest,178,r,true,455.0999999642372,2,r,h,3,,,
111,VDACtest,179,r,true,432.19999998807907,1,g,v,2,,,
111,VDACtest,180,r,true,479.80000001192093,1,g,h,2,,,
111,VDACtest,181,r,true,447.2999999523163,2,r,h,4,,,
111,VDACtest,182,r,true,412.10000002384186,2,r,h,3,,,
111,VDACtest,183,r,true,457,2,r,h,5,,,
111,VDACtest,184,r,true,512.1000000238419,2,r,v,4,,,
111,VDACtest,185,r,true,502,2,r,v,1,,,
111,VDACtest,186,r,true,422.39999997615814,1,g,h,5,,,
111,VDACtest,187,r,true,376.0999999642372,1,g,v,0,,,
111,VDACtest,188,r,true,464.2999999523163,2,r,h,3,,,
111,VDACtest,189,r,true,407.19999998807907,1,g,v,5,,,
111,VDACtest,190,r,true,439.9000000357628,2,r,h,2,,,
111,VDACtest,191,r,true,487.69999998807907,1,g,h,5,,,
111,VDACtest,192,r,true,416.7999999523163,2,r,v,0,,,
111,VDACtest,193,r,true,536.6000000238419,1,g,h,1,,,
111,VDACtest,194,r,true,439.10000002384186,2,r,h,2,,,
111,VDACtest,195,r,true,423.5,2,r,h,5,,,
111,VDACtest,196,r,true,351.7000000476837,2,r,v,5,,,
111,VDACtest,197,r,true,375.2999999523163,1,g,h,2,,,
111,VDACtest,198,r,true,415.10000002384186,1,g,h,0,,,
111,VDACtest,199,r,true,446.39999997615814,1,g,h,3,,,
111,VDACtest,200,r,true,471.80000001192093,1,g,h,4,,,
111,RSVPtrain,0,r,true,1960,2,r,,1,1,2,
111,RSVPtrain,0,r,true,1451.5999999642372,1,g,,3,0,1,
111,RSVPtrain,0,r,true,1552.800000011921,2,r,,0,0,2,
111,RSVPtrain,0,r,true,1386.300000011921,0,b,,1,3,0,
111,RSVPtrain,0,r,true,984.6999999880791,1,g,,1,0,1,
111,RSVPtrain,0,r,true,1259.5,1,g,,2,2,2,
111,RSVPtrain,0,r,true,1177.5,0,b,,0,3,0,
111,RSVPtrain,0,r,true,2036.199999988079,0,b,,3,3,0,
111,RSVPtrain,0,r,true,1217.199999988079,1,g,,3,1,1,
111,RSVPtrain,0,r,true,905.5,2,r,,3,2,1,
111,RSVPtest,1,r,true,1026.5,1,g,,3,1,1,
111,RSVPtest,2,r,true,1217.5,0,b,,3,3,0,
111,RSVPtest,3,r,true,721,0,b,,1,3,0,
111,RSVPtest,4,r,true,978.5,2,r,,1,0,1,
111,RSVPtest,5,r,true,1250.0999999642372,2,r,,1,1,2,
111,RSVPtest,6,r,true,809.2000000476837,0,b,,3,3,0,
111,RSVPtest,7,r,true,1234.199999988079,0,b,,0,3,0,
111,RSVPtest,8,r,true,930.1999999880791,1,g,,2,1,1,
111,RSVPtest,9,r,true,903.8000000119209,2,r,,1,2,1,
111,RSVPtest,10,r,true,944.5,1,g,,3,1,1,
111,RSVPtest,11,r,true,1835.199999988079,0,b,,2,3,0,
111,RSVPtest,12,r,true,912.3000000119209,2,r,,2,0,1,
111,RSVPtest,13,r,true,896.8000000119209,2,r,,3,1,1,
111,RSVPtest,14,r,true,584.4000000357628,2,r,,1,1,2,
111,RSVPtest,15,r,false,1833.8999999761581,0,b,,3,3,0,
111,RSVPtest,16,r,true,761.6999999880791,2,r,,3,2,1,
111,RSVPtest,17,r,false,1152.3999999761581,2,r,,3,2,1,
111,RSVPtest,18,r,true,833.1999999880791,2,r,,2,0,1,
111,RSVPtest,19,r,true,1066.0999999642372,1,g,,1,1,2,
111,RSVPtest,20,r,true,1432.1000000238419,2,r,,3,2,1,
111,RSVPtest,21,r,true,841,2,r,,3,0,1,
111,RSVPtest,22,r,true,1165.2000000476837,2,r,,0,2,1,
111,RSVPtest,23,r,true,943,1,g,,2,1,1,
111,RSVPtest,24,r,false,1280.800000011921,2,r,,0,2,1,
111,RSVPtest,25,r,true,871.3999999761581,0,b,,0,3,0,
111,RSVPtest,26,r,true,818.0999999642372,2,r,,1,2,1,
111,RSVPtest,27,r,true,1000.8999999761581,2,r,,0,0,2,
111,RSVPtest,28,r,true,709.3999999761581,2,r,,3,2,1,
111,RSVPtest,29,r,false,1304.699999988079,2,r,,3,1,1,
111,RSVPtest,30,r,true,1096.699999988079,2,r,,3,2,1,
111,RSVPtest,31,r,true,1048.199999988079,0,b,,2,3,0,
111,RSVPtest,32,r,true,1258,1,g,,0,0,2,
111,RSVPtest,33,r,true,2193.7999999523163,1,g,,3,0,1,
111,RSVPtest,34,r,true,711.8000000119209,0,b,,1,3,0,
111,RSVPtest,35,r,true,696.5,0,b,,3,3,0,
111,RSVPtest,36,r,true,1593.7000000476837,0,b,,3,3,0,
111,RSVPtest,37,r,true,1065.7000000476837,1,g,,0,1,1,
111,RSVPtest,38,r,true,1709.800000011921,1,g,,0,0,2,
111,RSVPtest,39,r,true,803.8000000119209,1,g,,1,2,1,
111,RSVPtest,40,r,true,616,0,b,,1,3,0,
111,RSVPtest,41,r,true,732.3999999761581,2,r,,0,1,1,
111,RSVPtest,42,r,true,771.6000000238419,0,b,,0,3,0,
111,RSVPtest,43,r,true,795.5999999642372,0,b,,0,3,0,
111,RSVPtest,44,r,true,737.8999999761581,0,b,,0,3,0,
111,RSVPtest,45,r,true,644,2,r,,0,0,2,
111,RSVPtest,46,r,true,728.6000000238419,0,b,,3,3,0,
111,RSVPtest,47,r,true,538.6999999880791,2,r,,2,2,2,
111,RSVPtest,48,r,true,881.4000000357628,2,r,,3,1,1,
111,RSVPtest,49,r,true,631.7999999523163,1,g,,3,2,1,
111,RSVPtest,50,r,true,586.2000000476837,2,r,,3,1,1,
111,RSVPtest,51,r,true,930.3000000119209,2,r,,0,1,1,
111,RSVPtest,52,r,true,1113.300000011921,1,g,,3,2,1,
111,RSVPtest,53,r,true,1431.5,0,b,,3,3,0,
111,RSVPtest,54,r,true,529.7999999523163,2,r,,0,0,2,
111,RSVPtest,55,r,true,1489.4000000357628,1,g,,1,1,2,
111,RSVPtest,56,r,true,1632,2,r,,3,0,1,
111,RSVPtest,57,r,true,826.5999999642372,1,g,,2,1,1,
111,RSVPtest,58,r,false,2152.5,2,r,,3,0,1,
111,RSVPtest,59,r,true,560.7999999523163,1,g,,2,2,2,
111,RSVPtest,60,r,true,1461.5,1,g,,1,2,1,
brk,brk,brk,brk,brk,brk,brk,brk,brk,brk,brk,brk,
111,RSVPtest,61,r,true,830.8999999761581,2,r,,1,1,2,
111,RSVPtest,62,r,true,641.1999999880791,1,g,,1,2,1,
111,RSVPtest,63,r,true,657.5,0,b,,3,3,0,
111,RSVPtest,64,r,true,1215.300000011921,1,g,,2,1,1,
111,RSVPtest,65,r,true,481.19999998807907,2,r,,0,1,1,
111,RSVPtest,66,r,true,694.6999999880791,0,b,,3,3,0,
111,RSVPtest,67,r,true,559.8000000119209,1,g,,3,1,1,
111,RSVPtest,68,r,true,641.2000000476837,2,r,,1,0,1,
111,RSVPtest,69,r,true,591.3999999761581,0,b,,0,3,0,
111,RSVPtest,70,r,true,463.89999997615814,2,r,,2,1,1,
111,RSVPtest,71,r,true,550.9000000357628,0,b,,3,3,0,
111,RSVPtest,72,r,true,631.3000000119209,0,b,,2,3,0,
111,RSVPtest,73,r,true,585.5999999642372,1,g,,0,2,1,
111,RSVPtest,74,r,true,841.5,2,r,,2,2,2,
111,RSVPtest,75,r,true,623.3000000119209,2,r,,1,1,2,
111,RSVPtest,76,r,true,464.39999997615814,2,r,,1,2,1,
111,RSVPtest,77,r,true,1113.1000000238419,1,g,,3,2,1,
111,RSVPtest,78,r,true,583.6000000238419,1,g,,1,1,2,
111,RSVPtest,79,r,true,496.4000000357628,1,g,,1,0,1,
111,RSVPtest,80,r,true,1327.199999988079,2,r,,3,2,1,
111,RSVPtest,81,r,true,1015.5999999642372,2,r,,0,2,1,
111,RSVPtest,82,r,true,417,1,g,,2,0,1,
111,RSVPtest,83,r,true,1808.699999988079,2,r,,3,0,1,
111,RSVPtest,84,r,true,575.7000000476837,1,g,,1,1,2,
111,RSVPtest,85,r,true,768.7999999523163,0,b,,2,3,0,
111,RSVPtest,86,r,false,1160,2,r,,3,1,1,
111,RSVPtest,87,r,true,999.7999999523163,1,g,,1,2,1,
111,RSVPtest,88,r,true,733.5,1,g,,3,0,1,
111,RSVPtest,89,r,true,736.3000000119209,0,b,,3,3,0,
111,RSVPtest,90,r,true,632.6000000238419,2,r,,3,1,1,
111,RSVPtest,91,r,true,1630.3999999761581,2,r,,2,0,1,
111,RSVPtest,92,r,true,742.1999999880791,1,g,,3,0,1,
111,RSVPtest,93,r,true,601,1,g,,3,1,1,
111,RSVPtest,94,r,true,816.9000000357628,2,r,,2,2,2,
111,RSVPtest,95,r,true,487.39999997615814,0,b,,0,3,0,
111,RSVPtest,96,r,true,553.0999999642372,2,r,,3,2,1,
111,RSVPtest,97,r,true,456.69999998807907,1,g,,2,0,1,
111,RSVPtest,98,r,true,446.9000000357628,2,r,,1,0,1,
111,RSVPtest,99,r,true,617.1999999880791,1,g,,3,1,1,
111,RSVPtest,100,r,true,417.60000002384186,2,r,,0,1,1,
111,RSVPtest,101,r,true,1386.5,2,r,,2,2,2,
111,RSVPtest,102,r,true,896.6999999880791,1,g,,3,2,1,
111,RSVPtest,103,r,true,639.3999999761581,1,g,,3,2,1,
111,RSVPtest,104,r,true,456.89999997615814,1,g,,1,0,1,
111,RSVPtest,105,r,true,593.5,1,g,,2,0,1,
111,RSVPtest,106,r,true,752,1,g,,2,2,2,
111,RSVPtest,107,r,true,752.5,0,b,,0,3,0,
111,RSVPtest,108,r,true,632.9000000357628,0,b,,3,3,0,
111,RSVPtest,109,r,true,649.8999999761581,1,g,,3,2,1,
111,RSVPtest,110,r,true,678.8999999761581,0,b,,1,3,0,
111,RSVPtest,111,r,true,1609.1000000238419,2,r,,3,0,1,
111,RSVPtest,112,r,true,1134.5,2,r,,2,0,1,
111,RSVPtest,113,r,true,1353.5999999642372,2,r,,1,1,2,
111,RSVPtest,114,r,true,655.1999999880791,1,g,,3,0,1,
111,RSVPtest,115,r,true,667,2,r,,3,0,1,
111,RSVPtest,116,r,true,1742.1000000238419,1,g,,0,1,1,
111,RSVPtest,117,r,true,495.10000002384186,1,g,,3,1,1,
111,RSVPtest,118,r,true,665,0,b,,3,3,0,
111,RSVPtest,119,r,true,608.6999999880791,0,b,,2,3,0,
111,RSVPtest,120,r,true,751.7999999523163,0,b,,3,3,0,
brk,brk,brk,brk,brk,brk,brk,brk,brk,brk,brk,brk,
111,RSVPtest,121,r,true,580.7999999523163,2,r,,3,1,1,
111,RSVPtest,122,r,true,791.6999999880791,1,g,,3,0,1,
111,RSVPtest,123,r,true,1710.5999999642372,1,g,,0,0,2,
111,RSVPtest,124,r,true,717.3000000119209,2,r,,0,2,1,
111,RSVPtest,125,r,true,583.5999999642372,1,g,,1,0,1,
111,RSVPtest,126,r,true,694.6999999880791,1,g,,3,0,1,
111,RSVPtest,127,r,true,614.8000000119209,2,r,,3,0,1,
111,RSVPtest,128,r,true,567.5999999642372,0,b,,1,3,0,
111,RSVPtest,129,r,true,488,1,g,,3,1,1,
111,RSVPtest,130,r,true,943.8000000119209,1,g,,0,1,1,
111,RSVPtest,131,r,true,1993.8999999761581,1,g,,2,2,2,
111,RSVPtest,132,r,true,566,0,b,,1,3,0,
111,RSVPtest,133,r,true,712.0999999642372,2,r,,3,0,1,
111,RSVPtest,134,r,true,1069,1,g,,3,2,1,
111,RSVPtest,135,r,true,958.9000000357628,0,b,,0,3,0,
111,RSVPtest,136,r,true,541.0999999642372,1,g,,0,2,1,
111,RSVPtest,137,r,true,559.6000000238419,2,r,,0,1,1,
111,RSVPtest,138,r,true,1221.800000011921,2,r,,3,1,1,
111,RSVPtest,139,r,true,531.1000000238419,1,g,,0,2,1,
111,RSVPtest,140,r,true,1760.699999988079,1,g,,3,2,1,
111,RSVPtest,141,r,true,1219.5,2,r,,2,0,1,
111,RSVPtest,142,r,true,695.7999999523163,2,r,,2,1,1,
111,RSVPtest,143,r,true,959.6000000238419,1,g,,0,0,2,
111,RSVPtest,144,r,true,736.3000000119209,0,b,,3,3,0,
111,RSVPtest,145,r,true,1025.300000011921,1,g,,0,1,1,
111,RSVPtest,146,r,true,679.0999999642372,2,r,,3,1,1,
111,RSVPtest,147,r,true,662.1000000238419,0,b,,1,3,0,
111,RSVPtest,148,r,true,660.8000000119209,1,g,,3,2,1,
111,RSVPtest,149,r,true,520.8999999761581,1,g,,3,1,1,
111,RSVPtest,150,r,true,1138.2000000476837,0,b,,3,3,0,
111,RSVPtest,151,r,false,1943.8999999761581,2,r,,2,1,1,
111,RSVPtest,152,r,true,510.60000002384186,0,b,,1,3,0,
111,RSVPtest,153,r,true,767.3000000119209,1,g,,3,0,1,
111,RSVPtest,154,r,true,561.5,2,r,,0,1,1,
111,RSVPtest,155,r,true,749,2,r,,3,2,1,
111,RSVPtest,156,r,true,568.0999999642372,0,b,,1,3,0,
111,RSVPtest,157,r,true,528.7000000476837,2,r,,1,2,1,
111,RSVPtest,158,r,true,463.39999997615814,1,g,,1,2,1,
111,RSVPtest,159,r,true,775.5,2,r,,0,0,2,
111,RSVPtest,160,r,true,653.5,2,r,,3,0,1,
111,RSVPtest,161,r,true,1118.3999999761581,2,r,,3,2,1,
111,RSVPtest,162,r,true,758.5999999642372,1,g,,3,1,1,
111,RSVPtest,163,r,true,912.0999999642372,1,g,,0,0,2,
111,RSVPtest,164,r,true,702.5,0,b,,1,3,0,
111,RSVPtest,165,r,true,599.0999999642372,2,r,,2,1,1,
111,RSVPtest,166,r,true,654.6000000238419,2,r,,1,2,1,
111,RSVPtest,167,r,true,897.4000000357628,1,g,,0,1,1,
111,RSVPtest,168,r,true,791.3999999761581,1,g,,2,0,1,
111,RSVPtest,169,r,true,419.19999998807907,0,b,,2,3,0,
111,RSVPtest,170,r,true,420.60000002384186,2,r,,0,2,1,
111,RSVPtest,171,r,true,776,0,b,,3,3,0,
111,RSVPtest,172,r,true,525.6999999880791,1,g,,2,2,2,
111,RSVPtest,173,r,true,639.2999999523163,1,g,,3,1,1,
111,RSVPtest,174,r,true,1406.8999999761581,2,r,,0,0,2,
111,RSVPtest,175,r,true,736.6999999880791,1,g,,1,2,1,
111,RSVPtest,176,r,true,767.4000000357628,1,g,,1,1,2,
111,RSVPtest,177,r,true,645.6000000238419,2,r,,3,0,1,
111,RSVPtest,178,r,null,null,1,g,,3,0,1,
111,RSVPtest,179,r,true,680.3000000119209,0,b,,3,3,0,
111,RSVPtest,180,r,true,695.7000000476837,2,r,,3,1,1,
brk,brk,brk,brk,brk,brk,brk,brk,brk,brk,brk,brk,
111,RSVPtest,181,r,true,602.5,1,g,,3,0,1,
111,RSVPtest,182,r,true,661.4000000357628,2,r,,1,2,1,
111,RSVPtest,183,r,true,975.3999999761581,1,g,,3,1,1,
111,RSVPtest,184,r,true,519.8999999761581,2,r,,1,0,1,
111,RSVPtest,185,r,false,1748.800000011921,1,g,,2,2,2,
111,RSVPtest,186,r,true,725,2,r,,2,1,1,
111,RSVPtest,187,r,true,572,0,b,,2,3,0,
111,RSVPtest,188,r,true,600.8999999761581,2,r,,1,0,1,
111,RSVPtest,189,r,true,431,0,b,,2,3,0,
111,RSVPtest,190,r,true,685.1999999880791,0,b,,3,3,0,
111,RSVPtest,191,r,true,459.80000001192093,0,b,,0,3,0,
111,RSVPtest,192,r,false,1199.3999999761581,0,b,,0,3,0,
111,RSVPtest,193,r,true,678,0,b,,3,3,0,
111,RSVPtest,194,r,true,534.9000000357628,2,r,,3,0,1,
111,RSVPtest,195,r,true,598.4000000357628,1,g,,2,1,1,
111,RSVPtest,196,r,true,463.30000001192093,0,b,,1,3,0,
111,RSVPtest,197,r,true,539.3999999761581,1,g,,1,1,2,
111,RSVPtest,198,r,true,670.8000000119209,2,r,,0,2,1,
111,RSVPtest,199,r,true,875.5999999642372,1,g,,0,0,2,
111,RSVPtest,200,r,true,949.3000000119209,2,r,,0,0,2,
111,RSVPtest,201,r,true,902.3999999761581,1,g,,0,1,1,
111,RSVPtest,202,r,true,692.8000000119209,1,g,,3,0,1,
111,RSVPtest,203,r,true,1037.1000000238419,0,b,,2,3,0,
111,RSVPtest,204,r,true,572.6999999880791,2,r,,2,2,2,
111,RSVPtest,205,r,true,710.8000000119209,0,b,,3,3,0,
111,RSVPtest,206,r,true,606.6999999880791,1,g,,3,0,1,
111,RSVPtest,207,r,true,671.3999999761581,0,b,,1,3,0,
111,RSVPtest,208,r,true,872.6999999880791,2,r,,2,1,1,
111,RSVPtest,209,r,true,1351,0,b,,2,3,0,
111,RSVPtest,210,r,true,783.5,1,g,,3,2,1,
111,RSVPtest,211,r,false,889.3000000119209,1,g,,3,2,1,
111,RSVPtest,212,r,true,976.5999999642372,2,r,,3,2,1,
111,RSVPtest,213,r,true,575.8000000119209,1,g,,1,0,1,
111,RSVPtest,214,r,true,607.6999999880791,2,r,,1,1,2,
111,RSVPtest,215,r,true,582.5,1,g,,0,2,1,
111,RSVPtest,216,r,true,855.2000000476837,0,b,,3,3,0,
111,RSVPtest,217,r,true,670.3999999761581,1,g,,1,0,1,
111,RSVPtest,218,r,true,577.1000000238419,1,g,,3,1,1,
111,RSVPtest,219,r,true,773.8000000119209,2,r,,3,2,1,
111,RSVPtest,220,r,true,984.3999999761581,2,r,,3,2,1,
111,RSVPtest,221,r,true,597.1000000238419,2,r,,2,0,1,
111,RSVPtest,222,r,true,756.8999999761581,2,r,,3,1,1,
111,RSVPtest,223,r,true,736.5999999642372,2,r,,3,1,1,
111,RSVPtest,224,r,true,620.5,0,b,,3,3,0,
111,RSVPtest,225,r,true,550.3000000119209,2,r,,3,0,1,
111,RSVPtest,226,r,true,543.1999999880791,1,g,,1,0,1,
111,RSVPtest,227,r,true,782.3999999761581,2,r,,2,2,2,
111,RSVPtest,228,r,true,533.8999999761581,0,b,,2,3,0,
111,RSVPtest,229,r,true,558.8000000119209,2,r,,1,0,1,
111,RSVPtest,230,r,true,413.9000000357628,1,g,,2,0,1,
111,RSVPtest,231,r,true,421.89999997615814,1,g,,2,1,1,
111,RSVPtest,232,r,true,895,0,b,,2,3,0,
111,RSVPtest,233,r,true,547.8000000119209,0,b,,0,3,0,
111,RSVPtest,234,r,true,446.7999999523163,1,g,,2,0,1,
111,RSVPtest,235,r,true,612.8000000119209,1,g,,3,0,1,
111,RSVPtest,236,r,true,430.69999998807907,1,g,,0,2,1,
111,RSVPtest,237,r,true,1141.5,0,b,,3,3,0,
111,RSVPtest,238,r,false,1088.0999999642372,1,g,,3,2,1,
111,RSVPtest,239,r,true,453.5,1,g,,0,2,1,
111,RSVPtest,240,r,true,433.69999998807907,1,g,,2,2,2,
