subID,trialType,trialNum,cntBalance,correct,rt,rwdType,tgtCol,tgtDir,tgtPos,colPos,colMatch
tex,VDACtrain,0,g,TRUE,739.1000001,2,g,h,3,,
tex,VDACtrain,0,g,TRUE,802.8999999,2,g,v,0,,
tex,VDACtrain,0,g,null,null,1,r,v,4,,
tex,VDACtrain,0,g,TRUE,705.7,2,g,h,5,,
tex,VDACtrain,0,g,FALSE,489.6999998,1,r,h,0,,
tex,VDACtrain,0,g,FALSE,959.7,1,r,h,2,,
tex,VDACtrain,0,g,TRUE,753.8,2,g,v,2,,
tex,VDACtrain,0,g,TRUE,770.8999999,2,g,v,5,,
tex,VDACtrain,0,g,TRUE,672.5999999,1,r,v,3,,
tex,VDACtrain,0,g,TRUE,673.3999999,1,r,h,1,,
tex,VDACtest,1,g,TRUE,937.3,1,r,h,0,,
tex,VDACtest,2,g,TRUE,577.4000001,2,g,v,4,,
tex,VDACtest,3,g,null,null,2,g,h,2,,
tex,VDACtest,4,g,TRUE,655.7,2,g,v,2,,
tex,VDACtest,5,g,TRUE,761.5999999,1,r,h,5,,
tex,VDACtest,6,g,TRUE,810.0999999,1,r,h,2,,
tex,VDACtest,7,g,TRUE,776.5,1,r,h,5,,
tex,VDACtest,8,g,TRUE,481.8,1,r,v,2,,
tex,VDACtest,9,g,TRUE,545.0999999,1,r,h,3,,
tex,VDACtest,10,g,TRUE,488.3,2,g,v,1,,
tex,VDACtest,11,g,TRUE,448.3999999,2,g,h,3,,
tex,VDACtest,12,g,TRUE,561.0999999,1,r,v,3,,
tex,VDACtest,13,g,TRUE,515,2,g,v,3,,
tex,VDACtest,14,g,TRUE,451.8,2,g,v,5,,
tex,VDACtest,15,g,TRUE,762.8,2,g,v,0,,
tex,VDACtest,16,g,TRUE,522.9000001,2,g,h,2,,
tex,VDACtest,17,g,null,null,1,r,v,2,,
tex,VDACtest,18,g,TRUE,605,2,g,v,3,,
tex,VDACtest,19,g,TRUE,649.5,2,g,h,4,,
tex,VDACtest,20,g,TRUE,778.6999998,2,g,v,4,,
tex,VDACtest,21,g,TRUE,522.0999999,1,r,h,3,,
tex,VDACtest,22,g,TRUE,930,1,r,h,1,,
tex,VDACtest,23,g,TRUE,787.8999999,2,g,v,2,,
tex,VDACtest,24,g,TRUE,520.8,2,g,v,2,,
tex,VDACtest,25,g,TRUE,618,2,g,h,2,,
tex,VDACtest,26,g,TRUE,787.2,1,r,v,0,,
tex,VDACtest,27,g,TRUE,659.6000001,1,r,v,2,,
tex,VDACtest,28,g,TRUE,651,2,g,h,4,,
tex,VDACtest,29,g,TRUE,723.3000002,2,g,v,3,,
tex,VDACtest,30,g,TRUE,530.9000001,2,g,v,5,,
tex,VDACtest,31,g,TRUE,954,1,r,h,3,,
tex,VDACtest,32,g,TRUE,739.7,2,g,h,3,,
tex,VDACtest,33,g,FALSE,571.6999998,1,r,h,4,,
tex,VDACtest,34,g,TRUE,650.8000002,1,r,v,5,,
tex,VDACtest,35,g,TRUE,724.4000001,1,r,v,2,,
tex,VDACtest,36,g,TRUE,801.4000001,2,g,h,0,,
tex,VDACtest,37,g,TRUE,668,2,g,h,5,,
tex,VDACtest,38,g,TRUE,947.0999999,1,r,h,1,,
tex,VDACtest,39,g,TRUE,618.7,2,g,v,3,,
tex,VDACtest,40,g,TRUE,689,1,r,h,1,,
tex,VDACtest,41,g,TRUE,640.9000001,2,g,v,3,,
tex,VDACtest,42,g,null,null,1,r,v,0,,
tex,VDACtest,43,g,TRUE,701.3999999,1,r,h,5,,
tex,VDACtest,44,g,FALSE,827.6000001,2,g,h,0,,
tex,VDACtest,45,g,TRUE,801.5,1,r,v,3,,
tex,VDACtest,46,g,TRUE,618.7,2,g,h,3,,
tex,VDACtest,47,g,TRUE,547.5999999,2,g,v,4,,
tex,VDACtest,48,g,TRUE,801.1000001,1,r,v,5,,
tex,VDACtest,49,g,TRUE,456.6000001,1,r,h,4,,
tex,VDACtest,50,g,TRUE,435.8999999,1,r,v,4,,
brk,brk,brk,brk,brk,brk,brk,brk,brk,brk,brk,brk
tex,VDACtest,51,g,TRUE,804.8000002,1,r,v,3,,
tex,VDACtest,52,g,TRUE,584.3,2,g,h,0,,
tex,VDACtest,53,g,TRUE,530.6000001,2,g,v,5,,
tex,VDACtest,54,g,TRUE,425.8,1,r,h,3,,
tex,VDACtest,55,g,TRUE,871.8999999,1,r,h,1,,
tex,VDACtest,56,g,TRUE,842.2,1,r,h,4,,
tex,VDACtest,57,g,TRUE,586.6000001,1,r,v,3,,
tex,VDACtest,58,g,TRUE,713.9000001,2,g,h,4,,
tex,VDACtest,59,g,TRUE,752.8000002,1,r,v,2,,
tex,VDACtest,60,g,TRUE,699.3,1,r,h,0,,
tex,VDACtest,61,g,TRUE,664.2,1,r,v,3,,
tex,VDACtest,62,g,TRUE,649,2,g,h,4,,
tex,VDACtest,63,g,TRUE,658.6999998,2,g,v,5,,
tex,VDACtest,64,g,TRUE,530.2,1,r,v,5,,
tex,VDACtest,65,g,TRUE,624.3,1,r,v,1,,
tex,VDACtest,66,g,TRUE,618.2,2,g,v,0,,
tex,VDACtest,67,g,TRUE,728.8999999,2,g,h,4,,
tex,VDACtest,68,g,TRUE,584,1,r,v,0,,
tex,VDACtest,69,g,TRUE,745.9000001,2,g,v,1,,
tex,VDACtest,70,g,TRUE,553.7,2,g,h,1,,
tex,VDACtest,71,g,TRUE,585.3,1,r,h,4,,
tex,VDACtest,72,g,TRUE,522.2,2,g,v,1,,
tex,VDACtest,73,g,TRUE,513.6999998,2,g,h,5,,
tex,VDACtest,74,g,null,null,1,r,h,3,,
tex,VDACtest,75,g,TRUE,500.6000001,1,r,v,1,,
tex,VDACtest,76,g,TRUE,599.2,2,g,v,1,,
tex,VDACtest,77,g,TRUE,514.0999999,2,g,h,5,,
tex,VDACtest,78,g,TRUE,601.1000001,1,r,v,4,,
tex,VDACtest,79,g,TRUE,657.2,1,r,v,4,,
tex,VDACtest,80,g,TRUE,577.3,2,g,h,3,,
tex,VDACtest,81,g,TRUE,858.4000001,2,g,h,2,,
tex,VDACtest,82,g,TRUE,695.4000001,2,g,v,3,,
tex,VDACtest,83,g,null,null,1,r,h,2,,
tex,VDACtest,84,g,TRUE,825.6000001,1,r,h,0,,
tex,VDACtest,85,g,TRUE,545.4000001,1,r,v,5,,
tex,VDACtest,86,g,TRUE,521.8000002,1,r,v,0,,
tex,VDACtest,87,g,FALSE,722.3,2,g,v,0,,
tex,VDACtest,88,g,TRUE,529.3,2,g,h,0,,
tex,VDACtest,89,g,TRUE,705.8000002,1,r,h,1,,
tex,VDACtest,90,g,TRUE,392.8999999,1,r,v,0,,
tex,VDACtest,91,g,TRUE,599.3,1,r,v,4,,
tex,VDACtest,92,g,TRUE,970.8999999,1,r,h,5,,
tex,VDACtest,93,g,TRUE,843.6000001,2,g,h,3,,
tex,VDACtest,94,g,TRUE,417.8999999,2,g,v,5,,
tex,VDACtest,95,g,TRUE,546.8,1,r,h,3,,
tex,VDACtest,96,g,TRUE,818.1000001,2,g,h,1,,
tex,VDACtest,97,g,TRUE,666,1,r,h,5,,
tex,VDACtest,98,g,TRUE,819.4000001,2,g,v,1,,
tex,VDACtest,99,g,TRUE,778.8000002,1,r,v,2,,
tex,VDACtest,100,g,TRUE,699.3,2,g,v,2,,
brk,brk,brk,brk,brk,brk,brk,brk,brk,brk,brk,brk
tex,VDACtest,101,g,TRUE,698.5,2,g,h,1,,
tex,VDACtest,102,g,TRUE,799.9000001,2,g,h,1,,
tex,VDACtest,103,g,TRUE,747,2,g,h,5,,
tex,VDACtest,104,g,TRUE,697.7,1,r,h,2,,
tex,VDACtest,105,g,TRUE,538.7,2,g,v,4,,
tex,VDACtest,106,g,TRUE,569,1,r,v,1,,
tex,VDACtest,107,g,TRUE,498.9000001,1,r,v,4,,
tex,VDACtest,108,g,TRUE,562.3999999,2,g,v,4,,
tex,VDACtest,109,g,TRUE,449.0999999,1,r,v,1,,
tex,VDACtest,110,g,TRUE,698.5999999,1,r,v,2,,
tex,VDACtest,111,g,FALSE,594.8000002,1,r,h,0,,
tex,VDACtest,112,g,TRUE,721.5999999,1,r,v,5,,
tex,VDACtest,113,g,TRUE,505.8,2,g,h,1,,
tex,VDACtest,114,g,TRUE,754.1000001,2,g,v,4,,
tex,VDACtest,115,g,TRUE,633.0999999,2,g,v,5,,
tex,VDACtest,116,g,TRUE,552.5999999,1,r,v,3,,
tex,VDACtest,117,g,null,null,2,g,v,3,,
tex,VDACtest,118,g,TRUE,994.2,2,g,v,1,,
tex,VDACtest,119,g,TRUE,595.2,1,r,v,5,,
tex,VDACtest,120,g,TRUE,546.8,1,r,h,0,,
tex,VDACtest,121,g,null,null,2,g,h,2,,
tex,VDACtest,122,g,TRUE,596.1000001,1,r,h,1,,
tex,VDACtest,123,g,TRUE,762.3,1,r,h,5,,
tex,VDACtest,124,g,TRUE,680.8000002,2,g,v,1,,
tex,VDACtest,125,g,TRUE,568.8,1,r,v,1,,
tex,VDACtest,126,g,TRUE,522.9000001,2,g,h,3,,
tex,VDACtest,127,g,TRUE,633.5999999,1,r,v,0,,
tex,VDACtest,128,g,TRUE,514.5,2,g,h,5,,
tex,VDACtest,129,g,TRUE,865.7,1,r,h,2,,
tex,VDACtest,130,g,TRUE,754,1,r,v,1,,
tex,VDACtest,131,g,TRUE,642.3,1,r,h,2,,
tex,VDACtest,132,g,TRUE,448.8,2,g,v,0,,
tex,VDACtest,133,g,TRUE,745.9000001,1,r,h,1,,
tex,VDACtest,134,g,TRUE,641.8,2,g,v,2,,
tex,VDACtest,135,g,TRUE,632.4000001,2,g,v,1,,
tex,VDACtest,136,g,TRUE,698.1000001,2,g,h,3,,
tex,VDACtest,137,g,TRUE,713.8999999,1,r,v,3,,
tex,VDACtest,138,g,TRUE,600.7,1,r,h,1,,
tex,VDACtest,139,g,TRUE,705.8999999,2,g,v,0,,
tex,VDACtest,140,g,TRUE,585.0999999,2,g,v,0,,
tex,VDACtest,141,g,TRUE,602.1000001,2,g,h,3,,
tex,VDACtest,142,g,TRUE,416.9000001,1,r,v,0,,
tex,VDACtest,143,g,TRUE,841.8,1,r,v,1,,
tex,VDACtest,144,g,TRUE,481.1000001,1,r,h,4,,
tex,VDACtest,145,g,TRUE,592.4000001,1,r,h,3,,
tex,VDACtest,146,g,TRUE,585.8,1,r,h,5,,
tex,VDACtest,147,g,TRUE,514.7,2,g,v,2,,
tex,VDACtest,148,g,TRUE,546.3999999,2,g,v,2,,
tex,VDACtest,149,g,TRUE,777.1000001,2,g,v,0,,
tex,VDACtest,150,g,TRUE,561.5,1,r,h,4,,
brk,brk,brk,brk,brk,brk,brk,brk,brk,brk,brk,brk
tex,VDACtest,151,g,TRUE,614.8,1,r,v,4,,
tex,VDACtest,152,g,TRUE,489.8,1,r,h,0,,
tex,VDACtest,153,g,TRUE,442.2,1,r,v,5,,
tex,VDACtest,154,g,TRUE,537.3,2,g,v,1,,
tex,VDACtest,155,g,TRUE,504.0999999,1,r,h,2,,
tex,VDACtest,156,g,TRUE,554.4000001,1,r,v,2,,
tex,VDACtest,157,g,TRUE,473.4000001,2,g,h,0,,
tex,VDACtest,158,g,TRUE,440.4000001,1,r,v,4,,
tex,VDACtest,159,g,TRUE,529.2,2,g,h,5,,
tex,VDACtest,160,g,TRUE,648.8,1,r,h,4,,
tex,VDACtest,161,g,TRUE,487.9000001,2,g,v,4,,
tex,VDACtest,162,g,TRUE,650.5,2,g,h,5,,
tex,VDACtest,163,g,TRUE,530.1000001,2,g,h,2,,
tex,VDACtest,164,g,TRUE,928.5,1,r,h,3,,
tex,VDACtest,165,g,TRUE,451,2,g,v,3,,
tex,VDACtest,166,g,TRUE,643.8,1,r,h,5,,
tex,VDACtest,167,g,TRUE,553.5999999,1,r,h,0,,
tex,VDACtest,168,g,TRUE,513.1999998,2,g,h,0,,
tex,VDACtest,169,g,TRUE,546,2,g,h,4,,
tex,VDACtest,170,g,TRUE,626.3,2,g,h,4,,
tex,VDACtest,171,g,TRUE,802.6999998,1,r,v,1,,
tex,VDACtest,172,g,TRUE,617.3,1,r,h,2,,
tex,VDACtest,173,g,TRUE,560.7,1,r,h,2,,
tex,VDACtest,174,g,TRUE,592.7,2,g,h,4,,
tex,VDACtest,175,g,TRUE,810.7,2,g,h,5,,
tex,VDACtest,176,g,TRUE,594.5,2,g,v,4,,
tex,VDACtest,177,g,TRUE,514.5,1,r,v,4,,
tex,VDACtest,178,g,TRUE,537.4000001,2,g,v,4,,
tex,VDACtest,179,g,TRUE,568.2,2,g,v,0,,
tex,VDACtest,180,g,TRUE,537.9000001,2,g,h,2,,
tex,VDACtest,181,g,TRUE,515.5999999,2,g,h,0,,
tex,VDACtest,182,g,TRUE,648.8000002,2,g,h,0,,
tex,VDACtest,183,g,TRUE,449.4000001,1,r,v,5,,
tex,VDACtest,184,g,TRUE,627.4000001,1,r,h,4,,
tex,VDACtest,185,g,TRUE,624.7,2,g,h,2,,
tex,VDACtest,186,g,TRUE,529,1,r,v,0,,
tex,VDACtest,187,g,TRUE,809.5999999,2,g,h,1,,
tex,VDACtest,188,g,TRUE,707.0999999,2,g,h,4,,
tex,VDACtest,189,g,TRUE,554.5999999,1,r,h,0,,
tex,VDACtest,190,g,TRUE,474.4000001,2,g,v,5,,
tex,VDACtest,191,g,TRUE,575.8,1,r,v,1,,
tex,VDACtest,192,g,TRUE,498.6000001,2,g,v,5,,
tex,VDACtest,193,g,TRUE,473.1000001,1,r,h,1,,
tex,VDACtest,194,g,TRUE,576.8999999,2,g,h,1,,
tex,VDACtest,195,g,TRUE,952.8999999,2,g,v,2,,
tex,VDACtest,196,g,TRUE,682.2,1,r,v,3,,
tex,VDACtest,197,g,TRUE,609.1999998,1,r,h,4,,
tex,VDACtest,198,g,TRUE,873.0999999,2,g,h,1,,
tex,VDACtest,199,g,TRUE,578.3999999,1,r,v,4,,
tex,VDACtest,200,g,TRUE,680.8,2,g,h,1,,
tex,RSVPtrain,0,g,null,null,2,g,,3,1,1
tex,RSVPtrain,0,g,TRUE,1521.1,2,g,,1,0,1
tex,RSVPtrain,0,g,TRUE,828.5999999,0,b,,1,3,0
tex,RSVPtrain,0,g,FALSE,660.5,1,r,,0,0,2
tex,RSVPtrain,0,g,TRUE,1616.8,2,g,,2,2,2
tex,RSVPtrain,0,g,FALSE,1004.4,0,b,,3,3,0
tex,RSVPtrain,0,g,TRUE,1210,2,g,,3,0,1
tex,RSVPtrain,0,g,FALSE,1188,1,r,,3,2,1
tex,RSVPtrain,0,g,TRUE,1135.9,0,b,,0,3,0
tex,RSVPtrain,0,g,TRUE,1075.6,1,r,,1,1,2
tex,RSVPtest,1,g,TRUE,822,2,g,,0,0,2
tex,RSVPtest,2,g,TRUE,1243.6,2,g,,2,0,1
tex,RSVPtest,3,g,TRUE,698,1,r,,2,0,1
tex,RSVPtest,4,g,TRUE,716,2,g,,0,0,2
tex,RSVPtest,5,g,TRUE,667,0,b,,1,3,0
tex,RSVPtest,6,g,TRUE,795.0999999,1,r,,3,2,1
tex,RSVPtest,7,g,TRUE,715.6999998,1,r,,2,1,1
tex,RSVPtest,8,g,TRUE,733.3999999,0,b,,0,3,0
tex,RSVPtest,9,g,TRUE,941.5999999,0,b,,0,3,0
tex,RSVPtest,10,g,TRUE,932.1000001,1,r,,0,0,2
tex,RSVPtest,11,g,TRUE,694.7,0,b,,3,3,0
tex,RSVPtest,12,g,TRUE,1155.8,1,r,,1,0,1
tex,RSVPtest,13,g,TRUE,800.7,1,r,,0,0,2
tex,RSVPtest,14,g,TRUE,739.1999998,1,r,,3,0,1
tex,RSVPtest,15,g,TRUE,901.6000001,1,r,,3,2,1
tex,RSVPtest,16,g,TRUE,796.3,0,b,,3,3,0
tex,RSVPtest,17,g,TRUE,708.7,1,r,,1,2,1
tex,RSVPtest,18,g,TRUE,1357.1,1,r,,2,2,2
tex,RSVPtest,19,g,TRUE,1402.9,1,r,,0,0,2
tex,RSVPtest,20,g,TRUE,754.7,2,g,,0,1,1
tex,RSVPtest,21,g,TRUE,1004.4,1,r,,3,2,1
tex,RSVPtest,22,g,TRUE,1108.4,1,r,,3,1,1
tex,RSVPtest,23,g,TRUE,837.8,2,g,,1,2,1
tex,RSVPtest,24,g,TRUE,1124.8,0,b,,3,3,0
tex,RSVPtest,25,g,TRUE,1123.1,2,g,,0,2,1
tex,RSVPtest,26,g,TRUE,1466.8,1,r,,2,1,1
tex,RSVPtest,27,g,TRUE,747.5999999,1,r,,3,1,1
tex,RSVPtest,28,g,TRUE,1116.2,1,r,,2,2,2
tex,RSVPtest,29,g,TRUE,1076.1,1,r,,2,2,2
tex,RSVPtest,30,g,TRUE,697.9000001,2,g,,3,0,1
tex,RSVPtest,31,g,TRUE,1003.9,1,r,,1,1,2
tex,RSVPtest,32,g,TRUE,843.9000001,1,r,,3,0,1
tex,RSVPtest,33,g,TRUE,787.1000001,2,g,,3,2,1
tex,RSVPtest,34,g,TRUE,785.9000001,2,g,,2,1,1
tex,RSVPtest,35,g,TRUE,1021.5,2,g,,2,0,1
tex,RSVPtest,36,g,TRUE,739.7,0,b,,3,3,0
tex,RSVPtest,37,g,FALSE,1027.9,1,r,,3,1,1
tex,RSVPtest,38,g,TRUE,1146.5,2,g,,3,0,1
tex,RSVPtest,39,g,TRUE,980.9000001,1,r,,2,1,1
tex,RSVPtest,40,g,TRUE,923.1000001,2,g,,3,2,1
tex,RSVPtest,41,g,TRUE,947.8999999,2,g,,2,2,2
tex,RSVPtest,42,g,TRUE,1170.9,2,g,,3,1,1
tex,RSVPtest,43,g,TRUE,883.6999998,2,g,,3,2,1
tex,RSVPtest,44,g,TRUE,660.3,0,b,,1,3,0
tex,RSVPtest,45,g,TRUE,1187.8,2,g,,2,0,1
tex,RSVPtest,46,g,TRUE,657.5,2,g,,3,2,1
tex,RSVPtest,47,g,TRUE,1163.5,2,g,,0,2,1
tex,RSVPtest,48,g,TRUE,1139.7,2,g,,0,2,1
tex,RSVPtest,49,g,TRUE,948.1000001,0,b,,3,3,0
tex,RSVPtest,50,g,TRUE,852.3,2,g,,1,2,1
tex,RSVPtest,51,g,TRUE,1739.9,2,g,,3,1,1
tex,RSVPtest,52,g,FALSE,761.1999998,1,r,,3,0,1
tex,RSVPtest,53,g,TRUE,963,2,g,,1,1,2
tex,RSVPtest,54,g,TRUE,1435.6,2,g,,3,0,1
tex,RSVPtest,55,g,TRUE,1388.3,2,g,,3,0,1
tex,RSVPtest,56,g,TRUE,1211.7,1,r,,3,0,1
tex,RSVPtest,57,g,TRUE,747.7,0,b,,0,3,0
tex,RSVPtest,58,g,FALSE,1653,1,r,,3,1,1
tex,RSVPtest,59,g,TRUE,1051.1,2,g,,0,1,1
tex,RSVPtest,60,g,FALSE,1731.4,0,b,,1,3,0
brk,brk,brk,brk,brk,brk,brk,brk,brk,brk,brk,brk
tex,RSVPtest,61,g,TRUE,883.8,2,g,,3,0,1
tex,RSVPtest,62,g,TRUE,1130.6,0,b,,0,3,0
tex,RSVPtest,63,g,TRUE,1506.9,2,g,,1,1,2
tex,RSVPtest,64,g,FALSE,851.0999999,2,g,,3,2,1
tex,RSVPtest,65,g,TRUE,1389,0,b,,3,3,0
tex,RSVPtest,66,g,FALSE,962.5,1,r,,3,0,1
tex,RSVPtest,67,g,TRUE,979.8999999,1,r,,0,1,1
tex,RSVPtest,68,g,TRUE,954.8,1,r,,3,1,1
tex,RSVPtest,69,g,TRUE,843.8999999,1,r,,3,2,1
tex,RSVPtest,70,g,TRUE,1034.7,2,g,,2,0,1
tex,RSVPtest,71,g,TRUE,802.9000001,0,b,,3,3,0
tex,RSVPtest,72,g,TRUE,570.7,2,g,,1,0,1
tex,RSVPtest,73,g,TRUE,940.4000001,0,b,,1,3,0
tex,RSVPtest,74,g,TRUE,921,2,g,,1,1,2
tex,RSVPtest,75,g,TRUE,1386.5,0,b,,2,3,0
tex,RSVPtest,76,g,TRUE,850.1999998,2,g,,3,2,1
tex,RSVPtest,77,g,TRUE,1521.6,2,g,,3,2,1
tex,RSVPtest,78,g,TRUE,747.1000001,2,g,,3,2,1
tex,RSVPtest,79,g,TRUE,874.5,1,r,,3,2,1
tex,RSVPtest,80,g,TRUE,1010.4,2,g,,0,1,1
tex,RSVPtest,81,g,TRUE,722.0999999,0,b,,1,3,0
tex,RSVPtest,82,g,TRUE,1000.8,1,r,,1,2,1
tex,RSVPtest,83,g,TRUE,1058.8,2,g,,2,1,1
tex,RSVPtest,84,g,TRUE,778.5,0,b,,0,3,0
tex,RSVPtest,85,g,TRUE,619.8,1,r,,3,1,1
tex,RSVPtest,86,g,TRUE,851.0999999,0,b,,0,3,0
tex,RSVPtest,87,g,TRUE,1106,1,r,,2,1,1
tex,RSVPtest,88,g,TRUE,769.2,2,g,,2,2,2
tex,RSVPtest,89,g,TRUE,906.5999999,2,g,,3,1,1
tex,RSVPtest,90,g,TRUE,1034.2,1,r,,3,2,1
tex,RSVPtest,91,g,TRUE,946.3,2,g,,1,0,1
tex,RSVPtest,92,g,TRUE,762.2,0,b,,0,3,0
tex,RSVPtest,93,g,TRUE,808.4000001,1,r,,3,2,1
tex,RSVPtest,94,g,TRUE,1353,1,r,,1,1,2
tex,RSVPtest,95,g,TRUE,688.6000001,1,r,,1,1,2
tex,RSVPtest,96,g,TRUE,858.8999999,1,r,,0,1,1
tex,RSVPtest,97,g,TRUE,851.5,1,r,,3,0,1
tex,RSVPtest,98,g,TRUE,1416.9,1,r,,2,1,1
tex,RSVPtest,99,g,TRUE,651,0,b,,3,3,0
tex,RSVPtest,100,g,TRUE,636.3,2,g,,3,2,1
tex,RSVPtest,101,g,TRUE,738.7,2,g,,1,1,2
tex,RSVPtest,102,g,TRUE,1148,1,r,,0,2,1
tex,RSVPtest,103,g,TRUE,700.0999999,1,r,,1,2,1
tex,RSVPtest,104,g,TRUE,859,1,r,,0,0,2
tex,RSVPtest,105,g,TRUE,988.7,2,g,,2,1,1
tex,RSVPtest,106,g,TRUE,946.4000001,1,r,,2,0,1
tex,RSVPtest,107,g,TRUE,700.3,1,r,,3,1,1
tex,RSVPtest,108,g,TRUE,752.7,2,g,,3,1,1
tex,RSVPtest,109,g,TRUE,658.5999999,1,r,,0,0,2
tex,RSVPtest,110,g,TRUE,754.2,1,r,,0,1,1
tex,RSVPtest,111,g,TRUE,842.4000001,2,g,,1,1,2
tex,RSVPtest,112,g,TRUE,650.8,2,g,,0,0,2
tex,RSVPtest,113,g,TRUE,649,2,g,,3,0,1
tex,RSVPtest,114,g,TRUE,803.8,1,r,,3,1,1
tex,RSVPtest,115,g,TRUE,859.1000001,0,b,,2,3,0
tex,RSVPtest,116,g,TRUE,833.8,1,r,,0,1,1
tex,RSVPtest,117,g,TRUE,545.3,2,g,,3,0,1
tex,RSVPtest,118,g,TRUE,746.2,1,r,,1,0,1
tex,RSVPtest,119,g,TRUE,1217.3,2,g,,2,2,2
tex,RSVPtest,120,g,TRUE,770.5,0,b,,3,3,0
brk,brk,brk,brk,brk,brk,brk,brk,brk,brk,brk,brk
tex,RSVPtest,121,g,TRUE,554.5999999,2,g,,3,1,1
tex,RSVPtest,122,g,FALSE,1081.3,1,r,,2,2,2
tex,RSVPtest,123,g,TRUE,1009.6,0,b,,2,3,0
tex,RSVPtest,124,g,TRUE,786.3,0,b,,3,3,0
tex,RSVPtest,125,g,TRUE,793.4000001,2,g,,0,2,1
tex,RSVPtest,126,g,TRUE,542.8,1,r,,3,0,1
tex,RSVPtest,127,g,TRUE,817.3000002,0,b,,0,3,0
tex,RSVPtest,128,g,TRUE,849.8999999,0,b,,0,3,0
tex,RSVPtest,129,g,TRUE,793.5,2,g,,0,1,1
tex,RSVPtest,130,g,TRUE,569.8999999,1,r,,1,0,1
tex,RSVPtest,131,g,TRUE,591.7,0,b,,3,3,0
tex,RSVPtest,132,g,TRUE,648.0999999,2,g,,0,2,1
tex,RSVPtest,133,g,TRUE,660.8,1,r,,3,0,1
tex,RSVPtest,134,g,TRUE,704.2,1,r,,1,2,1
tex,RSVPtest,135,g,TRUE,935.5,1,r,,0,0,2
tex,RSVPtest,136,g,TRUE,720.8,0,b,,0,3,0
tex,RSVPtest,137,g,TRUE,714.3,2,g,,1,0,1
tex,RSVPtest,138,g,TRUE,642.7,1,r,,3,1,1
tex,RSVPtest,139,g,TRUE,527.0999999,1,r,,0,2,1
tex,RSVPtest,140,g,TRUE,713.2,0,b,,0,3,0
tex,RSVPtest,141,g,TRUE,521.0999999,0,b,,3,3,0
tex,RSVPtest,142,g,TRUE,577.7,1,r,,1,0,1
tex,RSVPtest,143,g,TRUE,649.9000001,2,g,,3,1,1
tex,RSVPtest,144,g,TRUE,728.4000001,2,g,,3,1,1
tex,RSVPtest,145,g,TRUE,1186.1,2,g,,2,2,2
tex,RSVPtest,146,g,FALSE,1361.5,1,r,,0,2,1
tex,RSVPtest,147,g,TRUE,626.2,1,r,,2,1,1
tex,RSVPtest,148,g,TRUE,626.3999999,2,g,,3,0,1
tex,RSVPtest,149,g,TRUE,618.0999999,0,b,,2,3,0
tex,RSVPtest,150,g,TRUE,658.3999999,2,g,,3,2,1
tex,RSVPtest,151,g,TRUE,657.5999999,0,b,,1,3,0
tex,RSVPtest,152,g,TRUE,681.7,0,b,,2,3,0
tex,RSVPtest,153,g,TRUE,395.8,0,b,,2,3,0
tex,RSVPtest,154,g,TRUE,874.3,2,g,,1,2,1
tex,RSVPtest,155,g,FALSE,1307.4,2,g,,1,0,1
tex,RSVPtest,156,g,TRUE,614.2,1,r,,1,2,1
tex,RSVPtest,157,g,TRUE,1361.6,2,g,,0,0,2
tex,RSVPtest,158,g,TRUE,463.7,2,g,,1,1,2
tex,RSVPtest,159,g,TRUE,943.1999998,0,b,,2,3,0
tex,RSVPtest,160,g,TRUE,434.5,0,b,,1,3,0
tex,RSVPtest,161,g,TRUE,673,0,b,,2,3,0
tex,RSVPtest,162,g,TRUE,889.3,2,g,,0,0,2
tex,RSVPtest,163,g,TRUE,783,1,r,,0,2,1
tex,RSVPtest,164,g,TRUE,775.6000001,2,g,,1,2,1
tex,RSVPtest,165,g,TRUE,960.5,1,r,,0,1,1
tex,RSVPtest,166,g,TRUE,815.8,1,r,,3,0,1
tex,RSVPtest,167,g,TRUE,710.5,1,r,,3,2,1
tex,RSVPtest,168,g,TRUE,1065.3,2,g,,3,1,1
tex,RSVPtest,169,g,TRUE,745.5999999,1,r,,0,2,1
tex,RSVPtest,170,g,TRUE,1024.4,1,r,,3,0,1
tex,RSVPtest,171,g,TRUE,610.5,2,g,,1,0,1
tex,RSVPtest,172,g,TRUE,879.5,1,r,,1,1,2
tex,RSVPtest,173,g,TRUE,655.6999998,2,g,,2,0,1
tex,RSVPtest,174,g,TRUE,682.0999999,2,g,,0,1,1
tex,RSVPtest,175,g,TRUE,712.8,1,r,,3,0,1
tex,RSVPtest,176,g,TRUE,679.2,2,g,,2,0,1
tex,RSVPtest,177,g,TRUE,520.7,1,r,,3,0,1
tex,RSVPtest,178,g,FALSE,728.5999999,1,r,,2,0,1
tex,RSVPtest,179,g,TRUE,690.5,1,r,,2,0,1
tex,RSVPtest,180,g,TRUE,606.5,1,r,,2,2,2
brk,brk,brk,brk,brk,brk,brk,brk,brk,brk,brk,brk
tex,RSVPtest,181,g,TRUE,775.9000001,2,g,,3,0,1
tex,RSVPtest,182,g,FALSE,799,1,r,,1,2,1
tex,RSVPtest,183,g,FALSE,978.3,0,b,,3,3,0
tex,RSVPtest,184,g,TRUE,1221.1,0,b,,2,3,0
tex,RSVPtest,185,g,TRUE,894.1000001,0,b,,1,3,0
tex,RSVPtest,186,g,TRUE,791.3000002,0,b,,3,3,0
tex,RSVPtest,187,g,TRUE,722,1,r,,3,1,1
tex,RSVPtest,188,g,TRUE,840.2,2,g,,2,2,2
tex,RSVPtest,189,g,TRUE,695.8,2,g,,1,0,1
tex,RSVPtest,190,g,TRUE,769.5999999,2,g,,2,1,1
tex,RSVPtest,191,g,TRUE,1256.1,2,g,,1,2,1
tex,RSVPtest,192,g,TRUE,579.4000001,0,b,,3,3,0
tex,RSVPtest,193,g,TRUE,778.9000001,1,r,,3,2,1
tex,RSVPtest,194,g,TRUE,864.7,0,b,,1,3,0
tex,RSVPtest,195,g,TRUE,650.0999999,2,g,,3,0,1
tex,RSVPtest,196,g,TRUE,888.3,0,b,,1,3,0
tex,RSVPtest,197,g,TRUE,658.3999999,0,b,,3,3,0
tex,RSVPtest,198,g,TRUE,536.8,2,g,,3,0,1
tex,RSVPtest,199,g,TRUE,992,0,b,,1,3,0
tex,RSVPtest,200,g,TRUE,728.0999999,1,r,,1,0,1
tex,RSVPtest,201,g,TRUE,977.2,1,r,,2,2,2
tex,RSVPtest,202,g,TRUE,815.1000001,2,g,,3,1,1
tex,RSVPtest,203,g,TRUE,727.7,0,b,,3,3,0
tex,RSVPtest,204,g,TRUE,753.5,0,b,,2,3,0
tex,RSVPtest,205,g,TRUE,993.1999998,2,g,,3,2,1
tex,RSVPtest,206,g,TRUE,655.2,1,r,,3,1,1
tex,RSVPtest,207,g,TRUE,665.1999998,1,r,,0,1,1
tex,RSVPtest,208,g,TRUE,725.8999999,2,g,,3,2,1
tex,RSVPtest,209,g,TRUE,634.9000001,0,b,,1,3,0
tex,RSVPtest,210,g,TRUE,890.2,0,b,,3,3,0
tex,RSVPtest,211,g,TRUE,808.2,0,b,,3,3,0
tex,RSVPtest,212,g,TRUE,726.8,1,r,,2,0,1
tex,RSVPtest,213,g,TRUE,639,0,b,,3,3,0
tex,RSVPtest,214,g,TRUE,672.5,0,b,,3,3,0
tex,RSVPtest,215,g,TRUE,713.2,1,r,,3,2,1
tex,RSVPtest,216,g,TRUE,847.4000001,1,r,,2,0,1
tex,RSVPtest,217,g,TRUE,1176.5,1,r,,0,2,1
tex,RSVPtest,218,g,TRUE,688.5999999,1,r,,3,2,1
tex,RSVPtest,219,g,TRUE,800,2,g,,2,2,2
tex,RSVPtest,220,g,TRUE,559.5,0,b,,3,3,0
tex,RSVPtest,221,g,TRUE,728.5,0,b,,0,3,0
tex,RSVPtest,222,g,TRUE,640.9000001,0,b,,3,3,0
tex,RSVPtest,223,g,TRUE,613.6000001,2,g,,2,1,1
tex,RSVPtest,224,g,TRUE,617.0999999,2,g,,0,0,2
tex,RSVPtest,225,g,TRUE,501.9000001,2,g,,1,2,1
tex,RSVPtest,226,g,TRUE,559.7,2,g,,3,1,1
tex,RSVPtest,227,g,TRUE,670.8999999,0,b,,2,3,0
tex,RSVPtest,228,g,TRUE,663.4000001,2,g,,3,1,1
tex,RSVPtest,229,g,TRUE,622.4000001,0,b,,2,3,0
tex,RSVPtest,230,g,TRUE,1519.8,2,g,,2,1,1
tex,RSVPtest,231,g,FALSE,1272.7,1,r,,1,1,2
tex,RSVPtest,232,g,TRUE,711.5,0,b,,3,3,0
tex,RSVPtest,233,g,TRUE,958.6000001,2,g,,0,1,1
tex,RSVPtest,234,g,TRUE,729.8,2,g,,0,2,1
tex,RSVPtest,235,g,TRUE,502.3999999,1,r,,1,1,2
tex,RSVPtest,236,g,TRUE,808.3999999,1,r,,1,0,1
tex,RSVPtest,237,g,TRUE,616.2,1,r,,3,2,1
tex,RSVPtest,238,g,TRUE,634,1,r,,3,1,1
tex,RSVPtest,239,g,TRUE,736.3999999,2,g,,3,1,1
tex,RSVPtest,240,g,TRUE,609.8000002,2,g,,3,0,1
subID,trialType,trialNum,cntBalance,correct,rt,rwdType,tgtCol,tgtDir,tgtPos,colPos,colMatch
c1z,VDACtrain,0,g,null,null,2,g,v,5,,
c1z,VDACtrain,0,g,TRUE,621.3,2,g,v,0,,
c1z,VDACtrain,0,g,null,null,2,g,h,5,,
c1z,VDACtrain,0,g,FALSE,594.1,1,r,h,0,,
c1z,VDACtrain,0,g,null,null,1,r,v,3,,
c1z,VDACtrain,0,g,TRUE,961.4,2,g,h,3,,
c1z,VDACtrain,0,g,FALSE,613.3,1,r,h,1,,
c1z,VDACtrain,0,g,TRUE,797.5,1,r,v,4,,
c1z,VDACtrain,0,g,TRUE,742.2,2,g,v,2,,
c1z,VDACtrain,0,g,FALSE,646.7,1,r,h,2,,
c1z,VDACtrain,0,g,TRUE,888.2,2,g,h,3,,
c1z,VDACtrain,0,g,TRUE,621.8,2,g,v,2,,
c1z,VDACtrain,0,g,TRUE,582.9,1,r,h,0,,
c1z,VDACtrain,0,g,TRUE,709.4,2,g,v,0,,
c1z,VDACtrain,0,g,FALSE,877.1,1,r,h,2,,
c1z,VDACtrain,0,g,TRUE,798.5,2,g,h,5,,
c1z,VDACtrain,0,g,TRUE,678.2,1,r,h,1,,
c1z,VDACtrain,0,g,TRUE,621.4,1,r,v,4,,
c1z,VDACtrain,0,g,TRUE,546.4,1,r,v,3,,
c1z,VDACtrain,0,g,TRUE,508.5,2,g,v,5,,
c1z,VDACtest,1,g,TRUE,698.2,1,r,h,5,,
c1z,VDACtest,2,g,TRUE,635.3,1,r,v,4,,
c1z,VDACtest,3,g,TRUE,565.8,1,r,h,5,,
c1z,VDACtest,4,g,TRUE,599.3,1,r,h,3,,
c1z,VDACtest,5,g,TRUE,796.8,1,r,h,1,,
c1z,VDACtest,6,g,TRUE,365.3,2,g,v,4,,
c1z,VDACtest,7,g,FALSE,460.9,1,r,v,5,,
c1z,VDACtest,8,g,TRUE,509.3,2,g,h,3,,
c1z,VDACtest,9,g,FALSE,620.9,1,r,h,4,,
c1z,VDACtest,10,g,TRUE,581.6,1,r,h,4,,
c1z,VDACtest,11,g,TRUE,478.3,2,g,v,3,,
c1z,VDACtest,12,g,null,null,2,g,v,2,,
c1z,VDACtest,13,g,FALSE,855.9,2,g,h,2,,
c1z,VDACtest,14,g,TRUE,629.1,2,g,v,1,,
c1z,VDACtest,15,g,TRUE,628,2,g,h,2,,
c1z,VDACtest,16,g,TRUE,615.7,2,g,v,0,,
c1z,VDACtest,17,g,FALSE,596.7,2,g,h,4,,
c1z,VDACtest,18,g,TRUE,684.9,2,g,h,2,,
c1z,VDACtest,19,g,TRUE,509.3,1,r,v,5,,
c1z,VDACtest,20,g,TRUE,876.3,1,r,h,0,,
c1z,VDACtest,21,g,TRUE,581.9,2,g,v,4,,
c1z,VDACtest,22,g,TRUE,534.3,1,r,v,3,,
c1z,VDACtest,23,g,TRUE,454.6,2,g,v,5,,
c1z,VDACtest,24,g,TRUE,444.6,2,g,v,4,,
c1z,VDACtest,25,g,TRUE,421,1,r,h,2,,
c1z,VDACtest,26,g,TRUE,403.3,2,g,v,5,,
c1z,VDACtest,27,g,TRUE,533,1,r,h,4,,
c1z,VDACtest,28,g,TRUE,525.2,1,r,h,0,,
c1z,VDACtest,29,g,TRUE,388.3,2,g,v,0,,
c1z,VDACtest,30,g,TRUE,420.6,2,g,h,3,,
c1z,VDACtest,31,g,TRUE,444.8,1,r,v,4,,
c1z,VDACtest,32,g,TRUE,414.8,2,g,h,4,,
c1z,VDACtest,33,g,FALSE,509.2,1,r,h,5,,
c1z,VDACtest,34,g,TRUE,413.7,2,g,v,5,,
c1z,VDACtest,35,g,FALSE,508.6,1,r,h,1,,
c1z,VDACtest,36,g,TRUE,364.3,1,r,h,5,,
c1z,VDACtest,37,g,TRUE,437.6,2,g,h,4,,
c1z,VDACtest,38,g,TRUE,524.6,2,g,v,2,,
c1z,VDACtest,39,g,TRUE,660.4,1,r,h,2,,
c1z,VDACtest,40,g,TRUE,478.8,1,r,h,0,,
c1z,VDACtest,41,g,TRUE,404.9,2,g,v,4,,
c1z,VDACtest,42,g,FALSE,491.9,1,r,v,0,,
c1z,VDACtest,43,g,FALSE,435.8,1,r,h,4,,
c1z,VDACtest,44,g,FALSE,498,2,g,h,0,,
c1z,VDACtest,45,g,TRUE,678.6,2,g,v,1,,
c1z,VDACtest,46,g,TRUE,357.2,1,r,h,4,,
c1z,VDACtest,47,g,FALSE,543.2,1,r,v,1,,
c1z,VDACtest,48,g,FALSE,550.5,1,r,v,0,,
c1z,VDACtest,49,g,TRUE,542.6,2,g,v,1,,
c1z,VDACtest,50,g,TRUE,525.7,1,r,h,3,,
brk,brk,brk,brk,brk,brk,brk,brk,brk,brk,brk,brk
c1z,VDACtest,51,g,TRUE,596.8,2,g,v,0,,
c1z,VDACtest,52,g,TRUE,524.8,1,r,v,0,,
c1z,VDACtest,53,g,TRUE,492.8,1,r,v,3,,
c1z,VDACtest,54,g,TRUE,413.5,2,g,h,3,,
c1z,VDACtest,55,g,TRUE,413.8,1,r,v,3,,
c1z,VDACtest,56,g,TRUE,534.2,2,g,h,4,,
c1z,VDACtest,57,g,TRUE,438.5,2,g,h,3,,
c1z,VDACtest,58,g,FALSE,436.6,1,r,h,0,,
c1z,VDACtest,59,g,TRUE,716.2,1,r,v,3,,
c1z,VDACtest,60,g,TRUE,508.6,1,r,h,1,,
c1z,VDACtest,61,g,TRUE,397.9,2,g,v,4,,
c1z,VDACtest,62,g,TRUE,501.5,1,r,v,5,,
c1z,VDACtest,63,g,TRUE,365,2,g,v,4,,
c1z,VDACtest,64,g,TRUE,484.4,1,r,v,3,,
c1z,VDACtest,65,g,TRUE,461.4,1,r,h,1,,
c1z,VDACtest,66,g,TRUE,414,2,g,v,0,,
c1z,VDACtest,67,g,FALSE,557.4,1,r,h,1,,
c1z,VDACtest,68,g,TRUE,542.1,2,g,h,1,,
c1z,VDACtest,69,g,TRUE,477,1,r,v,2,,
c1z,VDACtest,70,g,TRUE,371.3,2,g,h,5,,
c1z,VDACtest,71,g,TRUE,453.2,2,g,h,3,,
c1z,VDACtest,72,g,TRUE,533.8,2,g,v,2,,
c1z,VDACtest,73,g,FALSE,670.1,1,r,v,5,,
c1z,VDACtest,74,g,FALSE,501.1,2,g,h,5,,
c1z,VDACtest,75,g,TRUE,470.7,1,r,v,5,,
c1z,VDACtest,76,g,TRUE,421.3,2,g,h,0,,
c1z,VDACtest,77,g,FALSE,685,1,r,h,4,,
c1z,VDACtest,78,g,TRUE,469.5,2,g,v,0,,
c1z,VDACtest,79,g,TRUE,547.7,1,r,h,3,,
c1z,VDACtest,80,g,FALSE,575,1,r,v,2,,
c1z,VDACtest,81,g,TRUE,543.2,1,r,h,0,,
c1z,VDACtest,82,g,TRUE,556.8,1,r,h,5,,
c1z,VDACtest,83,g,TRUE,549.2,1,r,h,1,,
c1z,VDACtest,84,g,FALSE,452.8,2,g,h,1,,
c1z,VDACtest,85,g,TRUE,569.1,1,r,h,5,,
c1z,VDACtest,86,g,TRUE,749.2,1,r,h,4,,
c1z,VDACtest,87,g,TRUE,365.9,2,g,v,0,,
c1z,VDACtest,88,g,FALSE,429.2,1,r,v,1,,
c1z,VDACtest,89,g,TRUE,454.9,1,r,v,4,,
c1z,VDACtest,90,g,TRUE,373.8,1,r,v,5,,
c1z,VDACtest,91,g,TRUE,479.1,1,r,h,0,,
c1z,VDACtest,92,g,TRUE,518.5,2,g,h,2,,
c1z,VDACtest,93,g,FALSE,476.3,2,g,h,5,,
c1z,VDACtest,94,g,TRUE,580.6,2,g,h,3,,
c1z,VDACtest,95,g,TRUE,413.2,2,g,h,1,,
c1z,VDACtest,96,g,TRUE,610,1,r,h,2,,
c1z,VDACtest,97,g,TRUE,515.8,2,g,v,1,,
c1z,VDACtest,98,g,TRUE,541,2,g,h,4,,
c1z,VDACtest,99,g,TRUE,517.7,2,g,h,5,,
c1z,VDACtest,100,g,FALSE,517.6,1,r,h,3,,
brk,brk,brk,brk,brk,brk,brk,brk,brk,brk,brk,brk
c1z,VDACtest,101,g,TRUE,890,1,r,h,3,,
c1z,VDACtest,102,g,TRUE,421.1,2,g,v,5,,
c1z,VDACtest,103,g,FALSE,653.8,1,r,v,1,,
c1z,VDACtest,104,g,TRUE,468.5,1,r,v,0,,
c1z,VDACtest,105,g,TRUE,476.1,2,g,h,5,,
c1z,VDACtest,106,g,TRUE,597.4,2,g,h,1,,
c1z,VDACtest,107,g,TRUE,413.9,2,g,h,5,,
c1z,VDACtest,108,g,TRUE,381.6,1,r,v,1,,
c1z,VDACtest,109,g,TRUE,620.6,2,g,h,5,,
c1z,VDACtest,110,g,TRUE,532.7,2,g,h,1,,
c1z,VDACtest,111,g,TRUE,597.6,2,g,h,3,,
c1z,VDACtest,112,g,TRUE,469.5,2,g,v,1,,
c1z,VDACtest,113,g,TRUE,461.2,2,g,v,5,,
c1z,VDACtest,114,g,TRUE,412.3,2,g,h,1,,
c1z,VDACtest,115,g,TRUE,619.9,2,g,h,0,,
c1z,VDACtest,116,g,TRUE,982.2,1,r,h,3,,
c1z,VDACtest,117,g,TRUE,485.3,2,g,v,5,,
c1z,VDACtest,118,g,TRUE,502,2,g,h,1,,
c1z,VDACtest,119,g,TRUE,430.5,2,g,v,1,,
c1z,VDACtest,120,g,TRUE,467,1,r,v,1,,
c1z,VDACtest,121,g,TRUE,517.5,1,r,v,0,,
c1z,VDACtest,122,g,FALSE,508.7,2,g,v,4,,
c1z,VDACtest,123,g,TRUE,645.2,1,r,h,3,,
c1z,VDACtest,124,g,TRUE,637.2,2,g,h,4,,
c1z,VDACtest,125,g,TRUE,524.6,2,g,v,3,,
c1z,VDACtest,126,g,TRUE,460.7,2,g,v,5,,
c1z,VDACtest,127,g,TRUE,549.2,1,r,h,2,,
c1z,VDACtest,128,g,FALSE,444.2,1,r,v,2,,
c1z,VDACtest,129,g,TRUE,581.9,1,r,v,4,,
c1z,VDACtest,130,g,FALSE,541.9,2,g,h,1,,
c1z,VDACtest,131,g,TRUE,557.5,1,r,v,3,,
c1z,VDACtest,132,g,TRUE,531.8,2,g,v,2,,
c1z,VDACtest,133,g,TRUE,477.1,1,r,v,1,,
c1z,VDACtest,134,g,TRUE,549.7,2,g,h,3,,
c1z,VDACtest,135,g,TRUE,580.9,1,r,h,2,,
c1z,VDACtest,136,g,TRUE,636.4,2,g,h,0,,
c1z,VDACtest,137,g,TRUE,579.3,2,g,v,2,,
c1z,VDACtest,138,g,TRUE,502,2,g,v,3,,
c1z,VDACtest,139,g,TRUE,588.6,2,g,h,5,,
c1z,VDACtest,140,g,TRUE,637.4,2,g,v,1,,
c1z,VDACtest,141,g,TRUE,501.6,1,r,h,0,,
c1z,VDACtest,142,g,FALSE,445.3,1,r,v,2,,
c1z,VDACtest,143,g,FALSE,478.2,2,g,h,0,,
c1z,VDACtest,144,g,FALSE,675.9,2,g,v,1,,
c1z,VDACtest,145,g,TRUE,565.1,1,r,v,2,,
c1z,VDACtest,146,g,TRUE,732.4,2,g,h,4,,
c1z,VDACtest,147,g,TRUE,517.4,2,g,h,4,,
c1z,VDACtest,148,g,TRUE,573,2,g,v,0,,
c1z,VDACtest,149,g,TRUE,659.4,2,g,v,4,,
c1z,VDACtest,150,g,TRUE,500.3,2,g,v,3,,
brk,brk,brk,brk,brk,brk,brk,brk,brk,brk,brk,brk
c1z,VDACtest,151,g,FALSE,537,2,g,h,0,,
c1z,VDACtest,152,g,TRUE,612.8,2,g,h,4,,
c1z,VDACtest,153,g,TRUE,646,1,r,v,5,,
c1z,VDACtest,154,g,TRUE,533.8,1,r,h,3,,
c1z,VDACtest,155,g,FALSE,486.3,1,r,v,0,,
c1z,VDACtest,156,g,TRUE,668.6,2,g,h,0,,
c1z,VDACtest,157,g,FALSE,566.1,1,r,h,1,,
c1z,VDACtest,158,g,TRUE,596.3,2,g,v,0,,
c1z,VDACtest,159,g,FALSE,540.7,1,r,v,0,,
c1z,VDACtest,160,g,TRUE,645.7,1,r,h,0,,
c1z,VDACtest,161,g,TRUE,597.5,1,r,v,1,,
c1z,VDACtest,162,g,TRUE,668.7,1,r,h,4,,
c1z,VDACtest,163,g,TRUE,621.3,2,g,v,3,,
c1z,VDACtest,164,g,TRUE,557.2,1,r,v,3,,
c1z,VDACtest,165,g,TRUE,485.2,1,r,h,5,,
c1z,VDACtest,166,g,TRUE,469.1,2,g,v,2,,
c1z,VDACtest,167,g,TRUE,653.1,2,g,h,0,,
c1z,VDACtest,168,g,FALSE,566.1,1,r,h,2,,
c1z,VDACtest,169,g,TRUE,660.4,1,r,h,4,,
c1z,VDACtest,170,g,TRUE,572,1,r,v,4,,
c1z,VDACtest,171,g,TRUE,621.9,2,g,h,2,,
c1z,VDACtest,172,g,TRUE,637.4,1,r,h,2,,
c1z,VDACtest,173,g,TRUE,564.7,1,r,h,2,,
c1z,VDACtest,174,g,TRUE,501.4,2,g,v,2,,
c1z,VDACtest,175,g,TRUE,622,1,r,v,2,,
c1z,VDACtest,176,g,TRUE,509.7,1,r,v,1,,
c1z,VDACtest,177,g,TRUE,524.3,1,r,v,1,,
c1z,VDACtest,178,g,TRUE,581.7,1,r,v,4,,
c1z,VDACtest,179,g,TRUE,548.8,2,g,v,1,,
c1z,VDACtest,180,g,TRUE,541.6,2,g,h,1,,
c1z,VDACtest,181,g,FALSE,723.9,1,r,v,4,,
c1z,VDACtest,182,g,TRUE,668.5,2,g,h,2,,
c1z,VDACtest,183,g,TRUE,547.4,1,r,h,1,,
c1z,VDACtest,184,g,TRUE,564.2,1,r,v,3,,
c1z,VDACtest,185,g,TRUE,452.6,1,r,v,2,,
c1z,VDACtest,186,g,TRUE,526.9,1,r,v,5,,
c1z,VDACtest,187,g,TRUE,580.2,2,g,v,4,,
c1z,VDACtest,188,g,TRUE,469.1,1,r,h,5,,
c1z,VDACtest,189,g,TRUE,516.5,1,r,v,2,,
c1z,VDACtest,190,g,TRUE,486.4,2,g,v,3,,
c1z,VDACtest,191,g,TRUE,419.9,2,g,v,3,,
c1z,VDACtest,192,g,TRUE,643.1,1,r,v,4,,
c1z,VDACtest,193,g,TRUE,460.6,1,r,v,0,,
c1z,VDACtest,194,g,TRUE,506.9,1,r,h,1,,
c1z,VDACtest,195,g,TRUE,540.2,2,g,v,2,,
c1z,VDACtest,196,g,TRUE,540.6,1,r,v,4,,
c1z,VDACtest,197,g,TRUE,436,2,g,v,5,,
c1z,VDACtest,198,g,TRUE,478.5,2,g,h,2,,
c1z,VDACtest,199,g,FALSE,581.6,2,g,v,3,,
c1z,VDACtest,200,g,TRUE,436,2,g,h,2,,
c1z,RSVPtrain,0,g,FALSE,1028.9,0,b,,0,3,0
c1z,RSVPtrain,0,g,TRUE,856.6,2,g,,3,1,1
c1z,RSVPtrain,0,g,TRUE,703,1,r,,0,0,2
c1z,RSVPtrain,0,g,FALSE,617.1,1,r,,1,1,2
c1z,RSVPtrain,0,g,TRUE,999.4,1,r,,3,2,1
c1z,RSVPtrain,0,g,FALSE,906.6,0,b,,1,3,0
c1z,RSVPtrain,0,g,TRUE,992.9,0,b,,3,3,0
c1z,RSVPtrain,0,g,FALSE,897.6,2,g,,1,0,1
c1z,RSVPtrain,0,g,TRUE,927.6,2,g,,3,0,1
c1z,RSVPtrain,0,g,TRUE,528.9,2,g,,2,2,2
c1z,RSVPtest,1,g,TRUE,618.5,1,r,,0,2,1
c1z,RSVPtest,2,g,TRUE,598.9,0,b,,3,3,0
c1z,RSVPtest,3,g,TRUE,649.7,0,b,,3,3,0
c1z,RSVPtest,4,g,TRUE,805.6,0,b,,3,3,0
c1z,RSVPtest,5,g,TRUE,641.2,2,g,,3,0,1
c1z,RSVPtest,6,g,FALSE,810.2,1,r,,0,2,1
c1z,RSVPtest,7,g,FALSE,689.5,0,b,,0,3,0
c1z,RSVPtest,8,g,TRUE,384.6,1,r,,0,1,1
c1z,RSVPtest,9,g,TRUE,912.4,2,g,,0,1,1
c1z,RSVPtest,10,g,FALSE,1031.4,2,g,,1,2,1
c1z,RSVPtest,11,g,TRUE,408,1,r,,2,2,2
c1z,RSVPtest,12,g,TRUE,863,2,g,,1,0,1
c1z,RSVPtest,13,g,TRUE,704.4,0,b,,3,3,0
c1z,RSVPtest,14,g,TRUE,792.5,0,b,,2,3,0
c1z,RSVPtest,15,g,TRUE,502.1,0,b,,2,3,0
c1z,RSVPtest,16,g,TRUE,870.6,2,g,,2,1,1
c1z,RSVPtest,17,g,TRUE,623.9,0,b,,2,3,0
c1z,RSVPtest,18,g,TRUE,526.8,0,b,,3,3,0
c1z,RSVPtest,19,g,TRUE,799.9,2,g,,3,1,1
c1z,RSVPtest,20,g,FALSE,1125.1,1,r,,1,2,1
c1z,RSVPtest,21,g,TRUE,622.8,0,b,,1,3,0
c1z,RSVPtest,22,g,TRUE,686.6,1,r,,0,0,2
c1z,RSVPtest,23,g,FALSE,703.6,0,b,,3,3,0
c1z,RSVPtest,24,g,TRUE,422.7,0,b,,0,3,0
c1z,RSVPtest,25,g,TRUE,649.2,2,g,,0,0,2
c1z,RSVPtest,26,g,FALSE,584.4,0,b,,2,3,0
c1z,RSVPtest,27,g,FALSE,920.2,2,g,,3,1,1
c1z,RSVPtest,28,g,FALSE,997.3,2,g,,0,1,1
c1z,RSVPtest,29,g,TRUE,775.3,1,r,,3,1,1
c1z,RSVPtest,30,g,TRUE,564.9,2,g,,1,1,2
c1z,RSVPtest,31,g,TRUE,679.2,2,g,,2,2,2
c1z,RSVPtest,32,g,TRUE,741.4,0,b,,3,3,0
c1z,RSVPtest,33,g,TRUE,958.9,1,r,,0,2,1
c1z,RSVPtest,34,g,TRUE,735,0,b,,0,3,0
c1z,RSVPtest,35,g,TRUE,621.5,0,b,,1,3,0
c1z,RSVPtest,36,g,TRUE,686.4,2,g,,3,1,1
c1z,RSVPtest,37,g,TRUE,727,0,b,,3,3,0
c1z,RSVPtest,38,g,TRUE,503.4,1,r,,2,2,2
c1z,RSVPtest,39,g,TRUE,599.7,0,b,,0,3,0
c1z,RSVPtest,40,g,TRUE,991.1,2,g,,1,2,1
c1z,RSVPtest,41,g,TRUE,984.5,2,g,,3,0,1
c1z,RSVPtest,42,g,FALSE,368.7,0,b,,2,3,0
c1z,RSVPtest,43,g,TRUE,863.1,0,b,,0,3,0
c1z,RSVPtest,44,g,TRUE,965.8,0,b,,3,3,0
c1z,RSVPtest,45,g,TRUE,408.4,2,g,,0,2,1
c1z,RSVPtest,46,g,TRUE,639.2,1,r,,2,2,2
c1z,RSVPtest,47,g,TRUE,927.9,1,r,,1,0,1
c1z,RSVPtest,48,g,TRUE,1007.9,1,r,,2,1,1
c1z,RSVPtest,49,g,TRUE,647.6,1,r,,0,1,1
c1z,RSVPtest,50,g,TRUE,774.7,2,g,,3,1,1
c1z,RSVPtest,51,g,TRUE,1184.1,2,g,,1,0,1
c1z,RSVPtest,52,g,TRUE,664.9,2,g,,3,2,1
c1z,RSVPtest,53,g,TRUE,910.6,1,r,,3,1,1
c1z,RSVPtest,54,g,TRUE,734.1,1,r,,0,0,2
c1z,RSVPtest,55,g,TRUE,590.6,1,r,,3,1,1
c1z,RSVPtest,56,g,FALSE,959.7,1,r,,1,2,1
c1z,RSVPtest,57,g,TRUE,653.6,1,r,,0,1,1
c1z,RSVPtest,58,g,TRUE,773.9,0,b,,3,3,0
c1z,RSVPtest,59,g,TRUE,929.2,1,r,,3,0,1
c1z,RSVPtest,60,g,FALSE,694.2,0,b,,3,3,0
brk,brk,brk,brk,brk,brk,brk,brk,brk,brk,brk,brk
c1z,RSVPtest,61,g,TRUE,1061.8,2,g,,1,2,1
c1z,RSVPtest,62,g,TRUE,647.1,0,b,,0,3,0
c1z,RSVPtest,63,g,TRUE,792.5,1,r,,2,1,1
c1z,RSVPtest,64,g,TRUE,838.2,1,r,,3,0,1
c1z,RSVPtest,65,g,TRUE,664.7,1,r,,3,0,1
c1z,RSVPtest,66,g,TRUE,542.2,2,g,,0,2,1
c1z,RSVPtest,67,g,TRUE,582.4,0,b,,2,3,0
c1z,RSVPtest,68,g,TRUE,542.3,1,r,,1,0,1
c1z,RSVPtest,69,g,FALSE,622.9,2,g,,3,2,1
c1z,RSVPtest,70,g,FALSE,1016.7,2,g,,1,0,1
c1z,RSVPtest,71,g,TRUE,682.8,1,r,,0,2,1
c1z,RSVPtest,72,g,TRUE,693.9,2,g,,0,1,1
c1z,RSVPtest,73,g,TRUE,927.7,2,g,,3,0,1
c1z,RSVPtest,74,g,TRUE,700.6,1,r,,3,2,1
c1z,RSVPtest,75,g,TRUE,615.9,1,r,,2,0,1
c1z,RSVPtest,76,g,TRUE,463.3,2,g,,0,2,1
c1z,RSVPtest,77,g,TRUE,647,2,g,,0,0,2
c1z,RSVPtest,78,g,TRUE,932.8,1,r,,3,2,1
c1z,RSVPtest,79,g,TRUE,792.1,1,r,,3,0,1
c1z,RSVPtest,80,g,TRUE,731.8,2,g,,2,0,1
c1z,RSVPtest,81,g,TRUE,686.7,2,g,,2,0,1
c1z,RSVPtest,82,g,FALSE,421.7,0,b,,3,3,0
c1z,RSVPtest,83,g,TRUE,766.5,1,r,,3,0,1
c1z,RSVPtest,84,g,TRUE,1036.3,1,r,,3,0,1
c1z,RSVPtest,85,g,TRUE,1148.4,2,g,,3,2,1
c1z,RSVPtest,86,g,TRUE,692.1,2,g,,1,1,2
c1z,RSVPtest,87,g,TRUE,982.4,0,b,,1,3,0
c1z,RSVPtest,88,g,TRUE,847.6,1,r,,3,0,1
c1z,RSVPtest,89,g,TRUE,694,0,b,,3,3,0
c1z,RSVPtest,90,g,TRUE,735.3,1,r,,3,0,1
c1z,RSVPtest,91,g,TRUE,675.8,2,g,,2,1,1
c1z,RSVPtest,92,g,FALSE,821.3,0,b,,1,3,0
c1z,RSVPtest,93,g,TRUE,886.3,0,b,,0,3,0
c1z,RSVPtest,94,g,TRUE,957.6,2,g,,0,1,1
c1z,RSVPtest,95,g,FALSE,1038.4,2,g,,3,0,1
c1z,RSVPtest,96,g,FALSE,1278.5,0,b,,1,3,0
c1z,RSVPtest,97,g,TRUE,516.3,0,b,,0,3,0
c1z,RSVPtest,98,g,TRUE,668,1,r,,3,1,1
c1z,RSVPtest,99,g,TRUE,1006,1,r,,3,2,1
c1z,RSVPtest,100,g,TRUE,893.9,0,b,,2,3,0
c1z,RSVPtest,101,g,FALSE,830.4,0,b,,1,3,0
c1z,RSVPtest,102,g,TRUE,740,1,r,,3,2,1
c1z,RSVPtest,103,g,TRUE,439.1,0,b,,0,3,0
c1z,RSVPtest,104,g,TRUE,974.9,1,r,,0,0,2
c1z,RSVPtest,105,g,TRUE,781.8,0,b,,3,3,0
c1z,RSVPtest,106,g,TRUE,517.2,1,r,,2,1,1
c1z,RSVPtest,107,g,TRUE,407.4,2,g,,0,0,2
c1z,RSVPtest,108,g,TRUE,701.3,1,r,,0,0,2
c1z,RSVPtest,109,g,TRUE,678.1,0,b,,3,3,0
c1z,RSVPtest,110,g,TRUE,652.6,0,b,,1,3,0
c1z,RSVPtest,111,g,FALSE,814.7,1,r,,3,2,1
c1z,RSVPtest,112,g,TRUE,421.2,1,r,,1,0,1
c1z,RSVPtest,113,g,TRUE,781.2,1,r,,2,0,1
c1z,RSVPtest,114,g,TRUE,821.9,1,r,,1,1,2
c1z,RSVPtest,115,g,TRUE,614.3,1,r,,1,2,1
c1z,RSVPtest,116,g,TRUE,708.2,2,g,,0,1,1
c1z,RSVPtest,117,g,FALSE,943.6,2,g,,2,0,1
c1z,RSVPtest,118,g,FALSE,1165.7,1,r,,0,2,1
c1z,RSVPtest,119,g,FALSE,959,1,r,,0,2,1
c1z,RSVPtest,120,g,TRUE,685.4,1,r,,3,1,1
brk,brk,brk,brk,brk,brk,brk,brk,brk,brk,brk,brk
c1z,RSVPtest,121,g,TRUE,764,2,g,,3,1,1
c1z,RSVPtest,122,g,TRUE,605,2,g,,3,1,1
c1z,RSVPtest,123,g,TRUE,813.3,1,r,,0,0,2
c1z,RSVPtest,124,g,TRUE,590.2,2,g,,2,2,2
c1z,RSVPtest,125,g,FALSE,885.1,2,g,,3,0,1
c1z,RSVPtest,126,g,TRUE,639.4,2,g,,3,1,1
c1z,RSVPtest,127,g,TRUE,997.4,0,b,,0,3,0
c1z,RSVPtest,128,g,TRUE,683.3,0,b,,3,3,0
c1z,RSVPtest,129,g,TRUE,436.4,0,b,,2,3,0
c1z,RSVPtest,130,g,FALSE,1108.3,1,r,,1,1,2
c1z,RSVPtest,131,g,TRUE,757.5,1,r,,0,1,1
c1z,RSVPtest,132,g,TRUE,876.6,2,g,,3,2,1
c1z,RSVPtest,133,g,TRUE,722.7,1,r,,2,0,1
c1z,RSVPtest,134,g,TRUE,998.8,0,b,,1,3,0
c1z,RSVPtest,135,g,FALSE,614.3,1,r,,3,2,1
c1z,RSVPtest,136,g,TRUE,813.8,2,g,,3,1,1
c1z,RSVPtest,137,g,TRUE,389.2,2,g,,0,1,1
c1z,RSVPtest,138,g,TRUE,499.7,1,r,,1,1,2
c1z,RSVPtest,139,g,TRUE,855.6,1,r,,3,2,1
c1z,RSVPtest,140,g,TRUE,805.3,2,g,,1,1,2
c1z,RSVPtest,141,g,TRUE,917.7,2,g,,1,0,1
c1z,RSVPtest,142,g,TRUE,876.3,0,b,,3,3,0
c1z,RSVPtest,143,g,TRUE,757.3,1,r,,1,1,2
c1z,RSVPtest,144,g,TRUE,693,2,g,,1,2,1
c1z,RSVPtest,145,g,TRUE,435.5,2,g,,2,0,1
c1z,RSVPtest,146,g,TRUE,635.4,1,r,,0,0,2
c1z,RSVPtest,147,g,FALSE,723.7,1,r,,3,0,1
c1z,RSVPtest,148,g,FALSE,710.1,0,b,,2,3,0
c1z,RSVPtest,149,g,TRUE,492.1,2,g,,2,0,1
c1z,RSVPtest,150,g,FALSE,749.2,1,r,,3,1,1
c1z,RSVPtest,151,g,TRUE,747.9,0,b,,3,3,0
c1z,RSVPtest,152,g,FALSE,1379.9,1,r,,1,1,2
c1z,RSVPtest,153,g,TRUE,804,2,g,,2,1,1
c1z,RSVPtest,154,g,TRUE,781.3,2,g,,3,2,1
c1z,RSVPtest,155,g,TRUE,932,2,g,,3,0,1
c1z,RSVPtest,156,g,TRUE,763.4,2,g,,3,1,1
c1z,RSVPtest,157,g,TRUE,890.6,1,r,,3,2,1
c1z,RSVPtest,158,g,TRUE,709.4,0,b,,3,3,0
c1z,RSVPtest,159,g,TRUE,1205.5,0,b,,3,3,0
c1z,RSVPtest,160,g,TRUE,661,2,g,,3,2,1
c1z,RSVPtest,161,g,TRUE,733.8,2,g,,1,0,1
c1z,RSVPtest,162,g,TRUE,894,2,g,,3,2,1
c1z,RSVPtest,163,g,TRUE,814.3,0,b,,1,3,0
c1z,RSVPtest,164,g,TRUE,756.3,1,r,,3,2,1
c1z,RSVPtest,165,g,TRUE,846.3,1,r,,2,1,1
c1z,RSVPtest,166,g,FALSE,844.8,1,r,,3,1,1
c1z,RSVPtest,167,g,FALSE,1055.9,2,g,,1,2,1
c1z,RSVPtest,168,g,TRUE,940.2,2,g,,3,1,1
c1z,RSVPtest,169,g,FALSE,750.4,1,r,,3,0,1
c1z,RSVPtest,170,g,TRUE,477.8,0,b,,1,3,0
c1z,RSVPtest,171,g,TRUE,964.4,2,g,,3,0,1
c1z,RSVPtest,172,g,TRUE,868.4,0,b,,3,3,0
c1z,RSVPtest,173,g,TRUE,740.6,1,r,,1,1,2
c1z,RSVPtest,174,g,FALSE,660.3,1,r,,1,2,1
c1z,RSVPtest,175,g,TRUE,644.6,1,r,,3,2,1
c1z,RSVPtest,176,g,TRUE,764.9,1,r,,3,1,1
c1z,RSVPtest,177,g,TRUE,694.1,1,r,,3,0,1
c1z,RSVPtest,178,g,FALSE,844.4,2,g,,2,0,1
c1z,RSVPtest,179,g,TRUE,811.3,2,g,,3,2,1
c1z,RSVPtest,180,g,TRUE,868,1,r,,1,2,1
brk,brk,brk,brk,brk,brk,brk,brk,brk,brk,brk,brk
c1z,RSVPtest,181,g,FALSE,717.9,1,r,,3,1,1
c1z,RSVPtest,182,g,TRUE,693,2,g,,3,2,1
c1z,RSVPtest,183,g,TRUE,523.8,0,b,,2,3,0
c1z,RSVPtest,184,g,TRUE,814.4,1,r,,2,1,1
c1z,RSVPtest,185,g,TRUE,717,2,g,,1,2,1
c1z,RSVPtest,186,g,TRUE,605.2,1,r,,3,1,1
c1z,RSVPtest,187,g,FALSE,764.6,2,g,,3,0,1
c1z,RSVPtest,188,g,FALSE,852.2,2,g,,3,2,1
c1z,RSVPtest,189,g,TRUE,802.4,2,g,,3,0,1
c1z,RSVPtest,190,g,TRUE,780.5,1,r,,3,2,1
c1z,RSVPtest,191,g,TRUE,1012.3,2,g,,0,2,1
c1z,RSVPtest,192,g,TRUE,676,2,g,,0,2,1
c1z,RSVPtest,193,g,TRUE,537.7,2,g,,2,2,2
c1z,RSVPtest,194,g,FALSE,862.1,1,r,,0,1,1
c1z,RSVPtest,195,g,TRUE,899.9,2,g,,3,1,1
c1z,RSVPtest,196,g,FALSE,739.1,0,b,,1,3,0
c1z,RSVPtest,197,g,FALSE,661.4,2,g,,0,2,1
c1z,RSVPtest,198,g,TRUE,1106.4,2,g,,3,2,1
c1z,RSVPtest,199,g,TRUE,762.8,2,g,,2,1,1
c1z,RSVPtest,200,g,TRUE,637.3,1,r,,2,0,1
c1z,RSVPtest,201,g,TRUE,442.1,2,g,,0,0,2
c1z,RSVPtest,202,g,TRUE,573.6,2,g,,1,0,1
c1z,RSVPtest,203,g,TRUE,420.7,2,g,,0,0,2
c1z,RSVPtest,204,g,FALSE,908.4,2,g,,2,2,2
c1z,RSVPtest,205,g,FALSE,460,2,g,,3,0,1
c1z,RSVPtest,206,g,FALSE,668.3,1,r,,1,0,1
c1z,RSVPtest,207,g,TRUE,838.1,2,g,,3,0,1
c1z,RSVPtest,208,g,TRUE,1002,2,g,,3,2,1
c1z,RSVPtest,209,g,TRUE,891.8,0,b,,3,3,0
c1z,RSVPtest,210,g,TRUE,769.8,1,r,,2,0,1
c1z,RSVPtest,211,g,FALSE,1083.3,0,b,,0,3,0
c1z,RSVPtest,212,g,TRUE,772.2,1,r,,2,0,1
c1z,RSVPtest,213,g,TRUE,665.8,1,r,,3,1,1
c1z,RSVPtest,214,g,FALSE,684.7,1,r,,1,0,1
c1z,RSVPtest,215,g,TRUE,609.4,1,r,,3,1,1
c1z,RSVPtest,216,g,TRUE,725.4,2,g,,3,1,1
c1z,RSVPtest,217,g,TRUE,523.7,2,g,,2,1,1
c1z,RSVPtest,218,g,FALSE,910.2,2,g,,1,1,2
c1z,RSVPtest,219,g,TRUE,630.2,1,r,,2,2,2
c1z,RSVPtest,220,g,TRUE,580.3,0,b,,3,3,0
c1z,RSVPtest,221,g,TRUE,669.6,2,g,,1,1,2
c1z,RSVPtest,222,g,TRUE,389.6,2,g,,2,2,2
c1z,RSVPtest,223,g,FALSE,854.2,2,g,,3,0,1
c1z,RSVPtest,224,g,FALSE,865.3,1,r,,1,0,1
c1z,RSVPtest,225,g,TRUE,813.3,0,b,,2,3,0
c1z,RSVPtest,226,g,TRUE,594.7,1,r,,3,0,1
c1z,RSVPtest,227,g,TRUE,662.8,0,b,,2,3,0
c1z,RSVPtest,228,g,TRUE,908.6,1,r,,1,2,1
c1z,RSVPtest,229,g,TRUE,636.3,0,b,,3,3,0
c1z,RSVPtest,230,g,TRUE,488.7,2,g,,2,2,2
c1z,RSVPtest,231,g,TRUE,739.9,0,b,,1,3,0
c1z,RSVPtest,232,g,FALSE,1173.1,1,r,,0,1,1
c1z,RSVPtest,233,g,TRUE,773,2,g,,2,1,1
c1z,RSVPtest,234,g,TRUE,685.1,1,r,,2,1,1
c1z,RSVPtest,235,g,TRUE,776.9,2,g,,1,1,2
c1z,RSVPtest,236,g,TRUE,501.4,0,b,,0,3,0
c1z,RSVPtest,237,g,TRUE,379.3,1,r,,2,2,2
c1z,RSVPtest,238,g,TRUE,859.7,1,r,,3,2,1
c1z,RSVPtest,239,g,TRUE,695.9,1,r,,2,2,2
c1z,RSVPtest,240,g,TRUE,768.8,2,g,,0,0,2
subID,trialType,trialNum,cntBalance,correct,rt,rwdType,tgtCol,tgtDir,tgtPos,colPos,colMatch
fw6,VDACtrain,0,g,null,null,1,r,h,0,,
fw6,VDACtrain,0,g,TRUE,859.2999997,2,g,h,5,,
fw6,VDACtrain,0,g,null,null,1,r,v,4,,
fw6,VDACtrain,0,g,TRUE,728.0999999,2,g,h,3,,
fw6,VDACtrain,0,g,TRUE,682.8999996,2,g,v,0,,
fw6,VDACtrain,0,g,null,null,1,r,h,1,,
fw6,VDACtrain,0,g,null,null,1,r,h,2,,
fw6,VDACtrain,0,g,TRUE,799.5,2,g,v,5,,
fw6,VDACtrain,0,g,TRUE,788.5,2,g,v,2,,
fw6,VDACtrain,0,g,FALSE,651.9000001,1,r,v,3,,
fw6,VDACtest,1,g,TRUE,609.5999999,1,r,v,4,,
fw6,VDACtest,2,g,FALSE,698.9000001,1,r,v,3,,
fw6,VDACtest,3,g,TRUE,779.5,2,g,h,1,,
fw6,VDACtest,4,g,TRUE,705.8000002,1,r,h,0,,
fw6,VDACtest,5,g,TRUE,639.7000003,2,g,v,4,,
fw6,VDACtest,6,g,TRUE,666.2999997,2,g,h,1,,
fw6,VDACtest,7,g,TRUE,683.5,2,g,v,0,,
fw6,VDACtest,8,g,TRUE,636,1,r,h,3,,
fw6,VDACtest,9,g,TRUE,680.8000002,1,r,v,5,,
fw6,VDACtest,10,g,FALSE,578.9000001,1,r,v,2,,
fw6,VDACtest,11,g,TRUE,706.5,2,g,v,0,,
fw6,VDACtest,12,g,TRUE,523.8999996,1,r,v,5,,
fw6,VDACtest,13,g,TRUE,501,2,g,h,5,,
fw6,VDACtest,14,g,TRUE,882.7999997,1,r,v,1,,
fw6,VDACtest,15,g,FALSE,597,2,g,v,1,,
fw6,VDACtest,16,g,FALSE,635.9000001,2,g,v,2,,
fw6,VDACtest,17,g,TRUE,674.7999997,1,r,h,2,,
fw6,VDACtest,18,g,TRUE,740.0999999,1,r,h,4,,
fw6,VDACtest,19,g,TRUE,620.3000002,1,r,v,3,,
fw6,VDACtest,20,g,TRUE,659.6999998,1,r,v,4,,
fw6,VDACtest,21,g,TRUE,579.7999997,1,r,h,2,,
fw6,VDACtest,22,g,TRUE,640.7000003,2,g,v,3,,
fw6,VDACtest,23,g,TRUE,780.5999999,2,g,h,4,,
fw6,VDACtest,24,g,TRUE,747.3000002,2,g,v,2,,
fw6,VDACtest,25,g,TRUE,522.0999999,2,g,v,2,,
fw6,VDACtest,26,g,TRUE,651.8000002,2,g,h,1,,
fw6,VDACtest,27,g,null,null,1,r,h,2,,
fw6,VDACtest,28,g,TRUE,582.7999997,2,g,h,2,,
fw6,VDACtest,29,g,TRUE,666.5999999,2,g,v,0,,
fw6,VDACtest,30,g,TRUE,652.7000003,1,r,v,3,,
fw6,VDACtest,31,g,null,null,2,g,v,1,,
fw6,VDACtest,32,g,TRUE,622.9000001,2,g,h,4,,
fw6,VDACtest,33,g,TRUE,643.9000001,1,r,h,3,,
fw6,VDACtest,34,g,TRUE,564.2999997,2,g,v,2,,
fw6,VDACtest,35,g,TRUE,570.8000002,1,r,h,1,,
fw6,VDACtest,36,g,TRUE,755.7000003,2,g,v,0,,
fw6,VDACtest,37,g,null,null,1,r,v,2,,
fw6,VDACtest,38,g,TRUE,679.9000001,1,r,v,5,,
fw6,VDACtest,39,g,TRUE,611.5999999,2,g,v,3,,
fw6,VDACtest,40,g,TRUE,711.2999997,2,g,v,0,,
fw6,VDACtest,41,g,TRUE,557.4000001,1,r,h,3,,
fw6,VDACtest,42,g,TRUE,781.5,2,g,h,1,,
fw6,VDACtest,43,g,TRUE,812,1,r,v,5,,
fw6,VDACtest,44,g,TRUE,516.6999998,1,r,v,5,,
fw6,VDACtest,45,g,TRUE,578.2999997,2,g,v,5,,
fw6,VDACtest,46,g,TRUE,938.7999997,1,r,v,3,,
fw6,VDACtest,47,g,null,null,2,g,v,2,,
fw6,VDACtest,48,g,TRUE,545.3999996,1,r,h,4,,
fw6,VDACtest,49,g,null,null,1,r,v,2,,
fw6,VDACtest,50,g,TRUE,702.2000003,2,g,h,0,,
brk,brk,brk,brk,brk,brk,brk,brk,brk,brk,brk,brk
fw6,VDACtest,51,g,TRUE,895.8999996,1,r,h,0,,
fw6,VDACtest,52,g,TRUE,569.1999998,1,r,h,3,,
fw6,VDACtest,53,g,TRUE,481.4000001,2,g,v,3,,
fw6,VDACtest,54,g,TRUE,747.8999996,2,g,h,2,,
fw6,VDACtest,55,g,TRUE,914.5999999,1,r,h,4,,
fw6,VDACtest,56,g,TRUE,690.4000001,1,r,v,2,,
fw6,VDACtest,57,g,TRUE,546.5,1,r,h,3,,
fw6,VDACtest,58,g,FALSE,530.7000003,1,r,h,1,,
fw6,VDACtest,59,g,null,null,2,g,h,0,,
fw6,VDACtest,60,g,TRUE,596.2999997,1,r,v,3,,
fw6,VDACtest,61,g,TRUE,651.8000002,2,g,v,2,,
fw6,VDACtest,62,g,TRUE,603.2000003,1,r,h,5,,
fw6,VDACtest,63,g,FALSE,798.0999999,2,g,h,2,,
fw6,VDACtest,64,g,TRUE,483.7999997,2,g,h,2,,
fw6,VDACtest,65,g,TRUE,588.3000002,2,g,v,3,,
fw6,VDACtest,66,g,TRUE,602.7000003,2,g,h,4,,
fw6,VDACtest,67,g,TRUE,644.3999996,2,g,h,2,,
fw6,VDACtest,68,g,TRUE,594.8999996,1,r,v,4,,
fw6,VDACtest,69,g,TRUE,990.9000001,1,r,v,1,,
fw6,VDACtest,70,g,TRUE,644,1,r,h,5,,
fw6,VDACtest,71,g,TRUE,714.8999996,2,g,v,5,,
fw6,VDACtest,72,g,TRUE,626.9000001,1,r,v,5,,
fw6,VDACtest,73,g,TRUE,724,2,g,v,0,,
fw6,VDACtest,74,g,TRUE,938.5,1,r,h,3,,
fw6,VDACtest,75,g,TRUE,668,1,r,h,5,,
fw6,VDACtest,76,g,TRUE,955,1,r,h,1,,
fw6,VDACtest,77,g,TRUE,635.9000001,2,g,v,1,,
fw6,VDACtest,78,g,TRUE,651.8000002,1,r,v,0,,
fw6,VDACtest,79,g,TRUE,730.2999997,1,r,v,4,,
fw6,VDACtest,80,g,TRUE,690.5,1,r,h,0,,
fw6,VDACtest,81,g,TRUE,653.0999999,1,r,h,3,,
fw6,VDACtest,82,g,TRUE,659.0999999,2,g,h,5,,
fw6,VDACtest,83,g,TRUE,627.0999999,1,r,h,0,,
fw6,VDACtest,84,g,TRUE,741.5,2,g,h,4,,
fw6,VDACtest,85,g,TRUE,947,1,r,v,1,,
fw6,VDACtest,86,g,TRUE,578.4000001,1,r,h,4,,
fw6,VDACtest,87,g,TRUE,571.7999997,2,g,h,3,,
fw6,VDACtest,88,g,TRUE,571.5,1,r,v,4,,
fw6,VDACtest,89,g,TRUE,564.3000002,1,r,v,3,,
fw6,VDACtest,90,g,TRUE,660.3999996,1,r,h,4,,
fw6,VDACtest,91,g,TRUE,948.2000003,1,r,h,0,,
fw6,VDACtest,92,g,TRUE,478.2000003,2,g,h,3,,
fw6,VDACtest,93,g,TRUE,669.4000001,1,r,h,0,,
fw6,VDACtest,94,g,TRUE,793.5,2,g,v,1,,
fw6,VDACtest,95,g,TRUE,596.7000003,2,g,v,5,,
fw6,VDACtest,96,g,TRUE,620.4000001,2,g,v,4,,
fw6,VDACtest,97,g,TRUE,601.6000004,2,g,h,4,,
fw6,VDACtest,98,g,TRUE,587.8000002,1,r,v,4,,
fw6,VDACtest,99,g,TRUE,481.7999997,2,g,h,3,,
fw6,VDACtest,100,g,TRUE,948,1,r,v,1,,
brk,brk,brk,brk,brk,brk,brk,brk,brk,brk,brk,brk
fw6,VDACtest,101,g,TRUE,930.0999999,2,g,h,3,,
fw6,VDACtest,102,g,TRUE,743.8000002,1,r,h,2,,
fw6,VDACtest,103,g,TRUE,755.4000001,2,g,h,5,,
fw6,VDACtest,104,g,TRUE,541.0999999,1,r,h,2,,
fw6,VDACtest,105,g,TRUE,738.5999999,1,r,h,5,,
fw6,VDACtest,106,g,TRUE,493,2,g,h,5,,
fw6,VDACtest,107,g,TRUE,586.3000002,2,g,v,1,,
fw6,VDACtest,108,g,TRUE,619.1999998,1,r,h,1,,
fw6,VDACtest,109,g,TRUE,451.7999997,2,g,h,1,,
fw6,VDACtest,110,g,TRUE,788.5999999,1,r,h,4,,
fw6,VDACtest,111,g,TRUE,522.9000001,2,g,h,5,,
fw6,VDACtest,112,g,TRUE,917.6999998,1,r,v,1,,
fw6,VDACtest,113,g,TRUE,666,1,r,v,4,,
fw6,VDACtest,114,g,TRUE,635.7000003,2,g,v,3,,
fw6,VDACtest,115,g,TRUE,640.0999999,2,g,v,1,,
fw6,VDACtest,116,g,TRUE,547.0999999,2,g,v,4,,
fw6,VDACtest,117,g,TRUE,642.0999999,2,g,h,3,,
fw6,VDACtest,118,g,TRUE,612,1,r,h,4,,
fw6,VDACtest,119,g,TRUE,616.9000001,1,r,h,3,,
fw6,VDACtest,120,g,TRUE,491.6000004,1,r,v,4,,
fw6,VDACtest,121,g,TRUE,507,2,g,v,4,,
fw6,VDACtest,122,g,null,null,2,g,v,2,,
fw6,VDACtest,123,g,TRUE,503.1000004,2,g,v,4,,
fw6,VDACtest,124,g,TRUE,942.8999996,1,r,h,5,,
fw6,VDACtest,125,g,TRUE,651.5999999,1,r,v,3,,
fw6,VDACtest,126,g,TRUE,649.5,1,r,v,4,,
fw6,VDACtest,127,g,TRUE,724.5,2,g,h,0,,
fw6,VDACtest,128,g,TRUE,724.3000002,2,g,v,3,,
fw6,VDACtest,129,g,TRUE,602.2999997,2,g,h,5,,
fw6,VDACtest,130,g,TRUE,482.0999999,2,g,v,4,,
fw6,VDACtest,131,g,TRUE,682.2000003,2,g,h,2,,
fw6,VDACtest,132,g,TRUE,811.5,1,r,v,1,,
fw6,VDACtest,133,g,TRUE,691.5,2,g,v,5,,
fw6,VDACtest,134,g,TRUE,643.1999998,1,r,h,0,,
fw6,VDACtest,135,g,TRUE,546,2,g,h,1,,
fw6,VDACtest,136,g,TRUE,579.1999998,1,r,v,5,,
fw6,VDACtest,137,g,TRUE,628,2,g,v,1,,
fw6,VDACtest,138,g,TRUE,527.7999997,1,r,h,1,,
fw6,VDACtest,139,g,TRUE,772.1999998,1,r,h,4,,
fw6,VDACtest,140,g,TRUE,484.8000002,2,g,v,5,,
fw6,VDACtest,141,g,TRUE,594.9000001,2,g,v,4,,
fw6,VDACtest,142,g,TRUE,578.8000002,2,g,h,5,,
fw6,VDACtest,143,g,FALSE,548,2,g,v,5,,
fw6,VDACtest,144,g,TRUE,755.5999999,1,r,v,0,,
fw6,VDACtest,145,g,TRUE,707,1,r,h,5,,
fw6,VDACtest,146,g,TRUE,577.1999998,2,g,v,5,,
fw6,VDACtest,147,g,TRUE,594.9000001,1,r,h,2,,
fw6,VDACtest,148,g,TRUE,787.0999999,1,r,h,4,,
fw6,VDACtest,149,g,TRUE,681.3999996,1,r,v,3,,
fw6,VDACtest,150,g,TRUE,546.7000003,1,r,v,0,,
brk,brk,brk,brk,brk,brk,brk,brk,brk,brk,brk,brk
fw6,VDACtest,151,g,TRUE,802.5,2,g,h,2,,
fw6,VDACtest,152,g,TRUE,490.4000001,2,g,v,0,,
fw6,VDACtest,153,g,TRUE,682.6000004,2,g,h,1,,
fw6,VDACtest,154,g,TRUE,500.8000002,1,r,v,0,,
fw6,VDACtest,155,g,TRUE,539.5,2,g,h,3,,
fw6,VDACtest,156,g,TRUE,516.1999998,1,r,v,0,,
fw6,VDACtest,157,g,TRUE,549.3000002,2,g,h,0,,
fw6,VDACtest,158,g,TRUE,744.8000002,1,r,v,2,,
fw6,VDACtest,159,g,TRUE,466.7999997,2,g,h,2,,
fw6,VDACtest,160,g,TRUE,525.0999999,1,r,h,2,,
fw6,VDACtest,161,g,TRUE,725.5999999,2,g,h,5,,
fw6,VDACtest,162,g,TRUE,610.7999997,2,g,h,4,,
fw6,VDACtest,163,g,TRUE,610.2000003,1,r,h,2,,
fw6,VDACtest,164,g,TRUE,651.1999998,2,g,h,0,,
fw6,VDACtest,165,g,TRUE,513.3000002,2,g,v,3,,
fw6,VDACtest,166,g,TRUE,536.9000001,2,g,h,0,,
fw6,VDACtest,167,g,TRUE,451.3000002,2,g,h,0,,
fw6,VDACtest,168,g,TRUE,731.3999996,1,r,v,2,,
fw6,VDACtest,169,g,TRUE,499.5999999,1,r,v,2,,
fw6,VDACtest,170,g,TRUE,595.5999999,2,g,v,5,,
fw6,VDACtest,171,g,TRUE,572.5999999,1,r,h,0,,
fw6,VDACtest,172,g,TRUE,491.8999996,2,g,h,0,,
fw6,VDACtest,173,g,TRUE,530.7000003,1,r,v,0,,
fw6,VDACtest,174,g,TRUE,690.5999999,1,r,v,2,,
fw6,VDACtest,175,g,TRUE,554.4000001,1,r,v,1,,
fw6,VDACtest,176,g,TRUE,539.2000003,2,g,h,4,,
fw6,VDACtest,177,g,TRUE,658.1000004,2,g,h,3,,
fw6,VDACtest,178,g,FALSE,523.0999999,1,r,h,1,,
fw6,VDACtest,179,g,TRUE,682.4000001,1,r,h,1,,
fw6,VDACtest,180,g,TRUE,589.7000003,1,r,v,0,,
fw6,VDACtest,181,g,TRUE,594.5999999,1,r,h,5,,
fw6,VDACtest,182,g,TRUE,536.5999999,2,g,v,1,,
fw6,VDACtest,183,g,TRUE,611.2000003,2,g,h,3,,
fw6,VDACtest,184,g,TRUE,618.6999998,1,r,h,1,,
fw6,VDACtest,185,g,TRUE,594.2999997,1,r,h,1,,
fw6,VDACtest,186,g,TRUE,635.0999999,2,g,v,0,,
fw6,VDACtest,187,g,TRUE,667,2,g,v,1,,
fw6,VDACtest,188,g,TRUE,588.5,1,r,v,1,,
fw6,VDACtest,189,g,TRUE,682.9000001,2,g,h,4,,
fw6,VDACtest,190,g,TRUE,612.4000001,2,g,v,4,,
fw6,VDACtest,191,g,TRUE,641.3000002,2,g,v,2,,
fw6,VDACtest,192,g,TRUE,531.3000002,2,g,v,4,,
fw6,VDACtest,193,g,TRUE,532.0999999,1,r,v,5,,
fw6,VDACtest,194,g,TRUE,664.8000002,2,g,h,4,,
fw6,VDACtest,195,g,TRUE,642.5999999,1,r,h,5,,
fw6,VDACtest,196,g,TRUE,578,2,g,v,3,,
fw6,VDACtest,197,g,TRUE,859.0999999,1,r,v,0,,
fw6,VDACtest,198,g,TRUE,636,1,r,v,1,,
fw6,VDACtest,199,g,TRUE,579.3000002,2,g,h,1,,
fw6,VDACtest,200,g,TRUE,506.6999998,2,g,h,1,,
fw6,RSVPtrain,0,g,FALSE,1979.4,0,b,,0,3,0
fw6,RSVPtrain,0,g,TRUE,1516.1,2,g,,1,0,1
fw6,RSVPtrain,0,g,TRUE,1500.8,0,b,,3,3,0
fw6,RSVPtrain,0,g,TRUE,895.5,1,r,,3,2,1
fw6,RSVPtrain,0,g,FALSE,965,1,r,,0,0,2
fw6,RSVPtrain,0,g,FALSE,1350.6,2,g,,2,2,2
fw6,RSVPtrain,0,g,TRUE,2126.3,1,r,,1,1,2
fw6,RSVPtrain,0,g,TRUE,1360,0,b,,1,3,0
fw6,RSVPtrain,0,g,TRUE,820.3999996,2,g,,3,0,1
fw6,RSVPtrain,0,g,TRUE,1166.5,2,g,,3,1,1
fw6,RSVPtest,1,g,TRUE,1880,1,r,,1,2,1
fw6,RSVPtest,2,g,TRUE,878.7999997,1,r,,3,0,1
fw6,RSVPtest,3,g,FALSE,1476.1,1,r,,3,2,1
fw6,RSVPtest,4,g,TRUE,2224.4,2,g,,0,0,2
fw6,RSVPtest,5,g,FALSE,1487.8,1,r,,3,1,1
fw6,RSVPtest,6,g,TRUE,868.5,1,r,,1,1,2
fw6,RSVPtest,7,g,TRUE,1053.2,2,g,,0,1,1
fw6,RSVPtest,8,g,FALSE,926,1,r,,0,0,2
fw6,RSVPtest,9,g,TRUE,1198.6,0,b,,0,3,0
fw6,RSVPtest,10,g,TRUE,1214.2,1,r,,3,1,1
fw6,RSVPtest,11,g,FALSE,901.1999998,1,r,,2,0,1
fw6,RSVPtest,12,g,TRUE,805.8000002,1,r,,3,2,1
fw6,RSVPtest,13,g,FALSE,1207.4,1,r,,2,0,1
fw6,RSVPtest,14,g,TRUE,780.7000003,1,r,,3,0,1
fw6,RSVPtest,15,g,FALSE,694.9000001,2,g,,2,0,1
fw6,RSVPtest,16,g,TRUE,1348.9,0,b,,0,3,0
fw6,RSVPtest,17,g,TRUE,1359.1,2,g,,2,1,1
fw6,RSVPtest,18,g,TRUE,992.8000002,2,g,,1,1,2
fw6,RSVPtest,19,g,TRUE,693.5999999,2,g,,3,0,1
fw6,RSVPtest,20,g,TRUE,1233.4,1,r,,2,2,2
fw6,RSVPtest,21,g,TRUE,1073.1,1,r,,3,0,1
fw6,RSVPtest,22,g,TRUE,829.2999997,2,g,,2,0,1
fw6,RSVPtest,23,g,TRUE,774.3000002,2,g,,3,1,1
fw6,RSVPtest,24,g,TRUE,860.4000001,0,b,,0,3,0
fw6,RSVPtest,25,g,FALSE,695.3000002,2,g,,3,0,1
fw6,RSVPtest,26,g,TRUE,525.0999999,0,b,,2,3,0
fw6,RSVPtest,27,g,TRUE,494.1999998,1,r,,1,2,1
fw6,RSVPtest,28,g,FALSE,671.7999997,1,r,,0,1,1
fw6,RSVPtest,29,g,TRUE,542.1000004,0,b,,0,3,0
fw6,RSVPtest,30,g,TRUE,565.9000001,1,r,,3,1,1
fw6,RSVPtest,31,g,FALSE,668.1999998,1,r,,1,0,1
fw6,RSVPtest,32,g,FALSE,819.5,0,b,,0,3,0
fw6,RSVPtest,33,g,FALSE,780.5,1,r,,0,2,1
fw6,RSVPtest,34,g,FALSE,629.8000002,2,g,,1,0,1
fw6,RSVPtest,35,g,TRUE,694.0999999,1,r,,2,2,2
fw6,RSVPtest,36,g,FALSE,644.4000001,1,r,,3,2,1
fw6,RSVPtest,37,g,TRUE,788.2999997,0,b,,3,3,0
fw6,RSVPtest,38,g,TRUE,1213.5,2,g,,0,1,1
fw6,RSVPtest,39,g,TRUE,853.9000001,1,r,,2,1,1
fw6,RSVPtest,40,g,TRUE,717.6999998,1,r,,3,0,1
fw6,RSVPtest,41,g,TRUE,587.0999999,2,g,,3,2,1
fw6,RSVPtest,42,g,FALSE,614,1,r,,3,2,1
fw6,RSVPtest,43,g,TRUE,661.8000002,2,g,,3,0,1
fw6,RSVPtest,44,g,FALSE,1498.2,2,g,,3,2,1
fw6,RSVPtest,45,g,TRUE,998,2,g,,0,2,1
fw6,RSVPtest,46,g,TRUE,939.5999999,2,g,,0,0,2
fw6,RSVPtest,47,g,TRUE,987.5,1,r,,1,0,1
fw6,RSVPtest,48,g,TRUE,815.7999997,2,g,,0,1,1
fw6,RSVPtest,49,g,FALSE,980,2,g,,0,2,1
fw6,RSVPtest,50,g,TRUE,1097.7,2,g,,3,1,1
fw6,RSVPtest,51,g,TRUE,1077.3,1,r,,2,2,2
fw6,RSVPtest,52,g,TRUE,1823.8,2,g,,2,2,2
fw6,RSVPtest,53,g,TRUE,1173.4,0,b,,1,3,0
fw6,RSVPtest,54,g,TRUE,893.5999999,1,r,,2,2,2
fw6,RSVPtest,55,g,TRUE,1097.5,1,r,,1,1,2
fw6,RSVPtest,56,g,TRUE,716.8000002,1,r,,0,2,1
fw6,RSVPtest,57,g,TRUE,621.6999998,1,r,,2,2,2
fw6,RSVPtest,58,g,TRUE,870.2000003,2,g,,1,1,2
fw6,RSVPtest,59,g,TRUE,574.6999998,1,r,,3,0,1
fw6,RSVPtest,60,g,TRUE,956.5,0,b,,1,3,0
brk,brk,brk,brk,brk,brk,brk,brk,brk,brk,brk,brk
fw6,RSVPtest,61,g,FALSE,750.2999997,2,g,,3,2,1
fw6,RSVPtest,62,g,TRUE,955.3999996,1,r,,0,0,2
fw6,RSVPtest,63,g,FALSE,822.2000003,1,r,,3,0,1
fw6,RSVPtest,64,g,FALSE,2078.8,1,r,,0,2,1
fw6,RSVPtest,65,g,FALSE,1031.5,0,b,,2,3,0
fw6,RSVPtest,66,g,TRUE,778.9000001,0,b,,2,3,0
fw6,RSVPtest,67,g,FALSE,1277.4,2,g,,3,1,1
fw6,RSVPtest,68,g,TRUE,1293.2,1,r,,3,0,1
fw6,RSVPtest,69,g,TRUE,899.8000002,2,g,,2,2,2
fw6,RSVPtest,70,g,TRUE,743,2,g,,3,1,1
fw6,RSVPtest,71,g,TRUE,830.4000001,1,r,,3,2,1
fw6,RSVPtest,72,g,TRUE,1022.4,1,r,,0,1,1
fw6,RSVPtest,73,g,TRUE,780.0999999,0,b,,3,3,0
fw6,RSVPtest,74,g,TRUE,869.6000004,2,g,,1,0,1
fw6,RSVPtest,75,g,FALSE,724.9000001,0,b,,0,3,0
fw6,RSVPtest,76,g,TRUE,1410.4,2,g,,3,1,1
fw6,RSVPtest,77,g,TRUE,932.4000001,2,g,,3,0,1
fw6,RSVPtest,78,g,TRUE,1431.9,1,r,,2,0,1
fw6,RSVPtest,79,g,TRUE,723.1999998,1,r,,2,1,1
fw6,RSVPtest,80,g,TRUE,1140.3,2,g,,0,0,2
fw6,RSVPtest,81,g,TRUE,964,1,r,,0,0,2
fw6,RSVPtest,82,g,TRUE,704.7000003,1,r,,1,1,2
fw6,RSVPtest,83,g,FALSE,700.7000003,2,g,,3,1,1
fw6,RSVPtest,84,g,TRUE,1083.4,2,g,,2,1,1
fw6,RSVPtest,85,g,TRUE,642.9000001,2,g,,0,2,1
fw6,RSVPtest,86,g,FALSE,644.9000001,2,g,,0,0,2
fw6,RSVPtest,87,g,TRUE,916.5,0,b,,3,3,0
fw6,RSVPtest,88,g,FALSE,858.5,2,g,,1,1,2
fw6,RSVPtest,89,g,TRUE,840.3000002,1,r,,0,1,1
fw6,RSVPtest,90,g,TRUE,838.4000001,2,g,,2,2,2
fw6,RSVPtest,91,g,TRUE,652.6000004,0,b,,1,3,0
fw6,RSVPtest,92,g,FALSE,1491.4,1,r,,3,2,1
fw6,RSVPtest,93,g,FALSE,1044.8,1,r,,3,0,1
fw6,RSVPtest,94,g,FALSE,732.5999999,0,b,,3,3,0
fw6,RSVPtest,95,g,TRUE,658.5,2,g,,2,1,1
fw6,RSVPtest,96,g,TRUE,528.0999999,2,g,,0,1,1
fw6,RSVPtest,97,g,TRUE,500.6999998,1,r,,0,0,2
fw6,RSVPtest,98,g,TRUE,845,1,r,,2,1,1
fw6,RSVPtest,99,g,TRUE,731.7999997,2,g,,3,0,1
fw6,RSVPtest,100,g,TRUE,619.4000001,0,b,,2,3,0
fw6,RSVPtest,101,g,FALSE,1100.3,0,b,,3,3,0
fw6,RSVPtest,102,g,FALSE,796.5999999,1,r,,1,0,1
fw6,RSVPtest,103,g,TRUE,971.8000002,1,r,,0,0,2
fw6,RSVPtest,104,g,TRUE,801.3999996,0,b,,3,3,0
fw6,RSVPtest,105,g,TRUE,804.5,0,b,,3,3,0
fw6,RSVPtest,106,g,TRUE,1915.5,0,b,,3,3,0
fw6,RSVPtest,107,g,TRUE,706.2000003,0,b,,3,3,0
fw6,RSVPtest,108,g,FALSE,1446.8,2,g,,3,2,1
fw6,RSVPtest,109,g,TRUE,1154.9,2,g,,2,2,2
fw6,RSVPtest,110,g,TRUE,1210.5,2,g,,2,1,1
fw6,RSVPtest,111,g,TRUE,723.7000003,2,g,,3,1,1
fw6,RSVPtest,112,g,TRUE,803.5999999,1,r,,3,0,1
fw6,RSVPtest,113,g,TRUE,989.1000004,2,g,,1,1,2
fw6,RSVPtest,114,g,TRUE,707.6999998,1,r,,1,1,2
fw6,RSVPtest,115,g,TRUE,797.5,2,g,,2,1,1
fw6,RSVPtest,116,g,TRUE,565.0999999,2,g,,1,2,1
fw6,RSVPtest,117,g,TRUE,682.7999997,1,r,,1,0,1
fw6,RSVPtest,118,g,FALSE,789.3000002,1,r,,3,1,1
fw6,RSVPtest,119,g,TRUE,676.1999998,1,r,,3,2,1
fw6,RSVPtest,120,g,TRUE,675.8000002,0,b,,3,3,0
brk,brk,brk,brk,brk,brk,brk,brk,brk,brk,brk,brk
fw6,RSVPtest,121,g,TRUE,941.2000003,2,g,,0,0,2
fw6,RSVPtest,122,g,TRUE,739.5,0,b,,2,3,0
fw6,RSVPtest,123,g,TRUE,475.5999999,2,g,,0,2,1
fw6,RSVPtest,124,g,TRUE,440.5,1,r,,0,0,2
fw6,RSVPtest,125,g,FALSE,838.3000002,2,g,,3,0,1
fw6,RSVPtest,126,g,TRUE,643.8000002,0,b,,3,3,0
fw6,RSVPtest,127,g,TRUE,1227.8,2,g,,1,1,2
fw6,RSVPtest,128,g,TRUE,595.3000002,0,b,,1,3,0
fw6,RSVPtest,129,g,TRUE,701.5,0,b,,3,3,0
fw6,RSVPtest,130,g,TRUE,628.1999998,2,g,,1,0,1
fw6,RSVPtest,131,g,TRUE,683.8000002,2,g,,0,2,1
fw6,RSVPtest,132,g,FALSE,657.5999999,2,g,,3,0,1
fw6,RSVPtest,133,g,TRUE,598.3000002,0,b,,3,3,0
fw6,RSVPtest,134,g,TRUE,663.5999999,1,r,,2,0,1
fw6,RSVPtest,135,g,TRUE,1137.7,1,r,,3,1,1
fw6,RSVPtest,136,g,TRUE,949.6999998,1,r,,2,1,1
fw6,RSVPtest,137,g,TRUE,1017.4,1,r,,3,2,1
fw6,RSVPtest,138,g,TRUE,924.5,1,r,,3,0,1
fw6,RSVPtest,139,g,FALSE,988.8999996,0,b,,2,3,0
fw6,RSVPtest,140,g,TRUE,1016.3,0,b,,2,3,0
fw6,RSVPtest,141,g,FALSE,1531.5,1,r,,3,1,1
fw6,RSVPtest,142,g,TRUE,715.8000002,1,r,,3,1,1
fw6,RSVPtest,143,g,TRUE,669.9000001,1,r,,3,2,1
fw6,RSVPtest,144,g,TRUE,2066.5,2,g,,1,0,1
fw6,RSVPtest,145,g,FALSE,1954.1,2,g,,3,0,1
fw6,RSVPtest,146,g,TRUE,919.8999996,0,b,,0,3,0
fw6,RSVPtest,147,g,FALSE,1467.5,2,g,,3,2,1
fw6,RSVPtest,148,g,FALSE,825.7999997,0,b,,0,3,0
fw6,RSVPtest,149,g,FALSE,1052.8,1,r,,3,1,1
fw6,RSVPtest,150,g,FALSE,911.0999999,0,b,,2,3,0
fw6,RSVPtest,151,g,TRUE,697.7000003,2,g,,1,2,1
fw6,RSVPtest,152,g,TRUE,418.4000001,2,g,,0,1,1
fw6,RSVPtest,153,g,FALSE,762.7000003,0,b,,3,3,0
fw6,RSVPtest,154,g,TRUE,1257.6,0,b,,2,3,0
fw6,RSVPtest,155,g,TRUE,619.2999997,2,g,,1,2,1
fw6,RSVPtest,156,g,TRUE,698,1,r,,3,1,1
fw6,RSVPtest,157,g,FALSE,1010.5,2,g,,2,2,2
fw6,RSVPtest,158,g,TRUE,708.4000001,2,g,,1,2,1
fw6,RSVPtest,159,g,FALSE,803.2999997,0,b,,1,3,0
fw6,RSVPtest,160,g,TRUE,691.1999998,2,g,,3,2,1
fw6,RSVPtest,161,g,TRUE,771,0,b,,2,3,0
fw6,RSVPtest,162,g,TRUE,729.0999999,2,g,,3,2,1
fw6,RSVPtest,163,g,TRUE,890,2,g,,2,0,1
fw6,RSVPtest,164,g,TRUE,817.7000003,2,g,,3,1,1
fw6,RSVPtest,165,g,TRUE,618,1,r,,0,1,1
fw6,RSVPtest,166,g,TRUE,446.8999996,0,b,,0,3,0
fw6,RSVPtest,167,g,TRUE,516,2,g,,2,1,1
fw6,RSVPtest,168,g,FALSE,603.2000003,1,r,,3,0,1
fw6,RSVPtest,169,g,FALSE,595.0999999,2,g,,3,0,1
fw6,RSVPtest,170,g,TRUE,620.5999999,1,r,,1,2,1
fw6,RSVPtest,171,g,TRUE,538.5999999,0,b,,1,3,0
fw6,RSVPtest,172,g,TRUE,624.3999996,2,g,,3,2,1
fw6,RSVPtest,173,g,TRUE,692.2000003,2,g,,3,0,1
fw6,RSVPtest,174,g,TRUE,547.9000001,0,b,,1,3,0
fw6,RSVPtest,175,g,FALSE,716.2000003,1,r,,1,1,2
fw6,RSVPtest,176,g,FALSE,641.9000001,2,g,,1,2,1
fw6,RSVPtest,177,g,TRUE,524.6000004,0,b,,0,3,0
fw6,RSVPtest,178,g,TRUE,790.9000001,0,b,,3,3,0
fw6,RSVPtest,179,g,FALSE,1415.3,2,g,,3,1,1
fw6,RSVPtest,180,g,TRUE,636.7999997,1,r,,0,2,1
brk,brk,brk,brk,brk,brk,brk,brk,brk,brk,brk,brk
fw6,RSVPtest,181,g,TRUE,1101.2,1,r,,1,0,1
fw6,RSVPtest,182,g,FALSE,1092.5,0,b,,3,3,0
fw6,RSVPtest,183,g,FALSE,737.1999998,2,g,,2,0,1
fw6,RSVPtest,184,g,FALSE,924.6000004,0,b,,3,3,0
fw6,RSVPtest,185,g,TRUE,676.0999999,0,b,,3,3,0
fw6,RSVPtest,186,g,FALSE,634.6999998,2,g,,3,0,1
fw6,RSVPtest,187,g,TRUE,562.5999999,2,g,,1,1,2
fw6,RSVPtest,188,g,FALSE,805.8999996,2,g,,1,0,1
fw6,RSVPtest,189,g,TRUE,587.3000002,1,r,,3,1,1
fw6,RSVPtest,190,g,FALSE,794.8000002,1,r,,1,2,1
fw6,RSVPtest,191,g,FALSE,702.6000004,1,r,,0,2,1
fw6,RSVPtest,192,g,TRUE,533.1999998,1,r,,1,0,1
fw6,RSVPtest,193,g,TRUE,650.8000002,2,g,,3,1,1
fw6,RSVPtest,194,g,TRUE,666.3000002,2,g,,3,2,1
fw6,RSVPtest,195,g,TRUE,686.7999997,0,b,,1,3,0
fw6,RSVPtest,196,g,TRUE,563.8000002,0,b,,3,3,0
fw6,RSVPtest,197,g,TRUE,767.7000003,1,r,,0,1,1
fw6,RSVPtest,198,g,TRUE,681.9000001,1,r,,1,2,1
fw6,RSVPtest,199,g,FALSE,593.5999999,0,b,,3,3,0
fw6,RSVPtest,200,g,TRUE,602.4000001,0,b,,1,3,0
fw6,RSVPtest,201,g,TRUE,682.2000003,2,g,,3,0,1
fw6,RSVPtest,202,g,TRUE,521.5999999,0,b,,3,3,0
fw6,RSVPtest,203,g,TRUE,729,2,g,,3,2,1
fw6,RSVPtest,204,g,TRUE,785.3000002,0,b,,3,3,0
fw6,RSVPtest,205,g,TRUE,698.8999996,0,b,,3,3,0
fw6,RSVPtest,206,g,TRUE,922.8000002,1,r,,1,2,1
fw6,RSVPtest,207,g,TRUE,810.0999999,1,r,,1,1,2
fw6,RSVPtest,208,g,TRUE,612.5,0,b,,0,3,0
fw6,RSVPtest,209,g,TRUE,625.8000002,1,r,,0,2,1
fw6,RSVPtest,210,g,TRUE,1000.6,1,r,,2,1,1
fw6,RSVPtest,211,g,TRUE,747.0999999,2,g,,0,0,2
fw6,RSVPtest,212,g,TRUE,530.0999999,2,g,,3,1,1
fw6,RSVPtest,213,g,TRUE,851.3000002,1,r,,0,1,1
fw6,RSVPtest,214,g,TRUE,847.2999997,2,g,,2,0,1
fw6,RSVPtest,215,g,TRUE,473.5,0,b,,2,3,0
fw6,RSVPtest,216,g,TRUE,488.6999998,2,g,,0,1,1
fw6,RSVPtest,217,g,TRUE,667.0999999,1,r,,3,1,1
fw6,RSVPtest,218,g,FALSE,609.0999999,2,g,,3,2,1
fw6,RSVPtest,219,g,TRUE,555.1000004,0,b,,2,3,0
fw6,RSVPtest,220,g,FALSE,495.8000002,1,r,,2,1,1
fw6,RSVPtest,221,g,TRUE,699.0999999,1,r,,2,2,2
fw6,RSVPtest,222,g,TRUE,543,1,r,,3,2,1
fw6,RSVPtest,223,g,FALSE,576.1999998,1,r,,3,0,1
fw6,RSVPtest,224,g,TRUE,850.5,0,b,,1,3,0
fw6,RSVPtest,225,g,TRUE,640,0,b,,3,3,0
fw6,RSVPtest,226,g,TRUE,676.5999999,0,b,,1,3,0
fw6,RSVPtest,227,g,FALSE,569.9000001,2,g,,2,2,2
fw6,RSVPtest,228,g,TRUE,674.7000003,2,g,,1,2,1
fw6,RSVPtest,229,g,TRUE,408.7999997,2,g,,0,2,1
fw6,RSVPtest,230,g,TRUE,691.0999999,1,r,,2,0,1
fw6,RSVPtest,231,g,TRUE,548.2999997,1,r,,2,0,1
fw6,RSVPtest,232,g,FALSE,834.5999999,1,r,,3,2,1
fw6,RSVPtest,233,g,FALSE,531.3000002,2,g,,1,0,1
fw6,RSVPtest,234,g,FALSE,754.1999998,1,r,,3,1,1
fw6,RSVPtest,235,g,TRUE,770.4000001,0,b,,1,3,0
fw6,RSVPtest,236,g,TRUE,794.6999998,2,g,,3,1,1
fw6,RSVPtest,237,g,TRUE,632,0,b,,0,3,0
fw6,RSVPtest,238,g,TRUE,1253.6,2,g,,2,0,1
fw6,RSVPtest,239,g,TRUE,690,1,r,,3,2,1
fw6,RSVPtest,240,g,TRUE,1345.9,2,g,,3,2,1
subID,trialType,trialNum,cntBalance,correct,rt,rwdType,tgtCol,tgtDir,tgtPos,colPos,colMatch
gd6,VDACtrain,0,g,null,null,1,r,v,3,,
gd6,VDACtrain,0,g,TRUE,549.3999999,2,g,v,5,,
gd6,VDACtrain,0,g,FALSE,561.3000002,2,g,v,2,,
gd6,VDACtrain,0,g,TRUE,488.9000001,1,r,h,0,,
gd6,VDACtrain,0,g,null,null,1,r,h,1,,
gd6,VDACtrain,0,g,TRUE,511.7,2,g,h,3,,
gd6,VDACtrain,0,g,TRUE,471.9000001,2,g,v,0,,
gd6,VDACtrain,0,g,FALSE,542.8,1,r,v,4,,
gd6,VDACtrain,0,g,TRUE,769.5,2,g,h,5,,
gd6,VDACtrain,0,g,TRUE,465.3,1,r,h,2,,
gd6,VDACtrain,0,g,TRUE,459.3999999,2,g,v,5,,
gd6,VDACtrain,0,g,TRUE,456.5,1,r,v,4,,
gd6,VDACtrain,0,g,TRUE,447.8000002,2,g,v,0,,
gd6,VDACtrain,0,g,TRUE,465.1999998,1,r,h,1,,
gd6,VDACtrain,0,g,TRUE,577.6000001,2,g,h,3,,
gd6,VDACtrain,0,g,TRUE,567,2,g,h,5,,
gd6,VDACtrain,0,g,FALSE,458.2,2,g,v,2,,
gd6,VDACtrain,0,g,TRUE,696.7,1,r,v,3,,
gd6,VDACtrain,0,g,TRUE,623.9000001,1,r,h,0,,
gd6,VDACtrain,0,g,TRUE,481.3,1,r,h,2,,
gd6,VDACtest,1,g,TRUE,380.2,2,g,v,4,,
gd6,VDACtest,2,g,TRUE,489.4000001,1,r,v,5,,
gd6,VDACtest,3,g,TRUE,534.6999998,2,g,h,1,,
gd6,VDACtest,4,g,TRUE,497.7,1,r,h,1,,
gd6,VDACtest,5,g,TRUE,457.0999999,2,g,v,0,,
gd6,VDACtest,6,g,TRUE,1000.3,1,r,h,4,,
gd6,VDACtest,7,g,FALSE,473.1000001,2,g,v,2,,
gd6,VDACtest,8,g,TRUE,602.2,2,g,v,1,,
gd6,VDACtest,9,g,TRUE,480.4000001,1,r,v,4,,
gd6,VDACtest,10,g,TRUE,375.9000001,1,r,v,4,,
gd6,VDACtest,11,g,TRUE,417.9000001,2,g,h,2,,
gd6,VDACtest,12,g,TRUE,448,2,g,v,5,,
gd6,VDACtest,13,g,TRUE,415.4000001,1,r,h,5,,
gd6,VDACtest,14,g,TRUE,520.7,1,r,v,2,,
gd6,VDACtest,15,g,TRUE,616.7,2,g,v,0,,
gd6,VDACtest,16,g,TRUE,451,1,r,h,4,,
gd6,VDACtest,17,g,TRUE,393.8,1,r,v,5,,
gd6,VDACtest,18,g,TRUE,543,1,r,h,0,,
gd6,VDACtest,19,g,TRUE,788.6000001,2,g,v,3,,
gd6,VDACtest,20,g,FALSE,425.9000001,1,r,v,4,,
gd6,VDACtest,21,g,TRUE,680.2,1,r,h,3,,
gd6,VDACtest,22,g,TRUE,688,1,r,h,3,,
gd6,VDACtest,23,g,TRUE,561.1000001,2,g,h,1,,
gd6,VDACtest,24,g,TRUE,617.4000001,1,r,h,0,,
gd6,VDACtest,25,g,TRUE,665.6000001,1,r,v,3,,
gd6,VDACtest,26,g,TRUE,615.1000001,2,g,h,0,,
gd6,VDACtest,27,g,TRUE,505.1999998,2,g,h,3,,
gd6,VDACtest,28,g,TRUE,760.0999999,1,r,v,3,,
gd6,VDACtest,29,g,TRUE,592.5,1,r,v,3,,
gd6,VDACtest,30,g,TRUE,400,2,g,h,1,,
gd6,VDACtest,31,g,TRUE,442.2,1,r,h,3,,
gd6,VDACtest,32,g,TRUE,440.8,2,g,v,4,,
gd6,VDACtest,33,g,TRUE,687.3,2,g,h,1,,
gd6,VDACtest,34,g,TRUE,577.2,2,g,h,5,,
gd6,VDACtest,35,g,TRUE,561.6000001,2,g,v,3,,
gd6,VDACtest,36,g,TRUE,520.8,2,g,h,1,,
gd6,VDACtest,37,g,null,null,1,r,h,2,,
gd6,VDACtest,38,g,TRUE,810.7,1,r,h,1,,
gd6,VDACtest,39,g,TRUE,823.3999999,1,r,v,3,,
gd6,VDACtest,40,g,TRUE,496.8999999,2,g,h,0,,
gd6,VDACtest,41,g,TRUE,641,1,r,h,4,,
gd6,VDACtest,42,g,TRUE,526.3,2,g,h,0,,
gd6,VDACtest,43,g,TRUE,510.8,2,g,h,3,,
gd6,VDACtest,44,g,TRUE,409.9000001,1,r,v,0,,
gd6,VDACtest,45,g,TRUE,718.3000002,1,r,h,4,,
gd6,VDACtest,46,g,TRUE,584.2,2,g,v,2,,
gd6,VDACtest,47,g,FALSE,879.6999998,1,r,v,1,,
gd6,VDACtest,48,g,TRUE,601.9000001,2,g,v,2,,
gd6,VDACtest,49,g,TRUE,480.2,2,g,h,4,,
gd6,VDACtest,50,g,TRUE,865.8,2,g,h,4,,
brk,brk,brk,brk,brk,brk,brk,brk,brk,brk,brk,brk
gd6,VDACtest,51,g,TRUE,781.5999999,1,r,v,1,,
gd6,VDACtest,52,g,TRUE,472.9000001,2,g,v,1,,
gd6,VDACtest,53,g,TRUE,496.8000002,2,g,v,3,,
gd6,VDACtest,54,g,FALSE,442,2,g,h,3,,
gd6,VDACtest,55,g,TRUE,496.2,2,g,h,2,,
gd6,VDACtest,56,g,FALSE,488.5999999,1,r,v,2,,
gd6,VDACtest,57,g,TRUE,953.5999999,2,g,h,4,,
gd6,VDACtest,58,g,TRUE,623.7,1,r,h,2,,
gd6,VDACtest,59,g,TRUE,585,2,g,h,0,,
gd6,VDACtest,60,g,TRUE,499.2,1,r,h,0,,
gd6,VDACtest,61,g,TRUE,464.8000002,1,r,v,0,,
gd6,VDACtest,62,g,TRUE,632.3000002,2,g,h,1,,
gd6,VDACtest,63,g,TRUE,471.3,2,g,v,1,,
gd6,VDACtest,64,g,TRUE,409.8,2,g,h,2,,
gd6,VDACtest,65,g,TRUE,658.1000001,1,r,v,0,,
gd6,VDACtest,66,g,TRUE,496.6999998,2,g,v,4,,
gd6,VDACtest,67,g,TRUE,440.5,1,r,h,1,,
gd6,VDACtest,68,g,TRUE,705.9000001,1,r,h,2,,
gd6,VDACtest,69,g,TRUE,349.0999999,1,r,v,0,,
gd6,VDACtest,70,g,TRUE,665.2,2,g,h,4,,
gd6,VDACtest,71,g,FALSE,472.1000001,2,g,v,2,,
gd6,VDACtest,72,g,TRUE,457.3,1,r,v,0,,
gd6,VDACtest,73,g,TRUE,504.7,2,g,v,0,,
gd6,VDACtest,74,g,TRUE,601,1,r,v,3,,
gd6,VDACtest,75,g,TRUE,480.3,2,g,v,1,,
gd6,VDACtest,76,g,TRUE,504.6000001,1,r,v,0,,
gd6,VDACtest,77,g,TRUE,634.4000001,1,r,h,1,,
gd6,VDACtest,78,g,TRUE,688.6000001,1,r,v,4,,
gd6,VDACtest,79,g,TRUE,440.0999999,2,g,h,2,,
gd6,VDACtest,80,g,TRUE,400.5,1,r,v,2,,
gd6,VDACtest,81,g,TRUE,407.3999999,1,r,h,1,,
gd6,VDACtest,82,g,TRUE,398.6000001,2,g,v,1,,
gd6,VDACtest,83,g,TRUE,585.8999999,2,g,v,2,,
gd6,VDACtest,84,g,TRUE,528.6000001,1,r,v,2,,
gd6,VDACtest,85,g,TRUE,520.8000002,2,g,h,5,,
gd6,VDACtest,86,g,TRUE,535.5,1,r,v,2,,
gd6,VDACtest,87,g,TRUE,601.5,1,r,v,5,,
gd6,VDACtest,88,g,TRUE,641.3999999,1,r,h,5,,
gd6,VDACtest,89,g,TRUE,649.0999999,1,r,v,1,,
gd6,VDACtest,90,g,TRUE,496.5999999,1,r,v,4,,
gd6,VDACtest,91,g,TRUE,575.5,1,r,v,2,,
gd6,VDACtest,92,g,TRUE,504.2,1,r,h,4,,
gd6,VDACtest,93,g,TRUE,600.7,2,g,v,3,,
gd6,VDACtest,94,g,TRUE,512,2,g,v,4,,
gd6,VDACtest,95,g,TRUE,393.3,2,g,v,4,,
gd6,VDACtest,96,g,TRUE,528.6999998,2,g,h,4,,
gd6,VDACtest,97,g,TRUE,656.7,2,g,v,0,,
gd6,VDACtest,98,g,TRUE,504.2,2,g,v,5,,
gd6,VDACtest,99,g,TRUE,457.1000001,1,r,h,1,,
gd6,VDACtest,100,g,TRUE,688.4000001,2,g,h,5,,
brk,brk,brk,brk,brk,brk,brk,brk,brk,brk,brk,brk
gd6,VDACtest,101,g,TRUE,587.5999999,1,r,h,2,,
gd6,VDACtest,102,g,TRUE,422.8,1,r,v,1,,
gd6,VDACtest,103,g,TRUE,455.8,2,g,v,1,,
gd6,VDACtest,104,g,TRUE,385.1000001,1,r,h,2,,
gd6,VDACtest,105,g,TRUE,631.3,1,r,h,3,,
gd6,VDACtest,106,g,TRUE,632.7,1,r,h,3,,
gd6,VDACtest,107,g,TRUE,633.2,1,r,h,5,,
gd6,VDACtest,108,g,TRUE,455.1000001,1,r,v,1,,
gd6,VDACtest,109,g,TRUE,585.4000001,2,g,v,1,,
gd6,VDACtest,110,g,TRUE,423.5,1,r,h,2,,
gd6,VDACtest,111,g,TRUE,496.2,1,r,v,5,,
gd6,VDACtest,112,g,TRUE,408.3,1,r,h,5,,
gd6,VDACtest,113,g,TRUE,472.1000001,1,r,v,4,,
gd6,VDACtest,114,g,TRUE,607.8000002,1,r,v,5,,
gd6,VDACtest,115,g,TRUE,584.4000001,1,r,h,4,,
gd6,VDACtest,116,g,TRUE,615.8,1,r,h,5,,
gd6,VDACtest,117,g,TRUE,577.0999999,1,r,v,3,,
gd6,VDACtest,118,g,TRUE,606.5,1,r,v,2,,
gd6,VDACtest,119,g,TRUE,553.7,2,g,h,0,,
gd6,VDACtest,120,g,TRUE,544.5999999,2,g,h,0,,
gd6,VDACtest,121,g,TRUE,463.8,2,g,v,4,,
gd6,VDACtest,122,g,TRUE,608.1000001,2,g,h,0,,
gd6,VDACtest,123,g,TRUE,809.9000001,1,r,h,4,,
gd6,VDACtest,124,g,TRUE,480.5999999,1,r,h,0,,
gd6,VDACtest,125,g,FALSE,536.8,1,r,v,1,,
gd6,VDACtest,126,g,TRUE,497.3,1,r,h,5,,
gd6,VDACtest,127,g,TRUE,680.2,2,g,h,3,,
gd6,VDACtest,128,g,TRUE,416.0999999,2,g,v,0,,
gd6,VDACtest,129,g,null,null,1,r,v,2,,
gd6,VDACtest,130,g,TRUE,558.5,1,r,h,0,,
gd6,VDACtest,131,g,TRUE,760.0999999,2,g,h,2,,
gd6,VDACtest,132,g,TRUE,412.2,1,r,v,5,,
gd6,VDACtest,133,g,TRUE,496.8,2,g,v,2,,
gd6,VDACtest,134,g,TRUE,712.2,1,r,h,4,,
gd6,VDACtest,135,g,TRUE,439.0999999,2,g,v,0,,
gd6,VDACtest,136,g,TRUE,519.9000001,1,r,h,1,,
gd6,VDACtest,137,g,TRUE,566.5,1,r,h,3,,
gd6,VDACtest,138,g,TRUE,536.4000001,2,g,v,4,,
gd6,VDACtest,139,g,TRUE,455.6000001,2,g,h,4,,
gd6,VDACtest,140,g,TRUE,783.9000001,2,g,v,2,,
gd6,VDACtest,141,g,TRUE,480.9000001,2,g,v,0,,
gd6,VDACtest,142,g,TRUE,583.4000001,1,r,h,1,,
gd6,VDACtest,143,g,TRUE,408.7,1,r,h,5,,
gd6,VDACtest,144,g,TRUE,536.4000001,1,r,v,4,,
gd6,VDACtest,145,g,TRUE,505.5,1,r,v,0,,
gd6,VDACtest,146,g,TRUE,417.0999999,1,r,h,0,,
gd6,VDACtest,147,g,TRUE,519.1000001,1,r,v,5,,
gd6,VDACtest,148,g,TRUE,455.9000001,1,r,v,5,,
gd6,VDACtest,149,g,TRUE,522.1000001,1,r,h,2,,
gd6,VDACtest,150,g,FALSE,711.8999999,2,g,h,1,,
brk,brk,brk,brk,brk,brk,brk,brk,brk,brk,brk,brk
gd6,VDACtest,151,g,TRUE,569.8999999,1,r,v,1,,
gd6,VDACtest,152,g,TRUE,401.5,2,g,h,5,,
gd6,VDACtest,153,g,TRUE,400.3999999,2,g,v,5,,
gd6,VDACtest,154,g,TRUE,337.4000001,2,g,h,5,,
gd6,VDACtest,155,g,TRUE,616.9000001,2,g,h,1,,
gd6,VDACtest,156,g,TRUE,528.8000002,2,g,h,2,,
gd6,VDACtest,157,g,TRUE,761.1000001,1,r,h,3,,
gd6,VDACtest,158,g,TRUE,544.8,1,r,v,4,,
gd6,VDACtest,159,g,TRUE,567.5,1,r,v,4,,
gd6,VDACtest,160,g,TRUE,544.5,2,g,h,4,,
gd6,VDACtest,161,g,TRUE,592.2,2,g,h,5,,
gd6,VDACtest,162,g,TRUE,647.9000001,1,r,h,1,,
gd6,VDACtest,163,g,TRUE,544.1999998,1,r,h,0,,
gd6,VDACtest,164,g,TRUE,392.4000001,2,g,v,5,,
gd6,VDACtest,165,g,TRUE,489.5999999,1,r,h,3,,
gd6,VDACtest,166,g,TRUE,504.5999999,2,g,h,2,,
gd6,VDACtest,167,g,TRUE,512.3999999,2,g,v,4,,
gd6,VDACtest,168,g,TRUE,424.6000001,2,g,h,3,,
gd6,VDACtest,169,g,TRUE,433.5,2,g,v,3,,
gd6,VDACtest,170,g,TRUE,392.2,2,g,v,3,,
gd6,VDACtest,171,g,TRUE,439,1,r,v,3,,
gd6,VDACtest,172,g,TRUE,480.3999999,2,g,v,4,,
gd6,VDACtest,173,g,TRUE,406.6999998,2,g,h,3,,
gd6,VDACtest,174,g,TRUE,426.2,2,g,v,5,,
gd6,VDACtest,175,g,TRUE,376.5,2,g,h,3,,
gd6,VDACtest,176,g,TRUE,688.2,2,g,h,2,,
gd6,VDACtest,177,g,TRUE,409.1000001,2,g,v,1,,
gd6,VDACtest,178,g,TRUE,439.9000001,1,r,h,5,,
gd6,VDACtest,179,g,TRUE,505.1000001,2,g,h,3,,
gd6,VDACtest,180,g,TRUE,393.2,1,r,v,1,,
gd6,VDACtest,181,g,TRUE,463.4000001,2,g,v,3,,
gd6,VDACtest,182,g,TRUE,486.5,2,g,v,2,,
gd6,VDACtest,183,g,TRUE,551.5,2,g,v,5,,
gd6,VDACtest,184,g,TRUE,496.8,2,g,h,5,,
gd6,VDACtest,185,g,TRUE,655.8999999,2,g,h,1,,
gd6,VDACtest,186,g,TRUE,393,2,g,v,0,,
gd6,VDACtest,187,g,TRUE,416.2,2,g,h,0,,
gd6,VDACtest,188,g,TRUE,535,2,g,h,4,,
gd6,VDACtest,189,g,TRUE,461.8,2,g,v,5,,
gd6,VDACtest,190,g,TRUE,478.4000001,2,g,v,3,,
gd6,VDACtest,191,g,TRUE,656.5,1,r,v,0,,
gd6,VDACtest,192,g,TRUE,456.8000002,2,g,h,5,,
gd6,VDACtest,193,g,TRUE,624,1,r,h,0,,
gd6,VDACtest,194,g,TRUE,647.0999999,1,r,h,2,,
gd6,VDACtest,195,g,FALSE,681,2,g,h,4,,
gd6,VDACtest,196,g,TRUE,576.5999999,1,r,h,4,,
gd6,VDACtest,197,g,TRUE,584.5,2,g,v,1,,
gd6,VDACtest,198,g,TRUE,617.2,2,g,v,5,,
gd6,VDACtest,199,g,TRUE,617.3999999,1,r,v,1,,
gd6,VDACtest,200,g,TRUE,703.5,1,r,v,3,,
gd6,RSVPtrain,0,g,FALSE,1385.5,2,g,,1,0,1
gd6,RSVPtrain,0,g,TRUE,1610.5,1,r,,1,1,2
gd6,RSVPtrain,0,g,FALSE,1314.4,0,b,,1,3,0
gd6,RSVPtrain,0,g,TRUE,1656.8,1,r,,0,0,2
gd6,RSVPtrain,0,g,FALSE,2018.4,0,b,,0,3,0
gd6,RSVPtrain,0,g,TRUE,818.8,2,g,,2,2,2
gd6,RSVPtrain,0,g,TRUE,1227.7,2,g,,3,1,1
gd6,RSVPtrain,0,g,TRUE,985.5,0,b,,3,3,0
gd6,RSVPtrain,0,g,TRUE,1067.5,1,r,,3,2,1
gd6,RSVPtrain,0,g,TRUE,879.6999998,2,g,,3,0,1
gd6,RSVPtest,1,g,TRUE,814.4000001,0,b,,1,3,0
gd6,RSVPtest,2,g,TRUE,1483,0,b,,3,3,0
gd6,RSVPtest,3,g,TRUE,953.6999998,1,r,,3,1,1
gd6,RSVPtest,4,g,TRUE,795.2,2,g,,3,0,1
gd6,RSVPtest,5,g,FALSE,973.7,2,g,,2,0,1
gd6,RSVPtest,6,g,FALSE,2010.9,0,b,,2,3,0
gd6,RSVPtest,7,g,TRUE,813.3,1,r,,3,1,1
gd6,RSVPtest,8,g,TRUE,804.3000002,1,r,,3,0,1
gd6,RSVPtest,9,g,TRUE,715.0999999,2,g,,3,2,1
gd6,RSVPtest,10,g,TRUE,1940,0,b,,2,3,0
gd6,RSVPtest,11,g,TRUE,959.1999998,2,g,,3,2,1
gd6,RSVPtest,12,g,TRUE,1307.5,0,b,,0,3,0
gd6,RSVPtest,13,g,TRUE,1065.7,2,g,,3,0,1
gd6,RSVPtest,14,g,TRUE,1108.7,0,b,,2,3,0
gd6,RSVPtest,15,g,TRUE,1004.5,1,r,,2,0,1
gd6,RSVPtest,16,g,TRUE,890.8,2,g,,0,0,2
gd6,RSVPtest,17,g,TRUE,929.7,2,g,,3,0,1
gd6,RSVPtest,18,g,TRUE,1187.1,0,b,,1,3,0
gd6,RSVPtest,19,g,TRUE,819.5,1,r,,1,2,1
gd6,RSVPtest,20,g,TRUE,840.5,1,r,,3,1,1
gd6,RSVPtest,21,g,null,null,2,g,,0,2,1
gd6,RSVPtest,22,g,TRUE,768.7,2,g,,1,1,2
gd6,RSVPtest,23,g,TRUE,594.5999999,2,g,,0,1,1
gd6,RSVPtest,24,g,FALSE,1019.2,2,g,,0,1,1
gd6,RSVPtest,25,g,TRUE,948.4000001,1,r,,0,1,1
gd6,RSVPtest,26,g,TRUE,1323.7,1,r,,1,1,2
gd6,RSVPtest,27,g,TRUE,745.1999998,2,g,,3,2,1
gd6,RSVPtest,28,g,TRUE,875.2,1,r,,3,1,1
gd6,RSVPtest,29,g,TRUE,780,1,r,,3,0,1
gd6,RSVPtest,30,g,TRUE,803.2,1,r,,3,1,1
gd6,RSVPtest,31,g,TRUE,731.6999998,1,r,,3,1,1
gd6,RSVPtest,32,g,FALSE,896.6000001,1,r,,3,2,1
gd6,RSVPtest,33,g,FALSE,715.2,2,g,,0,2,1
gd6,RSVPtest,34,g,TRUE,747.6000001,0,b,,0,3,0
gd6,RSVPtest,35,g,TRUE,968.1000001,0,b,,0,3,0
gd6,RSVPtest,36,g,TRUE,1107.5,1,r,,3,2,1
gd6,RSVPtest,37,g,FALSE,1108.1,1,r,,2,0,1
gd6,RSVPtest,38,g,TRUE,938.1000001,2,g,,2,0,1
gd6,RSVPtest,39,g,FALSE,1098.2,2,g,,3,1,1
gd6,RSVPtest,40,g,TRUE,897.5,1,r,,3,0,1
gd6,RSVPtest,41,g,TRUE,1274.8,1,r,,0,1,1
gd6,RSVPtest,42,g,TRUE,889.7,2,g,,3,1,1
gd6,RSVPtest,43,g,TRUE,770.5999999,0,b,,3,3,0
gd6,RSVPtest,44,g,TRUE,921.8,0,b,,1,3,0
gd6,RSVPtest,45,g,TRUE,1074.8,0,b,,2,3,0
gd6,RSVPtest,46,g,FALSE,1240.9,2,g,,2,1,1
gd6,RSVPtest,47,g,TRUE,930,2,g,,0,1,1
gd6,RSVPtest,48,g,FALSE,2112.3,1,r,,3,0,1
gd6,RSVPtest,49,g,FALSE,1537.5,1,r,,3,2,1
gd6,RSVPtest,50,g,TRUE,889.8,1,r,,2,1,1
gd6,RSVPtest,51,g,TRUE,940.8,1,r,,1,0,1
gd6,RSVPtest,52,g,TRUE,855.2,1,r,,3,0,1
gd6,RSVPtest,53,g,FALSE,809,1,r,,0,2,1
gd6,RSVPtest,54,g,TRUE,1105.8,0,b,,1,3,0
gd6,RSVPtest,55,g,TRUE,1195.2,2,g,,3,2,1
gd6,RSVPtest,56,g,TRUE,749.3999999,1,r,,3,1,1
gd6,RSVPtest,57,g,TRUE,858.6999998,2,g,,0,2,1
gd6,RSVPtest,58,g,TRUE,967,0,b,,3,3,0
gd6,RSVPtest,59,g,TRUE,908.3999999,2,g,,0,1,1
gd6,RSVPtest,60,g,TRUE,1162.5,2,g,,2,1,1
brk,brk,brk,brk,brk,brk,brk,brk,brk,brk,brk,brk
gd6,RSVPtest,61,g,TRUE,843.0999999,1,r,,2,1,1
gd6,RSVPtest,62,g,TRUE,702.7,1,r,,3,0,1
gd6,RSVPtest,63,g,FALSE,825.9000001,1,r,,3,2,1
gd6,RSVPtest,64,g,TRUE,665.7,0,b,,0,3,0
gd6,RSVPtest,65,g,TRUE,729.8999999,1,r,,3,2,1
gd6,RSVPtest,66,g,TRUE,1362.9,1,r,,2,0,1
gd6,RSVPtest,67,g,TRUE,626,0,b,,3,3,0
gd6,RSVPtest,68,g,FALSE,1048.9,0,b,,3,3,0
gd6,RSVPtest,69,g,TRUE,923.0999999,1,r,,1,2,1
gd6,RSVPtest,70,g,TRUE,754.2,0,b,,1,3,0
gd6,RSVPtest,71,g,TRUE,697.6999998,1,r,,1,2,1
gd6,RSVPtest,72,g,TRUE,679.8999999,2,g,,0,0,2
gd6,RSVPtest,73,g,FALSE,933,2,g,,2,0,1
gd6,RSVPtest,74,g,TRUE,1385.9,1,r,,1,1,2
gd6,RSVPtest,75,g,TRUE,1285.8,0,b,,0,3,0
gd6,RSVPtest,76,g,TRUE,1514.9,1,r,,0,2,1
gd6,RSVPtest,77,g,TRUE,757.7,2,g,,0,0,2
gd6,RSVPtest,78,g,TRUE,633.5999999,0,b,,0,3,0
gd6,RSVPtest,79,g,FALSE,1225,2,g,,3,0,1
gd6,RSVPtest,80,g,TRUE,697.0999999,2,g,,3,2,1
gd6,RSVPtest,81,g,TRUE,977.5,2,g,,3,1,1
gd6,RSVPtest,82,g,TRUE,865.8,0,b,,3,3,0
gd6,RSVPtest,83,g,FALSE,848.2,2,g,,2,0,1
gd6,RSVPtest,84,g,TRUE,1273,2,g,,0,2,1
gd6,RSVPtest,85,g,TRUE,1280,1,r,,1,0,1
gd6,RSVPtest,86,g,TRUE,823.9000001,0,b,,3,3,0
gd6,RSVPtest,87,g,TRUE,1055.1,0,b,,3,3,0
gd6,RSVPtest,88,g,TRUE,1552,1,r,,2,2,2
gd6,RSVPtest,89,g,FALSE,968.9000001,0,b,,3,3,0
gd6,RSVPtest,90,g,FALSE,1001,1,r,,0,0,2
gd6,RSVPtest,91,g,TRUE,704.5,1,r,,2,2,2
gd6,RSVPtest,92,g,TRUE,812.9000001,1,r,,3,2,1
gd6,RSVPtest,93,g,TRUE,1082.3,0,b,,2,3,0
gd6,RSVPtest,94,g,TRUE,1584.2,2,g,,2,2,2
gd6,RSVPtest,95,g,TRUE,968.8,2,g,,1,1,2
gd6,RSVPtest,96,g,TRUE,900.3,0,b,,1,3,0
gd6,RSVPtest,97,g,TRUE,777.1999998,1,r,,2,2,2
gd6,RSVPtest,98,g,TRUE,791.3999999,1,r,,1,1,2
gd6,RSVPtest,99,g,TRUE,1362.3,0,b,,2,3,0
gd6,RSVPtest,100,g,TRUE,1824.6,2,g,,3,2,1
gd6,RSVPtest,101,g,TRUE,983.2,0,b,,3,3,0
gd6,RSVPtest,102,g,TRUE,729,2,g,,3,1,1
gd6,RSVPtest,103,g,FALSE,1048.2,2,g,,1,2,1
gd6,RSVPtest,104,g,FALSE,1394.4,1,r,,0,2,1
gd6,RSVPtest,105,g,TRUE,1122.2,1,r,,0,1,1
gd6,RSVPtest,106,g,FALSE,902.6000001,1,r,,0,2,1
gd6,RSVPtest,107,g,FALSE,896.5,2,g,,3,2,1
gd6,RSVPtest,108,g,TRUE,904.2,0,b,,3,3,0
gd6,RSVPtest,109,g,TRUE,1000.9,1,r,,1,1,2
gd6,RSVPtest,110,g,FALSE,1105.1,0,b,,2,3,0
gd6,RSVPtest,111,g,TRUE,537.5,1,r,,0,0,2
gd6,RSVPtest,112,g,TRUE,814.2,2,g,,1,1,2
gd6,RSVPtest,113,g,FALSE,1215.7,1,r,,0,2,1
gd6,RSVPtest,114,g,FALSE,1175.6,2,g,,2,0,1
gd6,RSVPtest,115,g,FALSE,791.9000001,0,b,,3,3,0
gd6,RSVPtest,116,g,FALSE,952.3999999,2,g,,3,1,1
gd6,RSVPtest,117,g,FALSE,880.4000001,2,g,,3,0,1
gd6,RSVPtest,118,g,TRUE,1111.8,2,g,,1,0,1
gd6,RSVPtest,119,g,FALSE,928.5,2,g,,3,1,1
gd6,RSVPtest,120,g,TRUE,552.9000001,1,r,,3,1,1
brk,brk,brk,brk,brk,brk,brk,brk,brk,brk,brk,brk
gd6,RSVPtest,121,g,TRUE,975.8,0,b,,0,3,0
gd6,RSVPtest,122,g,TRUE,1328.4,1,r,,3,0,1
gd6,RSVPtest,123,g,TRUE,880.8,2,g,,0,0,2
gd6,RSVPtest,124,g,TRUE,928.3,2,g,,1,0,1
gd6,RSVPtest,125,g,TRUE,935.0999999,2,g,,0,2,1
gd6,RSVPtest,126,g,TRUE,1193.2,1,r,,3,1,1
gd6,RSVPtest,127,g,TRUE,1060.6,0,b,,3,3,0
gd6,RSVPtest,128,g,TRUE,1081.6,0,b,,0,3,0
gd6,RSVPtest,129,g,TRUE,975.8999999,0,b,,3,3,0
gd6,RSVPtest,130,g,TRUE,1377.5,0,b,,3,3,0
gd6,RSVPtest,131,g,TRUE,1114,2,g,,1,0,1
gd6,RSVPtest,132,g,TRUE,867.9000001,1,r,,1,2,1
gd6,RSVPtest,133,g,TRUE,777,1,r,,1,2,1
gd6,RSVPtest,134,g,TRUE,1008.4,1,r,,3,0,1
gd6,RSVPtest,135,g,TRUE,776.3,2,g,,1,2,1
gd6,RSVPtest,136,g,TRUE,988.3000002,1,r,,3,0,1
gd6,RSVPtest,137,g,TRUE,848.1000001,2,g,,1,1,2
gd6,RSVPtest,138,g,TRUE,921.5,1,r,,3,2,1
gd6,RSVPtest,139,g,TRUE,774.6000001,2,g,,2,1,1
gd6,RSVPtest,140,g,TRUE,1040.8,1,r,,2,1,1
gd6,RSVPtest,141,g,FALSE,1222.8,2,g,,3,0,1
gd6,RSVPtest,142,g,TRUE,793.7,0,b,,1,3,0
gd6,RSVPtest,143,g,TRUE,824.3,0,b,,2,3,0
gd6,RSVPtest,144,g,TRUE,1160.2,0,b,,3,3,0
gd6,RSVPtest,145,g,TRUE,1062.6,0,b,,2,3,0
gd6,RSVPtest,146,g,TRUE,909.9000001,0,b,,1,3,0
gd6,RSVPtest,147,g,TRUE,864.8999999,1,r,,0,0,2
gd6,RSVPtest,148,g,FALSE,1199,0,b,,1,3,0
gd6,RSVPtest,149,g,TRUE,1594.4,0,b,,0,3,0
gd6,RSVPtest,150,g,TRUE,745,0,b,,3,3,0
gd6,RSVPtest,151,g,TRUE,625.0999999,0,b,,1,3,0
gd6,RSVPtest,152,g,TRUE,1015.1,2,g,,0,1,1
gd6,RSVPtest,153,g,TRUE,1151.6,2,g,,3,0,1
gd6,RSVPtest,154,g,TRUE,960.1000001,0,b,,3,3,0
gd6,RSVPtest,155,g,TRUE,895,2,g,,1,0,1
gd6,RSVPtest,156,g,TRUE,1182,1,r,,1,2,1
gd6,RSVPtest,157,g,TRUE,903.8,0,b,,3,3,0
gd6,RSVPtest,158,g,TRUE,833,1,r,,1,0,1
gd6,RSVPtest,159,g,TRUE,1077.7,1,r,,2,2,2
gd6,RSVPtest,160,g,TRUE,774.7,1,r,,3,2,1
gd6,RSVPtest,161,g,TRUE,933.1000001,1,r,,2,0,1
gd6,RSVPtest,162,g,TRUE,1440.4,1,r,,3,0,1
gd6,RSVPtest,163,g,TRUE,641.3999999,2,g,,1,2,1
gd6,RSVPtest,164,g,TRUE,1096,2,g,,3,0,1
gd6,RSVPtest,165,g,TRUE,1072.7,2,g,,1,0,1
gd6,RSVPtest,166,g,TRUE,829.7,0,b,,3,3,0
gd6,RSVPtest,167,g,TRUE,912.4000001,1,r,,3,2,1
gd6,RSVPtest,168,g,TRUE,908.5,0,b,,0,3,0
gd6,RSVPtest,169,g,FALSE,862.5999999,0,b,,2,3,0
gd6,RSVPtest,170,g,TRUE,966.6999998,2,g,,2,2,2
gd6,RSVPtest,171,g,FALSE,799.8,0,b,,1,3,0
gd6,RSVPtest,172,g,TRUE,896.9000001,2,g,,3,0,1
gd6,RSVPtest,173,g,TRUE,1032.2,2,g,,2,1,1
gd6,RSVPtest,174,g,TRUE,881.2,2,g,,3,1,1
gd6,RSVPtest,175,g,TRUE,785.5,2,g,,3,2,1
gd6,RSVPtest,176,g,TRUE,712.5,2,g,,3,1,1
gd6,RSVPtest,177,g,TRUE,982.9000001,1,r,,3,2,1
gd6,RSVPtest,178,g,TRUE,928.4000001,1,r,,1,0,1
gd6,RSVPtest,179,g,TRUE,807.2,2,g,,3,1,1
gd6,RSVPtest,180,g,TRUE,1152.3,1,r,,1,1,2
brk,brk,brk,brk,brk,brk,brk,brk,brk,brk,brk,brk
gd6,RSVPtest,181,g,FALSE,1074.3,2,g,,0,1,1
gd6,RSVPtest,182,g,TRUE,737.5,1,r,,0,1,1
gd6,RSVPtest,183,g,TRUE,1129.1,0,b,,3,3,0
gd6,RSVPtest,184,g,TRUE,1103.2,2,g,,3,0,1
gd6,RSVPtest,185,g,TRUE,825.4000001,2,g,,0,0,2
gd6,RSVPtest,186,g,FALSE,969,2,g,,3,2,1
gd6,RSVPtest,187,g,TRUE,1191,1,r,,2,2,2
gd6,RSVPtest,188,g,TRUE,1179,2,g,,3,0,1
gd6,RSVPtest,189,g,TRUE,1020.1,0,b,,0,3,0
gd6,RSVPtest,190,g,TRUE,1183.7,1,r,,3,2,1
gd6,RSVPtest,191,g,TRUE,1012.7,2,g,,3,2,1
gd6,RSVPtest,192,g,TRUE,1017.5,1,r,,3,0,1
gd6,RSVPtest,193,g,TRUE,1079.8,2,g,,1,2,1
gd6,RSVPtest,194,g,TRUE,769.0999999,0,b,,3,3,0
gd6,RSVPtest,195,g,TRUE,821.8000002,1,r,,3,1,1
gd6,RSVPtest,196,g,FALSE,1174.3,2,g,,0,0,2
gd6,RSVPtest,197,g,TRUE,659.9000001,0,b,,1,3,0
gd6,RSVPtest,198,g,TRUE,783.9000001,2,g,,2,0,1
gd6,RSVPtest,199,g,FALSE,1222.4,1,r,,0,1,1
gd6,RSVPtest,200,g,TRUE,862.6999998,1,r,,0,2,1
gd6,RSVPtest,201,g,TRUE,1053.7,0,b,,2,3,0
gd6,RSVPtest,202,g,FALSE,688,0,b,,3,3,0
gd6,RSVPtest,203,g,TRUE,825.1999998,1,r,,0,0,2
gd6,RSVPtest,204,g,TRUE,776.3,2,g,,2,1,1
gd6,RSVPtest,205,g,TRUE,769.7,1,r,,2,1,1
gd6,RSVPtest,206,g,TRUE,837.8,1,r,,2,1,1
gd6,RSVPtest,207,g,TRUE,1068.6,2,g,,3,1,1
gd6,RSVPtest,208,g,TRUE,1022.5,1,r,,3,1,1
gd6,RSVPtest,209,g,TRUE,929.7,0,b,,3,3,0
gd6,RSVPtest,210,g,TRUE,1133.8,1,r,,2,2,2
gd6,RSVPtest,211,g,TRUE,765.3000002,1,r,,3,2,1
gd6,RSVPtest,212,g,TRUE,842.7,1,r,,1,0,1
gd6,RSVPtest,213,g,FALSE,921.9000001,1,r,,0,0,2
gd6,RSVPtest,214,g,TRUE,1157.9,2,g,,1,0,1
gd6,RSVPtest,215,g,TRUE,791.1000001,2,g,,2,2,2
gd6,RSVPtest,216,g,FALSE,939,2,g,,0,2,1
gd6,RSVPtest,217,g,TRUE,901.7,1,r,,0,1,1
gd6,RSVPtest,218,g,TRUE,910.8,2,g,,3,0,1
gd6,RSVPtest,219,g,TRUE,909.8000002,1,r,,3,1,1
gd6,RSVPtest,220,g,TRUE,942.3,1,r,,2,0,1
gd6,RSVPtest,221,g,TRUE,871.9000001,1,r,,3,0,1
gd6,RSVPtest,222,g,TRUE,1158.8,2,g,,1,1,2
gd6,RSVPtest,223,g,TRUE,1206.1,2,g,,2,2,2
gd6,RSVPtest,224,g,TRUE,679.8,2,g,,2,2,2
gd6,RSVPtest,225,g,FALSE,1684.1,0,b,,0,3,0
gd6,RSVPtest,226,g,TRUE,842.2,1,r,,2,0,1
gd6,RSVPtest,227,g,TRUE,796.5,1,r,,1,0,1
gd6,RSVPtest,228,g,TRUE,908.9000001,1,r,,0,0,2
gd6,RSVPtest,229,g,FALSE,1071.9,2,g,,2,2,2
gd6,RSVPtest,230,g,TRUE,566.4000001,2,g,,1,2,1
gd6,RSVPtest,231,g,TRUE,735.5,2,g,,1,2,1
gd6,RSVPtest,232,g,TRUE,680.0999999,2,g,,3,1,1
gd6,RSVPtest,233,g,TRUE,670.7,2,g,,3,2,1
gd6,RSVPtest,234,g,TRUE,710.3,2,g,,2,1,1
gd6,RSVPtest,235,g,TRUE,735.5,2,g,,3,1,1
gd6,RSVPtest,236,g,TRUE,878.8,2,g,,1,1,2
gd6,RSVPtest,237,g,TRUE,880.4000001,1,r,,1,1,2
gd6,RSVPtest,238,g,TRUE,661.0999999,2,g,,3,2,1
gd6,RSVPtest,239,g,TRUE,590.1000001,1,r,,2,1,1
gd6,RSVPtest,240,g,TRUE,1131.8,0,b,,2,3,0
subID,trialType,trialNum,cntBalance,correct,rt,rwdType,tgtCol,tgtDir,tgtPos,colPos,colMatch
aer,VDACtrain,0,g,null,null,1,r,h,1,,
aer,VDACtrain,0,g,TRUE,638,1,r,v,3,,
aer,VDACtrain,0,g,TRUE,507.5,1,r,v,4,,
aer,VDACtrain,0,g,TRUE,595.4,2,g,h,3,,
aer,VDACtrain,0,g,FALSE,740.9,2,g,v,0,,
aer,VDACtrain,0,g,FALSE,804.5,1,r,h,0,,
aer,VDACtrain,0,g,TRUE,996.4,2,g,h,5,,
aer,VDACtrain,0,g,TRUE,876.3,2,g,v,2,,
aer,VDACtrain,0,g,TRUE,653.6,2,g,v,5,,
aer,VDACtrain,0,g,TRUE,615.4,1,r,h,2,,
aer,VDACtest,1,g,null,null,1,r,v,2,,
aer,VDACtest,2,g,TRUE,601.2,1,r,v,2,,
aer,VDACtest,3,g,TRUE,517.3,1,r,v,1,,
aer,VDACtest,4,g,TRUE,530.1,2,g,h,3,,
aer,VDACtest,5,g,TRUE,765.3,2,g,v,2,,
aer,VDACtest,6,g,TRUE,932.8,1,r,h,4,,
aer,VDACtest,7,g,TRUE,670.1,2,g,h,0,,
aer,VDACtest,8,g,TRUE,723.9,1,r,h,1,,
aer,VDACtest,9,g,TRUE,677.1,2,g,v,3,,
aer,VDACtest,10,g,TRUE,692.8,1,r,h,5,,
aer,VDACtest,11,g,TRUE,805,1,r,v,5,,
aer,VDACtest,12,g,TRUE,620.4,1,r,v,3,,
aer,VDACtest,13,g,TRUE,613,1,r,h,4,,
aer,VDACtest,14,g,TRUE,707.7,1,r,h,2,,
aer,VDACtest,15,g,TRUE,708.4,1,r,h,3,,
aer,VDACtest,16,g,TRUE,549.2,1,r,v,1,,
aer,VDACtest,17,g,FALSE,652.5,2,g,v,3,,
aer,VDACtest,18,g,TRUE,965.7,2,g,h,5,,
aer,VDACtest,19,g,TRUE,668.2,2,g,v,3,,
aer,VDACtest,20,g,TRUE,709.1,1,r,h,4,,
aer,VDACtest,21,g,null,null,1,r,h,0,,
aer,VDACtest,22,g,TRUE,832.3,1,r,h,5,,
aer,VDACtest,23,g,TRUE,540.4,1,r,h,4,,
aer,VDACtest,24,g,TRUE,789.2,2,g,h,1,,
aer,VDACtest,25,g,TRUE,612.2,2,g,v,0,,
aer,VDACtest,26,g,TRUE,764.9,1,r,h,5,,
aer,VDACtest,27,g,TRUE,516.4,1,r,h,0,,
aer,VDACtest,28,g,FALSE,564.1,2,g,h,0,,
aer,VDACtest,29,g,TRUE,723.4,2,g,v,4,,
aer,VDACtest,30,g,TRUE,500.1,1,r,h,1,,
aer,VDACtest,31,g,TRUE,932.1,2,g,v,5,,
aer,VDACtest,32,g,TRUE,588.4,2,g,h,4,,
aer,VDACtest,33,g,TRUE,861.1,1,r,h,2,,
aer,VDACtest,34,g,TRUE,476.1,1,r,h,2,,
aer,VDACtest,35,g,TRUE,622,1,r,h,5,,
aer,VDACtest,36,g,TRUE,444.1,1,r,h,0,,
aer,VDACtest,37,g,TRUE,612.8,2,g,v,4,,
aer,VDACtest,38,g,TRUE,548.2,1,r,h,5,,
aer,VDACtest,39,g,TRUE,844.7,2,g,h,1,,
aer,VDACtest,40,g,TRUE,668.5,1,r,v,4,,
aer,VDACtest,41,g,TRUE,740.8,2,g,v,5,,
aer,VDACtest,42,g,FALSE,763.5,2,g,v,0,,
aer,VDACtest,43,g,TRUE,906.8,2,g,v,2,,
aer,VDACtest,44,g,TRUE,588.1,2,g,v,4,,
aer,VDACtest,45,g,null,null,1,r,v,3,,
aer,VDACtest,46,g,TRUE,614.1,1,r,h,4,,
aer,VDACtest,47,g,TRUE,580.6,1,r,v,0,,
aer,VDACtest,48,g,TRUE,683.8,2,g,v,5,,
aer,VDACtest,49,g,TRUE,667.9,1,r,h,2,,
aer,VDACtest,50,g,FALSE,628.7,2,g,h,5,,
brk,brk,brk,brk,brk,brk,brk,brk,brk,brk,brk,brk
aer,VDACtest,51,g,null,null,2,g,h,1,,
aer,VDACtest,52,g,TRUE,490.3,2,g,h,1,,
aer,VDACtest,53,g,TRUE,550.9,2,g,h,4,,
aer,VDACtest,54,g,TRUE,484.8,2,g,h,1,,
aer,VDACtest,55,g,TRUE,516.9,2,g,v,3,,
aer,VDACtest,56,g,null,null,1,r,v,3,,
aer,VDACtest,57,g,null,null,2,g,h,5,,
aer,VDACtest,58,g,FALSE,582.4,2,g,v,2,,
aer,VDACtest,59,g,TRUE,763.7,1,r,h,1,,
aer,VDACtest,60,g,TRUE,499.5,2,g,v,1,,
aer,VDACtest,61,g,TRUE,516.5,2,g,v,2,,
aer,VDACtest,62,g,TRUE,770.8,1,r,h,3,,
aer,VDACtest,63,g,FALSE,589.8,2,g,h,4,,
aer,VDACtest,64,g,TRUE,932.4,1,r,v,2,,
aer,VDACtest,65,g,TRUE,653.2,1,r,v,0,,
aer,VDACtest,66,g,TRUE,523.2,1,r,v,3,,
aer,VDACtest,67,g,TRUE,604.5,2,g,h,2,,
aer,VDACtest,68,g,TRUE,588.9,1,r,h,0,,
aer,VDACtest,69,g,TRUE,820.3,2,g,h,0,,
aer,VDACtest,70,g,TRUE,564.1,2,g,h,3,,
aer,VDACtest,71,g,TRUE,645.7,2,g,v,4,,
aer,VDACtest,72,g,TRUE,540.7,2,g,h,4,,
aer,VDACtest,73,g,TRUE,900.2,1,r,v,2,,
aer,VDACtest,74,g,FALSE,518.7,1,r,h,4,,
aer,VDACtest,75,g,FALSE,893.3,2,g,v,0,,
aer,VDACtest,76,g,TRUE,612.2,2,g,v,1,,
aer,VDACtest,77,g,TRUE,533,2,g,v,5,,
aer,VDACtest,78,g,TRUE,764.5,1,r,v,5,,
aer,VDACtest,79,g,TRUE,576.1,1,r,h,0,,
aer,VDACtest,80,g,TRUE,717.1,1,r,h,1,,
aer,VDACtest,81,g,TRUE,533.7,1,r,h,0,,
aer,VDACtest,82,g,TRUE,484.4,1,r,v,0,,
aer,VDACtest,83,g,TRUE,694.5,2,g,v,1,,
aer,VDACtest,84,g,TRUE,557.2,2,g,h,4,,
aer,VDACtest,85,g,TRUE,618.5,1,r,v,4,,
aer,VDACtest,86,g,TRUE,558.3,1,r,h,3,,
aer,VDACtest,87,g,TRUE,509,2,g,v,5,,
aer,VDACtest,88,g,TRUE,532.9,2,g,v,5,,
aer,VDACtest,89,g,TRUE,972.7,1,r,h,4,,
aer,VDACtest,90,g,TRUE,653,1,r,h,3,,
aer,VDACtest,91,g,TRUE,468.1,2,g,v,1,,
aer,VDACtest,92,g,FALSE,558.1,2,g,h,1,,
aer,VDACtest,93,g,TRUE,694.2,1,r,h,3,,
aer,VDACtest,94,g,TRUE,500.7,1,r,v,4,,
aer,VDACtest,95,g,null,null,2,g,v,0,,
aer,VDACtest,96,g,TRUE,729.4,1,r,h,5,,
aer,VDACtest,97,g,TRUE,740,2,g,v,0,,
aer,VDACtest,98,g,null,null,2,g,h,0,,
aer,VDACtest,99,g,TRUE,853.4,1,r,v,2,,
aer,VDACtest,100,g,TRUE,620.3,2,g,h,0,,
brk,brk,brk,brk,brk,brk,brk,brk,brk,brk,brk,brk
aer,VDACtest,101,g,null,null,2,g,v,4,,
aer,VDACtest,102,g,TRUE,697.3,2,g,v,5,,
aer,VDACtest,103,g,TRUE,667.9,2,g,h,0,,
aer,VDACtest,104,g,TRUE,604.2,2,g,v,1,,
aer,VDACtest,105,g,null,null,1,r,v,4,,
aer,VDACtest,106,g,TRUE,784.5,2,g,v,0,,
aer,VDACtest,107,g,FALSE,474.8,2,g,v,3,,
aer,VDACtest,108,g,TRUE,941.9,2,g,v,2,,
aer,VDACtest,109,g,TRUE,659.6,1,r,v,1,,
aer,VDACtest,110,g,TRUE,556,2,g,v,3,,
aer,VDACtest,111,g,TRUE,725.5,1,r,v,1,,
aer,VDACtest,112,g,null,null,1,r,h,4,,
aer,VDACtest,113,g,TRUE,496,1,r,v,4,,
aer,VDACtest,114,g,TRUE,491.4,1,r,v,4,,
aer,VDACtest,115,g,TRUE,532.5,1,r,v,5,,
aer,VDACtest,116,g,TRUE,643.8,2,g,h,0,,
aer,VDACtest,117,g,FALSE,621,1,r,h,5,,
aer,VDACtest,118,g,TRUE,677.8,2,g,h,4,,
aer,VDACtest,119,g,TRUE,481.1,2,g,h,1,,
aer,VDACtest,120,g,TRUE,555.8,2,g,h,2,,
aer,VDACtest,121,g,TRUE,396.2,2,g,h,2,,
aer,VDACtest,122,g,TRUE,529.6,1,r,v,1,,
aer,VDACtest,123,g,FALSE,524.6,1,r,h,1,,
aer,VDACtest,124,g,TRUE,693.2,1,r,h,3,,
aer,VDACtest,125,g,TRUE,605.1,2,g,v,2,,
aer,VDACtest,126,g,TRUE,549,1,r,h,1,,
aer,VDACtest,127,g,TRUE,644,1,r,v,4,,
aer,VDACtest,128,g,TRUE,620.1,2,g,h,1,,
aer,VDACtest,129,g,null,null,1,r,h,3,,
aer,VDACtest,130,g,TRUE,633.1,2,g,v,0,,
aer,VDACtest,131,g,TRUE,427,2,g,h,3,,
aer,VDACtest,132,g,TRUE,605.9,2,g,v,0,,
aer,VDACtest,133,g,TRUE,563.9,2,g,h,2,,
aer,VDACtest,134,g,TRUE,565,2,g,v,1,,
aer,VDACtest,135,g,TRUE,579.4,1,r,v,0,,
aer,VDACtest,136,g,TRUE,487.2,1,r,v,0,,
aer,VDACtest,137,g,TRUE,644.3,2,g,h,3,,
aer,VDACtest,138,g,TRUE,533.2,1,r,v,0,,
aer,VDACtest,139,g,TRUE,523.5,1,r,v,3,,
aer,VDACtest,140,g,TRUE,763.2,2,g,h,4,,
aer,VDACtest,141,g,TRUE,542.3,1,r,v,4,,
aer,VDACtest,142,g,TRUE,805.5,1,r,v,1,,
aer,VDACtest,143,g,TRUE,507.1,1,r,v,5,,
aer,VDACtest,144,g,TRUE,380.4,1,r,v,5,,
aer,VDACtest,145,g,TRUE,612.3,1,r,v,4,,
aer,VDACtest,146,g,TRUE,836,2,g,h,1,,
aer,VDACtest,147,g,TRUE,557.7,2,g,v,4,,
aer,VDACtest,148,g,TRUE,517.9,2,g,h,2,,
aer,VDACtest,149,g,TRUE,524.4,1,r,v,5,,
aer,VDACtest,150,g,TRUE,773.3,1,r,v,3,,
brk,brk,brk,brk,brk,brk,brk,brk,brk,brk,brk,brk
aer,VDACtest,151,g,null,null,2,g,h,3,,
aer,VDACtest,152,g,TRUE,804.5,2,g,v,4,,
aer,VDACtest,153,g,TRUE,588.4,1,r,h,4,,
aer,VDACtest,154,g,TRUE,764.4,2,g,h,2,,
aer,VDACtest,155,g,TRUE,605.8,1,r,v,0,,
aer,VDACtest,156,g,TRUE,526.2,1,r,v,5,,
aer,VDACtest,157,g,TRUE,740.6,2,g,v,3,,
aer,VDACtest,158,g,TRUE,774,2,g,v,1,,
aer,VDACtest,159,g,TRUE,933.6,1,r,h,2,,
aer,VDACtest,160,g,FALSE,613.1,2,g,h,5,,
aer,VDACtest,161,g,null,null,1,r,h,1,,
aer,VDACtest,162,g,TRUE,457.3,1,r,h,2,,
aer,VDACtest,163,g,TRUE,529.9,1,r,h,0,,
aer,VDACtest,164,g,TRUE,716.6,2,g,h,4,,
aer,VDACtest,165,g,TRUE,491.9,1,r,v,5,,
aer,VDACtest,166,g,TRUE,507.2,2,g,h,5,,
aer,VDACtest,167,g,FALSE,564.8,2,g,v,1,,
aer,VDACtest,168,g,TRUE,701.1,2,g,h,5,,
aer,VDACtest,169,g,TRUE,435.6,1,r,v,2,,
aer,VDACtest,170,g,FALSE,362.1,2,g,v,4,,
aer,VDACtest,171,g,TRUE,558.7,2,g,v,2,,
aer,VDACtest,172,g,TRUE,487.5,2,g,v,3,,
aer,VDACtest,173,g,FALSE,524.4,1,r,v,1,,
aer,VDACtest,174,g,TRUE,564.7,2,g,h,5,,
aer,VDACtest,175,g,FALSE,581.1,1,r,h,0,,
aer,VDACtest,176,g,TRUE,525,1,r,v,1,,
aer,VDACtest,177,g,TRUE,484.1,1,r,v,1,,
aer,VDACtest,178,g,null,null,2,g,v,2,,
aer,VDACtest,179,g,FALSE,536.7,1,r,h,1,,
aer,VDACtest,180,g,TRUE,628,2,g,h,4,,
aer,VDACtest,181,g,TRUE,581,2,g,h,3,,
aer,VDACtest,182,g,TRUE,573.1,2,g,h,2,,
aer,VDACtest,183,g,TRUE,425.8,1,r,v,3,,
aer,VDACtest,184,g,TRUE,460.5,2,g,h,2,,
aer,VDACtest,185,g,TRUE,452.8,1,r,v,0,,
aer,VDACtest,186,g,TRUE,524.5,1,r,h,3,,
aer,VDACtest,187,g,TRUE,651.5,2,g,h,3,,
aer,VDACtest,188,g,TRUE,523.3,1,r,h,1,,
aer,VDACtest,189,g,TRUE,508.8,1,r,h,2,,
aer,VDACtest,190,g,TRUE,572,2,g,v,1,,
aer,VDACtest,191,g,FALSE,532,2,g,h,5,,
aer,VDACtest,192,g,FALSE,546.2,2,g,v,5,,
aer,VDACtest,193,g,TRUE,956.6,1,r,v,2,,
aer,VDACtest,194,g,FALSE,629,1,r,h,5,,
aer,VDACtest,195,g,TRUE,666.8,2,g,h,0,,
aer,VDACtest,196,g,TRUE,604.3,2,g,v,4,,
aer,VDACtest,197,g,null,null,1,r,h,2,,
aer,VDACtest,198,g,FALSE,672.7,2,g,h,3,,
aer,VDACtest,199,g,TRUE,621.2,1,r,v,3,,
aer,VDACtest,200,g,TRUE,570.6,1,r,v,2,,
aer,RSVPtrain,0,g,null,null,1,r,,3,2,1
aer,RSVPtrain,0,g,TRUE,1303.7,0,b,,3,3,0
aer,RSVPtrain,0,g,TRUE,1526.8,2,g,,1,0,1
aer,RSVPtrain,0,g,TRUE,1182.2,2,g,,3,0,1
aer,RSVPtrain,0,g,TRUE,1790,0,b,,0,3,0
aer,RSVPtrain,0,g,TRUE,1230.2,1,r,,1,1,2
aer,RSVPtrain,0,g,TRUE,860,1,r,,0,0,2
aer,RSVPtrain,0,g,TRUE,1022.4,2,g,,3,1,1
aer,RSVPtrain,0,g,TRUE,919.5,2,g,,2,2,2
aer,RSVPtrain,0,g,FALSE,886.6,0,b,,1,3,0
aer,RSVPtest,1,g,TRUE,687,2,g,,3,1,1
aer,RSVPtest,2,g,TRUE,629.4,0,b,,2,3,0
aer,RSVPtest,3,g,TRUE,1094.7,2,g,,0,1,1
aer,RSVPtest,4,g,FALSE,955.8,1,r,,2,2,2
aer,RSVPtest,5,g,TRUE,976.9,0,b,,2,3,0
aer,RSVPtest,6,g,TRUE,605.3,2,g,,1,1,2
aer,RSVPtest,7,g,TRUE,1583.5,2,g,,1,2,1
aer,RSVPtest,8,g,FALSE,557,1,r,,2,1,1
aer,RSVPtest,9,g,TRUE,767.4,2,g,,1,1,2
aer,RSVPtest,10,g,TRUE,864.8,1,r,,3,1,1
aer,RSVPtest,11,g,FALSE,647.4,1,r,,0,0,2
aer,RSVPtest,12,g,TRUE,740.7,0,b,,3,3,0
aer,RSVPtest,13,g,TRUE,694.8,0,b,,1,3,0
aer,RSVPtest,14,g,FALSE,878.7,2,g,,2,1,1
aer,RSVPtest,15,g,TRUE,681.2,2,g,,3,1,1
aer,RSVPtest,16,g,TRUE,766.1,0,b,,1,3,0
aer,RSVPtest,17,g,FALSE,470.7,2,g,,2,0,1
aer,RSVPtest,18,g,TRUE,433.4,0,b,,0,3,0
aer,RSVPtest,19,g,TRUE,623.5,1,r,,2,1,1
aer,RSVPtest,20,g,TRUE,631.5,1,r,,3,0,1
aer,RSVPtest,21,g,TRUE,615.5,1,r,,1,2,1
aer,RSVPtest,22,g,TRUE,773.4,0,b,,3,3,0
aer,RSVPtest,23,g,TRUE,838.3,0,b,,3,3,0
aer,RSVPtest,24,g,TRUE,980.7,0,b,,0,3,0
aer,RSVPtest,25,g,TRUE,623.3,0,b,,1,3,0
aer,RSVPtest,26,g,TRUE,671.5,2,g,,2,1,1
aer,RSVPtest,27,g,FALSE,1185.2,1,r,,2,2,2
aer,RSVPtest,28,g,TRUE,438.6,2,g,,0,0,2
aer,RSVPtest,29,g,TRUE,775.6,0,b,,3,3,0
aer,RSVPtest,30,g,TRUE,886.2,1,r,,3,2,1
aer,RSVPtest,31,g,TRUE,839.6,1,r,,3,0,1
aer,RSVPtest,32,g,TRUE,687.3,0,b,,1,3,0
aer,RSVPtest,33,g,TRUE,512.7,2,g,,3,2,1
aer,RSVPtest,34,g,TRUE,660.7,1,r,,3,2,1
aer,RSVPtest,35,g,FALSE,664.3,2,g,,2,0,1
aer,RSVPtest,36,g,FALSE,821.5,1,r,,2,0,1
aer,RSVPtest,37,g,FALSE,704.4,1,r,,3,2,1
aer,RSVPtest,38,g,FALSE,750.5,1,r,,0,1,1
aer,RSVPtest,39,g,TRUE,732.2,1,r,,2,0,1
aer,RSVPtest,40,g,FALSE,167.1,1,r,,3,1,1
aer,RSVPtest,41,g,FALSE,974.9,1,r,,0,1,1
aer,RSVPtest,42,g,FALSE,621.1,0,b,,3,3,0
aer,RSVPtest,43,g,TRUE,605.2,2,g,,3,1,1
aer,RSVPtest,44,g,TRUE,1261.1,1,r,,3,1,1
aer,RSVPtest,45,g,TRUE,1455.3,1,r,,1,1,2
aer,RSVPtest,46,g,FALSE,774.5,1,r,,0,2,1
aer,RSVPtest,47,g,TRUE,1030.1,2,g,,0,1,1
aer,RSVPtest,48,g,TRUE,1214.1,1,r,,1,1,2
aer,RSVPtest,49,g,TRUE,607.9,2,g,,0,0,2
aer,RSVPtest,50,g,TRUE,533,0,b,,1,3,0
aer,RSVPtest,51,g,TRUE,830.1,2,g,,3,1,1
aer,RSVPtest,52,g,TRUE,613,1,r,,1,0,1
aer,RSVPtest,53,g,FALSE,541.5,1,r,,1,2,1
aer,RSVPtest,54,g,TRUE,404.9,0,b,,2,3,0
aer,RSVPtest,55,g,TRUE,636.6,0,b,,3,3,0
aer,RSVPtest,56,g,TRUE,655.3,1,r,,2,0,1
aer,RSVPtest,57,g,FALSE,894.7,0,b,,0,3,0
aer,RSVPtest,58,g,FALSE,957.4,1,r,,3,2,1
aer,RSVPtest,59,g,FALSE,829.6,1,r,,3,1,1
aer,RSVPtest,60,g,TRUE,893.6,1,r,,0,2,1
brk,brk,brk,brk,brk,brk,brk,brk,brk,brk,brk,brk
aer,RSVPtest,61,g,null,null,2,g,,2,1,1
aer,RSVPtest,62,g,TRUE,1354.9,2,g,,2,0,1
aer,RSVPtest,63,g,TRUE,821.3,2,g,,0,1,1
aer,RSVPtest,64,g,FALSE,1763.5,1,r,,2,0,1
aer,RSVPtest,65,g,TRUE,1004.9,0,b,,3,3,0
aer,RSVPtest,66,g,TRUE,1134.8,2,g,,3,2,1
aer,RSVPtest,67,g,FALSE,726.8,0,b,,1,3,0
aer,RSVPtest,68,g,TRUE,594,2,g,,3,0,1
aer,RSVPtest,69,g,FALSE,965.6,1,r,,0,0,2
aer,RSVPtest,70,g,FALSE,654.9,2,g,,3,2,1
aer,RSVPtest,71,g,FALSE,698.5,1,r,,0,0,2
aer,RSVPtest,72,g,TRUE,565.9,0,b,,1,3,0
aer,RSVPtest,73,g,TRUE,821.4,2,g,,0,1,1
aer,RSVPtest,74,g,FALSE,661,2,g,,1,2,1
aer,RSVPtest,75,g,TRUE,985.3,0,b,,3,3,0
aer,RSVPtest,76,g,TRUE,716.6,2,g,,3,1,1
aer,RSVPtest,77,g,TRUE,931,2,g,,3,0,1
aer,RSVPtest,78,g,TRUE,1391.2,2,g,,1,0,1
aer,RSVPtest,79,g,FALSE,1406.2,1,r,,1,0,1
aer,RSVPtest,80,g,TRUE,748.1,0,b,,2,3,0
aer,RSVPtest,81,g,TRUE,836,1,r,,0,2,1
aer,RSVPtest,82,g,TRUE,652.6,0,b,,2,3,0
aer,RSVPtest,83,g,TRUE,566,0,b,,2,3,0
aer,RSVPtest,84,g,TRUE,741.1,1,r,,3,2,1
aer,RSVPtest,85,g,TRUE,667.3,2,g,,3,2,1
aer,RSVPtest,86,g,FALSE,396.3,0,b,,0,3,0
aer,RSVPtest,87,g,TRUE,436.6,0,b,,0,3,0
aer,RSVPtest,88,g,TRUE,838.1,0,b,,2,3,0
aer,RSVPtest,89,g,TRUE,782.1,0,b,,0,3,0
aer,RSVPtest,90,g,TRUE,582.6,2,g,,3,1,1
aer,RSVPtest,91,g,TRUE,564.4,1,r,,3,1,1
aer,RSVPtest,92,g,FALSE,573.7,2,g,,1,2,1
aer,RSVPtest,93,g,FALSE,556.8,2,g,,3,0,1
aer,RSVPtest,94,g,TRUE,614.8,1,r,,1,2,1
aer,RSVPtest,95,g,FALSE,639.8,2,g,,1,1,2
aer,RSVPtest,96,g,TRUE,678.5,2,g,,0,2,1
aer,RSVPtest,97,g,FALSE,573.1,2,g,,3,0,1
aer,RSVPtest,98,g,TRUE,667.7,1,r,,1,2,1
aer,RSVPtest,99,g,TRUE,620.4,1,r,,2,0,1
aer,RSVPtest,100,g,TRUE,747.4,1,r,,3,1,1
aer,RSVPtest,101,g,TRUE,563.2,1,r,,3,2,1
aer,RSVPtest,102,g,TRUE,540.5,2,g,,0,0,2
aer,RSVPtest,103,g,FALSE,733.1,1,r,,0,0,2
aer,RSVPtest,104,g,TRUE,539.4,2,g,,0,2,1
aer,RSVPtest,105,g,TRUE,700.1,2,g,,3,2,1
aer,RSVPtest,106,g,TRUE,627.9,0,b,,2,3,0
aer,RSVPtest,107,g,TRUE,762.7,1,r,,1,1,2
aer,RSVPtest,108,g,FALSE,957.1,2,g,,2,1,1
aer,RSVPtest,109,g,FALSE,1189,0,b,,3,3,0
aer,RSVPtest,110,g,TRUE,1078.4,2,g,,1,0,1
aer,RSVPtest,111,g,TRUE,699.4,2,g,,3,0,1
aer,RSVPtest,112,g,FALSE,877.1,2,g,,1,1,2
aer,RSVPtest,113,g,TRUE,660.2,1,r,,3,2,1
aer,RSVPtest,114,g,TRUE,645.1,1,r,,1,0,1
aer,RSVPtest,115,g,TRUE,621,2,g,,2,0,1
aer,RSVPtest,116,g,TRUE,741.7,2,g,,3,0,1
aer,RSVPtest,117,g,FALSE,764.3,2,g,,3,0,1
aer,RSVPtest,118,g,TRUE,549,2,g,,3,2,1
aer,RSVPtest,119,g,FALSE,891.9,0,b,,2,3,0
aer,RSVPtest,120,g,TRUE,1885.8,1,r,,3,0,1
brk,brk,brk,brk,brk,brk,brk,brk,brk,brk,brk,brk
aer,RSVPtest,121,g,TRUE,975.4,2,g,,2,0,1
aer,RSVPtest,122,g,TRUE,557.2,1,r,,1,2,1
aer,RSVPtest,123,g,FALSE,620.4,2,g,,3,1,1
aer,RSVPtest,124,g,TRUE,422.8,1,r,,0,1,1
aer,RSVPtest,125,g,FALSE,765.5,2,g,,2,2,2
aer,RSVPtest,126,g,TRUE,590,1,r,,0,0,2
aer,RSVPtest,127,g,TRUE,598.5,0,b,,3,3,0
aer,RSVPtest,128,g,FALSE,1068.9,2,g,,0,0,2
aer,RSVPtest,129,g,TRUE,661.3,1,r,,2,2,2
aer,RSVPtest,130,g,TRUE,1121.4,2,g,,3,1,1
aer,RSVPtest,131,g,TRUE,765.4,2,g,,0,0,2
aer,RSVPtest,132,g,TRUE,861.9,2,g,,3,0,1
aer,RSVPtest,133,g,FALSE,949.6,0,b,,3,3,0
aer,RSVPtest,134,g,TRUE,948.3,0,b,,0,3,0
aer,RSVPtest,135,g,TRUE,835.9,1,r,,2,1,1
aer,RSVPtest,136,g,TRUE,572.8,1,r,,1,1,2
aer,RSVPtest,137,g,TRUE,539.1,2,g,,1,0,1
aer,RSVPtest,138,g,TRUE,659.3,2,g,,3,0,1
aer,RSVPtest,139,g,TRUE,710.6,1,r,,1,2,1
aer,RSVPtest,140,g,TRUE,674.5,2,g,,2,2,2
aer,RSVPtest,141,g,TRUE,715.2,2,g,,0,0,2
aer,RSVPtest,142,g,TRUE,491.9,2,g,,1,1,2
aer,RSVPtest,143,g,TRUE,842.3,1,r,,0,2,1
aer,RSVPtest,144,g,TRUE,677.2,1,r,,2,2,2
aer,RSVPtest,145,g,FALSE,1019.6,2,g,,2,2,2
aer,RSVPtest,146,g,TRUE,653.9,2,g,,3,2,1
aer,RSVPtest,147,g,TRUE,765.2,0,b,,1,3,0
aer,RSVPtest,148,g,TRUE,637.6,0,b,,1,3,0
aer,RSVPtest,149,g,TRUE,645.2,0,b,,2,3,0
aer,RSVPtest,150,g,FALSE,539.7,2,g,,3,2,1
aer,RSVPtest,151,g,TRUE,702.2,1,r,,3,1,1
aer,RSVPtest,152,g,TRUE,540.4,1,r,,0,1,1
aer,RSVPtest,153,g,TRUE,836.9,0,b,,2,3,0
aer,RSVPtest,154,g,TRUE,474.8,0,b,,1,3,0
aer,RSVPtest,155,g,FALSE,686,2,g,,0,2,1
aer,RSVPtest,156,g,TRUE,589.3,0,b,,3,3,0
aer,RSVPtest,157,g,FALSE,626.7,0,b,,3,3,0
aer,RSVPtest,158,g,TRUE,627.2,2,g,,1,0,1
aer,RSVPtest,159,g,FALSE,627.1,1,r,,3,2,1
aer,RSVPtest,160,g,FALSE,499.2,2,g,,0,2,1
aer,RSVPtest,161,g,FALSE,522.6,1,r,,3,0,1
aer,RSVPtest,162,g,TRUE,1547.3,1,r,,1,0,1
aer,RSVPtest,163,g,TRUE,540.1,2,g,,2,2,2
aer,RSVPtest,164,g,TRUE,506.7,1,r,,3,1,1
aer,RSVPtest,165,g,TRUE,619.4,2,g,,3,1,1
aer,RSVPtest,166,g,TRUE,675.2,0,b,,0,3,0
aer,RSVPtest,167,g,TRUE,598.6,2,g,,3,2,1
aer,RSVPtest,168,g,TRUE,580.4,0,b,,3,3,0
aer,RSVPtest,169,g,FALSE,691,0,b,,3,3,0
aer,RSVPtest,170,g,FALSE,588.6,0,b,,0,3,0
aer,RSVPtest,171,g,TRUE,563.1,1,r,,1,1,2
aer,RSVPtest,172,g,FALSE,900.5,0,b,,3,3,0
aer,RSVPtest,173,g,FALSE,620,2,g,,3,1,1
aer,RSVPtest,174,g,FALSE,738,1,r,,0,2,1
aer,RSVPtest,175,g,FALSE,634.8,1,r,,3,0,1
aer,RSVPtest,176,g,TRUE,859.1,1,r,,3,2,1
aer,RSVPtest,177,g,FALSE,640.6,1,r,,0,0,2
aer,RSVPtest,178,g,TRUE,915.8,2,g,,3,2,1
aer,RSVPtest,179,g,FALSE,674.7,0,b,,3,3,0
aer,RSVPtest,180,g,TRUE,861.3,1,r,,3,0,1
brk,brk,brk,brk,brk,brk,brk,brk,brk,brk,brk,brk
aer,RSVPtest,181,g,FALSE,1049.4,1,r,,2,2,2
aer,RSVPtest,182,g,TRUE,1019.5,0,b,,2,3,0
aer,RSVPtest,183,g,TRUE,581.2,0,b,,0,3,0
aer,RSVPtest,184,g,TRUE,619,1,r,,2,0,1
aer,RSVPtest,185,g,TRUE,827.5,2,g,,0,2,1
aer,RSVPtest,186,g,TRUE,563.9,0,b,,1,3,0
aer,RSVPtest,187,g,FALSE,819.8,2,g,,3,1,1
aer,RSVPtest,188,g,TRUE,1223,1,r,,3,0,1
aer,RSVPtest,189,g,TRUE,620,1,r,,3,0,1
aer,RSVPtest,190,g,FALSE,917.2,1,r,,1,0,1
aer,RSVPtest,191,g,FALSE,811.2,1,r,,3,2,1
aer,RSVPtest,192,g,FALSE,557.2,1,r,,0,2,1
aer,RSVPtest,193,g,TRUE,516.9,2,g,,1,1,2
aer,RSVPtest,194,g,TRUE,1003,2,g,,1,2,1
aer,RSVPtest,195,g,FALSE,689.5,2,g,,3,0,1
aer,RSVPtest,196,g,TRUE,611.2,2,g,,2,2,2
aer,RSVPtest,197,g,TRUE,501.2,0,b,,1,3,0
aer,RSVPtest,198,g,FALSE,803.9,2,g,,3,0,1
aer,RSVPtest,199,g,TRUE,642.9,0,b,,3,3,0
aer,RSVPtest,200,g,TRUE,876.1,1,r,,3,0,1
aer,RSVPtest,201,g,FALSE,706.8,2,g,,2,2,2
aer,RSVPtest,202,g,TRUE,731.6,1,r,,2,2,2
aer,RSVPtest,203,g,TRUE,786.5,1,r,,3,2,1
aer,RSVPtest,204,g,TRUE,828.8,0,b,,0,3,0
aer,RSVPtest,205,g,TRUE,713.1,0,b,,3,3,0
aer,RSVPtest,206,g,TRUE,755.6,2,g,,3,2,1
aer,RSVPtest,207,g,FALSE,898.2,1,r,,2,1,1
aer,RSVPtest,208,g,TRUE,787.9,2,g,,0,1,1
aer,RSVPtest,209,g,FALSE,539,1,r,,0,1,1
aer,RSVPtest,210,g,TRUE,773.2,1,r,,1,1,2
aer,RSVPtest,211,g,FALSE,921.4,0,b,,3,3,0
aer,RSVPtest,212,g,TRUE,773.3,1,r,,3,2,1
aer,RSVPtest,213,g,TRUE,1243.5,2,g,,2,0,1
aer,RSVPtest,214,g,TRUE,827.6,1,r,,3,1,1
aer,RSVPtest,215,g,TRUE,553.6,0,b,,3,3,0
aer,RSVPtest,216,g,FALSE,572.3,0,b,,3,3,0
aer,RSVPtest,217,g,TRUE,700.4,2,g,,3,1,1
aer,RSVPtest,218,g,FALSE,673.7,2,g,,2,1,1
aer,RSVPtest,219,g,TRUE,586.5,2,g,,0,1,1
aer,RSVPtest,220,g,TRUE,593.7,1,r,,2,1,1
aer,RSVPtest,221,g,FALSE,539.3,2,g,,3,0,1
aer,RSVPtest,222,g,FALSE,687.9,1,r,,1,0,1
aer,RSVPtest,223,g,FALSE,674.3,1,r,,3,1,1
aer,RSVPtest,224,g,FALSE,787.3,2,g,,1,0,1
aer,RSVPtest,225,g,FALSE,530.4,0,b,,3,3,0
aer,RSVPtest,226,g,TRUE,1387.1,2,g,,1,0,1
aer,RSVPtest,227,g,TRUE,535.7,2,g,,1,2,1
aer,RSVPtest,228,g,null,null,1,r,,2,1,1
aer,RSVPtest,229,g,FALSE,837.8,0,b,,0,3,0
aer,RSVPtest,230,g,FALSE,552.6,0,b,,3,3,0
aer,RSVPtest,231,g,TRUE,633.2,1,r,,3,0,1
aer,RSVPtest,232,g,null,null,2,g,,0,2,1
aer,RSVPtest,233,g,FALSE,515.1,2,g,,2,1,1
aer,RSVPtest,234,g,FALSE,1098.5,1,r,,3,0,1
aer,RSVPtest,235,g,TRUE,555.2,1,r,,3,1,1
aer,RSVPtest,236,g,TRUE,1282.6,1,r,,0,1,1
aer,RSVPtest,237,g,TRUE,699.3,2,g,,3,2,1
aer,RSVPtest,238,g,FALSE,450.8,2,g,,1,2,1
aer,RSVPtest,239,g,FALSE,843.1,1,r,,3,0,1
aer,RSVPtest,240,g,TRUE,654.8,1,r,,3,1,1
subID,trialType,trialNum,cntBalance,correct,rt,rwdType,tgtCol,tgtDir,tgtPos,colPos,colMatch
a04,VDACtrain,0,g,null,null,2,g,v,5,,
a04,VDACtrain,0,g,FALSE,585.9,2,g,v,2,,
a04,VDACtrain,0,g,TRUE,726.1,1,r,h,1,,
a04,VDACtrain,0,g,FALSE,774.7,1,r,v,3,,
a04,VDACtrain,0,g,FALSE,709.9,2,g,v,0,,
a04,VDACtrain,0,g,TRUE,791.4,2,g,h,5,,
a04,VDACtrain,0,g,TRUE,647.7,1,r,v,4,,
a04,VDACtrain,0,g,FALSE,862.7,1,r,h,0,,
a04,VDACtrain,0,g,FALSE,801.3,1,r,h,2,,
a04,VDACtrain,0,g,TRUE,965.8,2,g,h,3,,
a04,VDACtest,1,g,TRUE,759.4,1,r,v,5,,
a04,VDACtest,2,g,TRUE,792.4,1,r,v,3,,
a04,VDACtest,3,g,TRUE,469,2,g,h,3,,
a04,VDACtest,4,g,TRUE,719.2,1,r,h,0,,
a04,VDACtest,5,g,TRUE,807.6,1,r,h,2,,
a04,VDACtest,6,g,FALSE,439,2,g,h,0,,
a04,VDACtest,7,g,TRUE,719.6,1,r,v,2,,
a04,VDACtest,8,g,TRUE,671.6,2,g,h,4,,
a04,VDACtest,9,g,TRUE,710.4,2,g,h,4,,
a04,VDACtest,10,g,TRUE,855.5,2,g,h,5,,
a04,VDACtest,11,g,FALSE,662.8,1,r,h,1,,
a04,VDACtest,12,g,TRUE,662.3,1,r,h,0,,
