SubNum,SubNum_demo,Exp_start_time,Exp_today_date,Exp_today_time,TrialNum,Condition,Face,Name,Response,NameAcc,RespTime,StudyTrialNum,StudyFace,StudyContext,StudyFamCond,TestTrialNum,TestFace,TestContext,TestSDCond,TestFamCond,TestResponse,TestResponseTime,Exp_end_time,Distractor_1_duration,Distractor_2_duration,
luysmnmh1s,xhprytsz27,Mon Oct 26 2020 01:07:09 GMT-0500 (CDT),2020-10-26,1:7:9,1,Know,17,KAYLA,KAYLA,true,6479,1,18,14,0,1,3,33,1,1,1,1915,1:32:1,122567,62254,
luysmnmh1s,undefined,undefined,undefined,undefined,2,Know,20,BRITTANY,BRITTANY,true,3816,2,17,12,1,2,17,12,0,1,0,1742,undefined,145753,undefined,
luysmnmh1s,undefined,undefined,undefined,undefined,3,Familiar,14,NA,NA,NA,NA,3,25,30,0,3,14,9,0,0,0,1433.9999999997672,undefined,undefined,undefined,
luysmnmh1s,undefined,undefined,undefined,undefined,4,Know,33,AUDREY,AUDREY,true,5295,4,20,5,1,4,4,20,1,1,1,1107.0000000002328,undefined,undefined,undefined,
luysmnmh1s,undefined,undefined,undefined,undefined,5,Familiar,10,NA,NA,NA,NA,5,12,1,2,5,27,29,0,1,0,2013,undefined,undefined,undefined,
luysmnmh1s,undefined,undefined,undefined,undefined,6,Familiar,5,NA,NA,NA,NA,6,33,32,1,6,24,13,0,2,0,1327,undefined,undefined,undefined,
luysmnmh1s,undefined,undefined,undefined,undefined,7,Know,6,VICTORIA,VICTORIA,true,5278.999999999971,7,28,28,2,7,10,36,0,0,0,2080,undefined,undefined,undefined,
luysmnmh1s,undefined,undefined,undefined,undefined,8,Know,27,ASHLEY,ASHLEY,true,4757,8,26,34,0,8,21,7,1,1,1,1285,undefined,undefined,undefined,
luysmnmh1s,undefined,undefined,undefined,undefined,9,Familiar,18,NA,NA,NA,NA,9,36,27,2,9,31,34,1,0,1,1306,undefined,undefined,undefined,
luysmnmh1s,undefined,undefined,undefined,undefined,10,Familiar,15,NA,NA,NA,NA,10,3,20,1,10,33,32,0,1,0,1164,undefined,undefined,undefined,
luysmnmh1s,undefined,undefined,undefined,undefined,11,Know,11,ZOEY,ZOEY,true,3848,11,27,29,1,11,26,31,1,0,1,2105,undefined,undefined,undefined,
luysmnmh1s,undefined,undefined,undefined,undefined,12,Familiar,22,NA,NA,NA,NA,12,10,36,0,12,6,11,0,1,0,1830,undefined,undefined,undefined,
luysmnmh1s,undefined,undefined,undefined,undefined,13,Familiar,25,NA,NA,NA,NA,13,9,19,2,13,19,17,0,2,0,1714,undefined,undefined,undefined,
luysmnmh1s,undefined,undefined,undefined,undefined,14,Know,3,SARAH,SARAH ,false,5677,14,30,2,2,14,2,28,1,2,1,1100,undefined,undefined,undefined,
luysmnmh1s,undefined,undefined,undefined,undefined,15,Familiar,13,NA,NA,NA,NA,15,31,31,0,15,32,3,1,1,1,1498,undefined,undefined,undefined,
luysmnmh1s,undefined,undefined,undefined,undefined,16,Know,23,HANNAH,HANNAH,true,3106.999999999942,16,32,7,1,16,28,23,1,2,1,1562.9999999997672,undefined,undefined,undefined,
luysmnmh1s,undefined,undefined,undefined,undefined,17,Know,21,CHLOE,CHLOE,true,5507,17,29,8,2,17,11,21,0,1,0,1611.9999999997672,undefined,undefined,undefined,
luysmnmh1s,undefined,undefined,undefined,undefined,18,Familiar,31,NA,NA,NA,NA,18,7,6,0,18,29,19,1,2,1,1512,undefined,undefined,undefined,
luysmnmh1s,undefined,undefined,undefined,undefined,19,Familiar,34,NA,NA,NA,NA,19,5,26,0,19,20,5,0,1,0,1486,undefined,undefined,undefined,
luysmnmh1s,undefined,undefined,undefined,undefined,20,Know,16,STEPHANIE,STEPHANIE,true,4989,20,16,24,1,20,12,1,0,2,0,1101,undefined,undefined,undefined,
luysmnmh1s,undefined,undefined,undefined,undefined,21,Know,32,JENNIFER,JENNIFER,true,5215,21,15,35,0,21,15,35,0,0,0,1501,undefined,undefined,undefined,
luysmnmh1s,undefined,undefined,undefined,undefined,22,Familiar,26,NA,NA,NA,NA,22,35,10,2,22,34,30,1,0,1,1098.0000000002328,undefined,undefined,undefined,
luysmnmh1s,undefined,undefined,undefined,undefined,23,Familiar,7,NA,NA,NA,NA,23,1,18,2,23,5,26,0,0,0,1657,undefined,undefined,undefined,
luysmnmh1s,undefined,undefined,undefined,undefined,24,Know,4,GRACE,GRACE,true,2748,24,14,9,0,24,23,24,1,1,1,1183,undefined,undefined,undefined,
luysmnmh1s,undefined,undefined,undefined,undefined,25,Know,4,GRACE,GRACE,true,4552,25,6,11,1,25,16,4,1,1,1,1228,undefined,undefined,undefined,
luysmnmh1s,undefined,undefined,undefined,undefined,26,Familiar,18,NA,NA,NA,NA,26,11,21,1,26,25,22,1,0,1,1643,undefined,undefined,undefined,
luysmnmh1s,undefined,undefined,undefined,undefined,27,Familiar,22,NA,NA,NA,NA,27,19,17,2,27,9,8,1,2,1,1171,undefined,undefined,undefined,
luysmnmh1s,undefined,undefined,undefined,undefined,28,Know,6,VICTORIA,VICTORIA,true,8597,28,23,4,1,28,30,16,1,2,1,1582,undefined,undefined,undefined,
luysmnmh1s,undefined,undefined,undefined,undefined,29,Know,27,ASHLEY,ZOEY,false,7999,29,34,22,0,29,1,18,0,2,0,1232.0000000002328,undefined,undefined,undefined,
luysmnmh1s,undefined,undefined,undefined,undefined,30,Familiar,13,NA,NA,NA,NA,30,4,33,1,30,18,14,0,0,0,974,undefined,undefined,undefined,
luysmnmh1s,undefined,undefined,undefined,undefined,31,Familiar,15,NA,NA,NA,NA,31,24,13,2,31,22,25,0,0,0,1184,undefined,undefined,undefined,
luysmnmh1s,undefined,undefined,undefined,undefined,32,Know,16,STEPHANIE,STEPHANIE,true,6714,32,21,3,1,32,36,27,0,2,0,1040,undefined,undefined,undefined,
luysmnmh1s,undefined,undefined,undefined,undefined,33,Familiar,26,NA,NA,NA,NA,33,8,16,2,33,7,15,1,0,1,1245,undefined,undefined,undefined,
luysmnmh1s,undefined,undefined,undefined,undefined,34,Familiar,25,NA,NA,NA,NA,34,13,15,0,34,35,10,0,2,0,1287,undefined,undefined,undefined,
luysmnmh1s,undefined,undefined,undefined,undefined,35,Know,20,BRITTANY,BRITTANY,true,8606,35,2,23,2,35,13,6,1,0,1,1513,undefined,undefined,undefined,
luysmnmh1s,undefined,undefined,undefined,undefined,36,Familiar,5,NA,NA,NA,NA,36,22,25,0,36,8,2,1,2,1,827,undefined,undefined,undefined,
luysmnmh1s,undefined,undefined,undefined,undefined,37,Know,3,SARAH,CHLOE,false,11168,37,29,8,2,undefined,undefined,undefined,undefined,undefined,undefined,undefined,undefined,undefined,undefined,
luysmnmh1s,undefined,undefined,undefined,undefined,38,Know,21,CHLOE,CHLOE,true,9986.000000000058,38,34,22,0,undefined,undefined,undefined,undefined,undefined,undefined,undefined,undefined,undefined,undefined,
luysmnmh1s,undefined,undefined,undefined,undefined,39,Familiar,34,NA,NA,NA,NA,39,20,5,1,undefined,undefined,undefined,undefined,undefined,undefined,undefined,undefined,undefined,undefined,
luysmnmh1s,undefined,undefined,undefined,undefined,40,Know,32,JENNIFER,ZOEY,false,35646,40,13,15,0,undefined,undefined,undefined,undefined,undefined,undefined,undefined,undefined,undefined,undefined,
luysmnmh1s,undefined,undefined,undefined,undefined,41,Know,17,KAYLA,KAYLA,true,8741,41,16,24,1,undefined,undefined,undefined,undefined,undefined,undefined,undefined,undefined,undefined,undefined,
luysmnmh1s,undefined,undefined,undefined,undefined,42,Familiar,14,NA,NA,NA,NA,42,8,16,2,undefined,undefined,undefined,undefined,undefined,undefined,undefined,undefined,undefined,undefined,
luysmnmh1s,undefined,undefined,undefined,undefined,43,Know,23,HANNAH,ZOAY,false,13012,43,5,26,0,undefined,undefined,undefined,undefined,undefined,undefined,undefined,undefined,undefined,undefined,
luysmnmh1s,undefined,undefined,undefined,undefined,44,Familiar,7,NA,NA,NA,NA,44,12,1,2,undefined,undefined,undefined,undefined,undefined,undefined,undefined,undefined,undefined,undefined,
luysmnmh1s,undefined,undefined,undefined,undefined,45,Familiar,31,NA,NA,NA,NA,45,2,23,2,undefined,undefined,undefined,undefined,undefined,undefined,undefined,undefined,undefined,undefined,
luysmnmh1s,undefined,undefined,undefined,undefined,46,Know,33,AUDREY,BRITTANY,false,10922,46,26,34,0,undefined,undefined,undefined,undefined,undefined,undefined,undefined,undefined,undefined,undefined,
luysmnmh1s,undefined,undefined,undefined,undefined,47,Know,11,ZOEY,BRITTANY,false,12337,47,19,17,2,undefined,undefined,undefined,undefined,undefined,undefined,undefined,undefined,undefined,undefined,
luysmnmh1s,undefined,undefined,undefined,undefined,48,Familiar,10,NA,NA,NA,NA,48,14,9,0,undefined,undefined,undefined,undefined,undefined,undefined,undefined,undefined,undefined,undefined,
luysmnmh1s,undefined,undefined,undefined,undefined,49,Familiar,25,NA,NA,NA,NA,49,22,25,0,undefined,undefined,undefined,undefined,undefined,undefined,undefined,undefined,undefined,undefined,
luysmnmh1s,undefined,undefined,undefined,undefined,50,Know,23,HANNAH,JENNIFER,false,4545.000000000116,50,9,19,2,undefined,undefined,undefined,undefined,undefined,undefined,undefined,undefined,undefined,undefined,
luysmnmh1s,undefined,undefined,undefined,undefined,51,Familiar,13,NA,NA,NA,NA,51,15,35,0,undefined,undefined,undefined,undefined,undefined,undefined,undefined,undefined,undefined,undefined,
luysmnmh1s,undefined,undefined,undefined,undefined,52,Know,11,ZOEY,ZOEY,true,4451,52,18,14,0,undefined,undefined,undefined,undefined,undefined,undefined,undefined,undefined,undefined,undefined,
luysmnmh1s,undefined,undefined,undefined,undefined,53,Know,6,VICTORIA,BRITTANY,false,8936,53,21,3,1,undefined,undefined,undefined,undefined,undefined,undefined,undefined,undefined,undefined,undefined,
luysmnmh1s,undefined,undefined,undefined,undefined,54,Familiar,14,NA,NA,NA,NA,54,30,2,2,undefined,undefined,undefined,undefined,undefined,undefined,undefined,undefined,undefined,undefined,
luysmnmh1s,undefined,undefined,undefined,undefined,55,Familiar,5,NA,NA,NA,NA,55,33,32,1,undefined,undefined,undefined,undefined,undefined,undefined,undefined,undefined,undefined,undefined,
luysmnmh1s,undefined,undefined,undefined,undefined,56,Know,4,GRACE,AUDREY,false,6839,56,10,36,0,undefined,undefined,undefined,undefined,undefined,undefined,undefined,undefined,undefined,undefined,
luysmnmh1s,undefined,undefined,undefined,undefined,57,Know,3,SARAH,BRITTANY,false,9069,57,4,33,1,undefined,undefined,undefined,undefined,undefined,undefined,undefined,undefined,undefined,undefined,
luysmnmh1s,undefined,undefined,undefined,undefined,58,Familiar,15,NA,NA,NA,NA,58,27,29,1,undefined,undefined,undefined,undefined,undefined,undefined,undefined,undefined,undefined,undefined,
luysmnmh1s,undefined,undefined,undefined,undefined,59,Familiar,31,NA,NA,NA,NA,59,31,31,0,undefined,undefined,undefined,undefined,undefined,undefined,undefined,undefined,undefined,undefined,
luysmnmh1s,undefined,undefined,undefined,undefined,60,Know,21,CHLOE,STEPHANIE,false,5461,60,7,6,0,undefined,undefined,undefined,undefined,undefined,undefined,undefined,undefined,undefined,undefined,
luysmnmh1s,undefined,undefined,undefined,undefined,61,Know,33,AUDREY,AUDREY,true,10388.000000000116,61,23,4,1,undefined,undefined,undefined,undefined,undefined,undefined,undefined,undefined,undefined,undefined,
luysmnmh1s,undefined,undefined,undefined,undefined,62,Familiar,7,NA,NA,NA,NA,62,6,11,1,undefined,undefined,undefined,undefined,undefined,undefined,undefined,undefined,undefined,undefined,
luysmnmh1s,undefined,undefined,undefined,undefined,63,Familiar,22,NA,NA,NA,NA,63,24,13,2,undefined,undefined,undefined,undefined,undefined,undefined,undefined,undefined,undefined,undefined,
luysmnmh1s,undefined,undefined,undefined,undefined,64,Know,16,STEPHANIE,BRITTANY,false,5891,64,35,10,2,undefined,undefined,undefined,undefined,undefined,undefined,undefined,undefined,undefined,undefined,
luysmnmh1s,undefined,undefined,undefined,undefined,65,Know,17,KAYLA,KAYLA,true,4433,65,3,20,1,undefined,undefined,undefined,undefined,undefined,undefined,undefined,undefined,undefined,undefined,
luysmnmh1s,undefined,undefined,undefined,undefined,66,Familiar,18,NA,NA,NA,NA,66,25,30,0,undefined,undefined,undefined,undefined,undefined,undefined,undefined,undefined,undefined,undefined,
luysmnmh1s,undefined,undefined,undefined,undefined,67,Familiar,26,NA,NA,NA,NA,67,1,18,2,undefined,undefined,undefined,undefined,undefined,undefined,undefined,undefined,undefined,undefined,
luysmnmh1s,undefined,undefined,undefined,undefined,68,Know,32,JENNIFER,JENNIFER,true,4703.999999999884,68,36,27,2,undefined,undefined,undefined,undefined,undefined,undefined,undefined,undefined,undefined,undefined,
luysmnmh1s,undefined,undefined,undefined,undefined,69,Know,27,ASHLEY,CHLOE,false,10480,69,32,7,1,undefined,undefined,undefined,undefined,undefined,undefined,undefined,undefined,undefined,undefined,
luysmnmh1s,undefined,undefined,undefined,undefined,70,Familiar,34,NA,NA,NA,NA,70,11,21,1,undefined,undefined,undefined,undefined,undefined,undefined,undefined,undefined,undefined,undefined,
luysmnmh1s,undefined,undefined,undefined,undefined,71,Familiar,10,NA,NA,NA,NA,71,28,28,2,undefined,undefined,undefined,undefined,undefined,undefined,undefined,undefined,undefined,undefined,
luysmnmh1s,undefined,undefined,undefined,undefined,72,Know,20,BRITTANY,CHLOE,false,6811,72,17,12,1,undefined,undefined,undefined,undefined,undefined,undefined,undefined,undefined,undefined,undefined,
luysmnmh1s,undefined,undefined,undefined,undefined,73,Know,16,STEPHANIE,STEPHANIE,true,13512.999999999884,undefined,undefined,undefined,undefined,undefined,undefined,undefined,undefined,undefined,undefined,undefined,undefined,undefined,undefined,
luysmnmh1s,undefined,undefined,undefined,undefined,74,Familiar,14,NA,NA,NA,NA,undefined,undefined,undefined,undefined,undefined,undefined,undefined,undefined,undefined,undefined,undefined,undefined,undefined,undefined,
luysmnmh1s,undefined,undefined,undefined,undefined,75,Familiar,25,NA,NA,NA,NA,undefined,undefined,undefined,undefined,undefined,undefined,undefined,undefined,undefined,undefined,undefined,undefined,undefined,undefined,
luysmnmh1s,undefined,undefined,undefined,undefined,76,Know,33,AUDREY,AUDREY,true,9184,undefined,undefined,undefined,undefined,undefined,undefined,undefined,undefined,undefined,undefined,undefined,undefined,undefined,undefined,
luysmnmh1s,undefined,undefined,undefined,undefined,77,Familiar,7,NA,NA,NA,NA,undefined,undefined,undefined,undefined,undefined,undefined,undefined,undefined,undefined,undefined,undefined,undefined,undefined,undefined,
luysmnmh1s,undefined,undefined,undefined,undefined,78,Familiar,10,NA,NA,NA,NA,undefined,undefined,undefined,undefined,undefined,undefined,undefined,undefined,undefined,undefined,undefined,undefined,undefined,undefined,
luysmnmh1s,undefined,undefined,undefined,undefined,79,Know,4,GRACE,HANNAH,false,13148,undefined,undefined,undefined,undefined,undefined,undefined,undefined,undefined,undefined,undefined,undefined,undefined,undefined,undefined,
luysmnmh1s,undefined,undefined,undefined,undefined,80,Know,23,HANNAH,HANNAH,true,15209.000000000116,undefined,undefined,undefined,undefined,undefined,undefined,undefined,undefined,undefined,undefined,undefined,undefined,undefined,undefined,
luysmnmh1s,undefined,undefined,undefined,undefined,81,Familiar,34,NA,NA,NA,NA,undefined,undefined,undefined,undefined,undefined,undefined,undefined,undefined,undefined,undefined,undefined,undefined,undefined,undefined,
luysmnmh1s,undefined,undefined,undefined,undefined,82,Know,32,JENNIFER,JENNIFER,true,3996,undefined,undefined,undefined,undefined,undefined,undefined,undefined,undefined,undefined,undefined,undefined,undefined,undefined,undefined,
luysmnmh1s,undefined,undefined,undefined,undefined,83,Know,20,BRITTANY,BRITTANY,true,10728,undefined,undefined,undefined,undefined,undefined,undefined,undefined,undefined,undefined,undefined,undefined,undefined,undefined,undefined,
luysmnmh1s,undefined,undefined,undefined,undefined,84,Familiar,15,NA,NA,NA,NA,undefined,undefined,undefined,undefined,undefined,undefined,undefined,undefined,undefined,undefined,undefined,undefined,undefined,undefined,
luysmnmh1s,undefined,undefined,undefined,undefined,85,Know,21,CHLOE,ZOEY,false,13768,undefined,undefined,undefined,undefined,undefined,undefined,undefined,undefined,undefined,undefined,undefined,undefined,undefined,undefined,
luysmnmh1s,undefined,undefined,undefined,undefined,86,Familiar,5,NA,NA,NA,NA,undefined,undefined,undefined,undefined,undefined,undefined,undefined,undefined,undefined,undefined,undefined,undefined,undefined,undefined,
luysmnmh1s,undefined,undefined,undefined,undefined,87,Familiar,13,NA,NA,NA,NA,undefined,undefined,undefined,undefined,undefined,undefined,undefined,undefined,undefined,undefined,undefined,undefined,undefined,undefined,
luysmnmh1s,undefined,undefined,undefined,undefined,88,Know,11,ZOEY,SARAH,false,13019,undefined,undefined,undefined,undefined,undefined,undefined,undefined,undefined,undefined,undefined,undefined,undefined,undefined,undefined,
luysmnmh1s,undefined,undefined,undefined,undefined,89,Familiar,26,NA,NA,NA,NA,undefined,undefined,undefined,undefined,undefined,undefined,undefined,undefined,undefined,undefined,undefined,undefined,undefined,undefined,
luysmnmh1s,undefined,undefined,undefined,undefined,90,Know,17,KAYLA,KAYLA,true,6285,undefined,undefined,undefined,undefined,undefined,undefined,undefined,undefined,undefined,undefined,undefined,undefined,undefined,undefined,
luysmnmh1s,undefined,undefined,undefined,undefined,91,Know,6,VICTORIA,VICTORIA,true,4289,undefined,undefined,undefined,undefined,undefined,undefined,undefined,undefined,undefined,undefined,undefined,undefined,undefined,undefined,
luysmnmh1s,undefined,undefined,undefined,undefined,92,Familiar,22,NA,NA,NA,NA,undefined,undefined,undefined,undefined,undefined,undefined,undefined,undefined,undefined,undefined,undefined,undefined,undefined,undefined,
luysmnmh1s,undefined,undefined,undefined,undefined,93,Familiar,31,NA,NA,NA,NA,undefined,undefined,undefined,undefined,undefined,undefined,undefined,undefined,undefined,undefined,undefined,undefined,undefined,undefined,
luysmnmh1s,undefined,undefined,undefined,undefined,94,Know,27,ASHLEY,ASHLEY,true,7866,undefined,undefined,undefined,undefined,undefined,undefined,undefined,undefined,undefined,undefined,undefined,undefined,undefined,undefined,
luysmnmh1s,undefined,undefined,undefined,undefined,95,Know,3,SARAH,SARAH,true,5675,undefined,undefined,undefined,undefined,undefined,undefined,undefined,undefined,undefined,undefined,undefined,undefined,undefined,undefined,
luysmnmh1s,undefined,undefined,undefined,undefined,96,Familiar,18,NA,NA,NA,NA,undefined,undefined,undefined,undefined,undefined,undefined,undefined,undefined,undefined,undefined,undefined,undefined,undefined,undefined,
