SubNum,SubNum_demo,Exp_start_time,Exp_today_date,Exp_today_time,TrialNum,Condition,Face,Name,Response,NameAcc,RespTime,StudyTrialNum,StudyFace,StudyContext,StudyFamCond,TestTrialNum,TestFace,TestContext,TestSDCond,TestFamCond,TestResponse,TestResponseTime,Exp_end_time,Distractor_1_duration,Distractor_2_duration,
k57kgblnkg,97j8uw1y59,Thu Oct 15 2020 13:06:10 GMT-0500 (Central Daylight Time),2020-10-15,13:6:10,1,Familiar,14,NA,NA,NA,NA,undefined,undefined,undefined,undefined,undefined,undefined,undefined,undefined,undefined,undefined,undefined,undefined,undefined,undefined,
k57kgblnkg,undefined,undefined,undefined,undefined,2,Familiar,6,NA,NA,NA,NA,undefined,undefined,undefined,undefined,undefined,undefined,undefined,undefined,undefined,undefined,undefined,undefined,undefined,undefined,
k57kgblnkg,undefined,undefined,undefined,undefined,3,Know,9,RACHEL,RACHEL,true,3952.065000019502,undefined,undefined,undefined,undefined,undefined,undefined,undefined,undefined,undefined,undefined,undefined,undefined,undefined,undefined,
k57kgblnkg,undefined,undefined,undefined,undefined,4,Know,8,SARAH,SARAH,true,2155.945000005886,undefined,undefined,undefined,undefined,undefined,undefined,undefined,undefined,undefined,undefined,undefined,undefined,undefined,undefined,
k57kgblnkg,undefined,undefined,undefined,undefined,5,Familiar,32,NA,NA,NA,NA,undefined,undefined,undefined,undefined,undefined,undefined,undefined,undefined,undefined,undefined,undefined,undefined,undefined,undefined,
k57kgblnkg,undefined,undefined,undefined,undefined,6,Know,20,AMANDA,AMANDA,true,1947.039999999106,undefined,undefined,undefined,undefined,undefined,undefined,undefined,undefined,undefined,undefined,undefined,undefined,undefined,undefined,
k57kgblnkg,undefined,undefined,undefined,undefined,7,Familiar,28,NA,NA,NA,NA,undefined,undefined,undefined,undefined,undefined,undefined,undefined,undefined,undefined,undefined,undefined,undefined,undefined,undefined,
k57kgblnkg,undefined,undefined,undefined,undefined,8,Know,3,GRACE,GRACE,true,2138.6700000148267,undefined,undefined,undefined,undefined,undefined,undefined,undefined,undefined,undefined,undefined,undefined,undefined,undefined,undefined,
k57kgblnkg,undefined,undefined,undefined,undefined,9,Familiar,10,NA,NA,NA,NA,undefined,undefined,undefined,undefined,undefined,undefined,undefined,undefined,undefined,undefined,undefined,undefined,undefined,undefined,
k57kgblnkg,undefined,undefined,undefined,undefined,10,Familiar,17,NA,NA,NA,NA,undefined,undefined,undefined,undefined,undefined,undefined,undefined,undefined,undefined,undefined,undefined,undefined,undefined,undefined,
k57kgblnkg,undefined,undefined,undefined,undefined,11,Know,1,LAUREN,LAUREN,true,2091.305000009015,undefined,undefined,undefined,undefined,undefined,undefined,undefined,undefined,undefined,undefined,undefined,undefined,undefined,undefined,
k57kgblnkg,undefined,undefined,undefined,undefined,12,Familiar,34,NA,NA,NA,NA,undefined,undefined,undefined,undefined,undefined,undefined,undefined,undefined,undefined,undefined,undefined,undefined,undefined,undefined,
k57kgblnkg,undefined,undefined,undefined,undefined,13,Know,35,EMILY,EMILY,true,1549.0999999456108,undefined,undefined,undefined,undefined,undefined,undefined,undefined,undefined,undefined,undefined,undefined,undefined,undefined,undefined,
k57kgblnkg,undefined,undefined,undefined,undefined,14,Familiar,12,NA,NA,NA,NA,undefined,undefined,undefined,undefined,undefined,undefined,undefined,undefined,undefined,undefined,undefined,undefined,undefined,undefined,
k57kgblnkg,undefined,undefined,undefined,undefined,15,Know,29,NICOLE,NICOLE,true,2040.6000000075437,undefined,undefined,undefined,undefined,undefined,undefined,undefined,undefined,undefined,undefined,undefined,undefined,undefined,undefined,
k57kgblnkg,undefined,undefined,undefined,undefined,16,Know,24,SAMANTHA,SAMANTHA,true,2304.169999959413,undefined,undefined,undefined,undefined,undefined,undefined,undefined,undefined,undefined,undefined,undefined,undefined,undefined,undefined,
k57kgblnkg,undefined,undefined,undefined,undefined,17,Familiar,2,NA,NA,NA,NA,undefined,undefined,undefined,undefined,undefined,undefined,undefined,undefined,undefined,undefined,undefined,undefined,undefined,undefined,
k57kgblnkg,undefined,undefined,undefined,undefined,18,Know,5,MARY,MARY,true,1340.894999972079,undefined,undefined,undefined,undefined,undefined,undefined,undefined,undefined,undefined,undefined,undefined,undefined,undefined,undefined,
k57kgblnkg,undefined,undefined,undefined,undefined,19,Familiar,11,NA,NA,NA,NA,undefined,undefined,undefined,undefined,undefined,undefined,undefined,undefined,undefined,undefined,undefined,undefined,undefined,undefined,
k57kgblnkg,undefined,undefined,undefined,undefined,20,Familiar,21,NA,NA,NA,NA,undefined,undefined,undefined,undefined,undefined,undefined,undefined,undefined,undefined,undefined,undefined,undefined,undefined,undefined,
k57kgblnkg,undefined,undefined,undefined,undefined,21,Know,18,REBECCA,REBECCA,true,2465.864999976475,undefined,undefined,undefined,undefined,undefined,undefined,undefined,undefined,undefined,undefined,undefined,undefined,undefined,undefined,
k57kgblnkg,undefined,undefined,undefined,undefined,22,Know,7,KAREN,KAREN,true,1725.0650000059977,undefined,undefined,undefined,undefined,undefined,undefined,undefined,undefined,undefined,undefined,undefined,undefined,undefined,undefined,
k57kgblnkg,undefined,undefined,undefined,undefined,23,Familiar,19,NA,NA,NA,NA,undefined,undefined,undefined,undefined,undefined,undefined,undefined,undefined,undefined,undefined,undefined,undefined,undefined,undefined,
k57kgblnkg,undefined,undefined,undefined,undefined,24,Know,4,PATRICIA,PATRICIA,true,2946.609999984503,undefined,undefined,undefined,undefined,undefined,undefined,undefined,undefined,undefined,undefined,undefined,undefined,undefined,undefined,
k57kgblnkg,undefined,undefined,undefined,undefined,25,Familiar,11,NA,NA,NA,NA,undefined,undefined,undefined,undefined,undefined,undefined,undefined,undefined,undefined,undefined,undefined,undefined,undefined,undefined,
k57kgblnkg,undefined,undefined,undefined,undefined,26,Familiar,10,NA,NA,NA,NA,undefined,undefined,undefined,undefined,undefined,undefined,undefined,undefined,undefined,undefined,undefined,undefined,undefined,undefined,
k57kgblnkg,undefined,undefined,undefined,undefined,27,Know,24,SAMANTHA,EMILY,false,4294.3300000042655,undefined,undefined,undefined,undefined,undefined,undefined,undefined,undefined,undefined,undefined,undefined,undefined,undefined,undefined,
k57kgblnkg,undefined,undefined,undefined,undefined,28,Know,9,RACHEL,MARY,false,8770.054999971762,undefined,undefined,undefined,undefined,undefined,undefined,undefined,undefined,undefined,undefined,undefined,undefined,undefined,undefined,
k57kgblnkg,undefined,undefined,undefined,undefined,29,Familiar,32,NA,NA,NA,NA,undefined,undefined,undefined,undefined,undefined,undefined,undefined,undefined,undefined,undefined,undefined,undefined,undefined,undefined,
k57kgblnkg,undefined,undefined,undefined,undefined,30,Know,3,GRACE,GRACE,true,3646.0999999544583,undefined,undefined,undefined,undefined,undefined,undefined,undefined,undefined,undefined,undefined,undefined,undefined,undefined,undefined,
k57kgblnkg,undefined,undefined,undefined,undefined,31,Familiar,2,NA,NA,NA,NA,undefined,undefined,undefined,undefined,undefined,undefined,undefined,undefined,undefined,undefined,undefined,undefined,undefined,undefined,
k57kgblnkg,undefined,undefined,undefined,undefined,32,Know,4,PATRICIA,REBECCA,false,5172.50999994576,undefined,undefined,undefined,undefined,undefined,undefined,undefined,undefined,undefined,undefined,undefined,undefined,undefined,undefined,
k57kgblnkg,undefined,undefined,undefined,undefined,33,Familiar,21,NA,NA,NA,NA,undefined,undefined,undefined,undefined,undefined,undefined,undefined,undefined,undefined,undefined,undefined,undefined,undefined,undefined,
k57kgblnkg,undefined,undefined,undefined,undefined,34,Know,7,KAREN,LAUREN,false,4871.900000027381,undefined,undefined,undefined,undefined,undefined,undefined,undefined,undefined,undefined,undefined,undefined,undefined,undefined,undefined,
k57kgblnkg,undefined,undefined,undefined,undefined,35,Know,35,EMILY,EMILY,true,4858.9199999696575,undefined,undefined,undefined,undefined,undefined,undefined,undefined,undefined,undefined,undefined,undefined,undefined,undefined,undefined,
k57kgblnkg,undefined,undefined,undefined,undefined,36,Familiar,6,NA,NA,NA,NA,undefined,undefined,undefined,undefined,undefined,undefined,undefined,undefined,undefined,undefined,undefined,undefined,undefined,undefined,
k57kgblnkg,undefined,undefined,undefined,undefined,37,Know,8,SARAH,LAUREN,false,4252.749999985099,undefined,undefined,undefined,undefined,undefined,undefined,undefined,undefined,undefined,undefined,undefined,undefined,undefined,undefined,
k57kgblnkg,undefined,undefined,undefined,undefined,38,Familiar,17,NA,NA,NA,NA,undefined,undefined,undefined,undefined,undefined,undefined,undefined,undefined,undefined,undefined,undefined,undefined,undefined,undefined,
k57kgblnkg,undefined,undefined,undefined,undefined,39,Familiar,28,NA,NA,NA,NA,undefined,undefined,undefined,undefined,undefined,undefined,undefined,undefined,undefined,undefined,undefined,undefined,undefined,undefined,
k57kgblnkg,undefined,undefined,undefined,undefined,40,Know,1,LAUREN,LAUREN,true,5294.960000028368,undefined,undefined,undefined,undefined,undefined,undefined,undefined,undefined,undefined,undefined,undefined,undefined,undefined,undefined,
k57kgblnkg,undefined,undefined,undefined,undefined,41,Know,20,AMANDA,REBECCA,false,5942.689999996219,undefined,undefined,undefined,undefined,undefined,undefined,undefined,undefined,undefined,undefined,undefined,undefined,undefined,undefined,
k57kgblnkg,undefined,undefined,undefined,undefined,42,Familiar,14,NA,NA,NA,NA,undefined,undefined,undefined,undefined,undefined,undefined,undefined,undefined,undefined,undefined,undefined,undefined,undefined,undefined,
k57kgblnkg,undefined,undefined,undefined,undefined,43,Familiar,34,NA,NA,NA,NA,undefined,undefined,undefined,undefined,undefined,undefined,undefined,undefined,undefined,undefined,undefined,undefined,undefined,undefined,
k57kgblnkg,undefined,undefined,undefined,undefined,44,Know,5,MARY,RACHEL,false,10077.385000011418,undefined,undefined,undefined,undefined,undefined,undefined,undefined,undefined,undefined,undefined,undefined,undefined,undefined,undefined,
k57kgblnkg,undefined,undefined,undefined,undefined,45,Know,29,NICOLE,REBECCA,false,10367.719999980181,undefined,undefined,undefined,undefined,undefined,undefined,undefined,undefined,undefined,undefined,undefined,undefined,undefined,undefined,
k57kgblnkg,undefined,undefined,undefined,undefined,46,Familiar,12,NA,NA,NA,NA,undefined,undefined,undefined,undefined,undefined,undefined,undefined,undefined,undefined,undefined,undefined,undefined,undefined,undefined,
k57kgblnkg,undefined,undefined,undefined,undefined,47,Familiar,19,NA,NA,NA,NA,undefined,undefined,undefined,undefined,undefined,undefined,undefined,undefined,undefined,undefined,undefined,undefined,undefined,undefined,
k57kgblnkg,undefined,undefined,undefined,undefined,48,Know,18,REBECCA,REBECCA,true,4319.469999987632,undefined,undefined,undefined,undefined,undefined,undefined,undefined,undefined,undefined,undefined,undefined,undefined,undefined,undefined,
k57kgblnkg,undefined,undefined,undefined,undefined,49,Know,4,PATRICIA,PATRICIA,true,11392.99999998184,undefined,undefined,undefined,undefined,undefined,undefined,undefined,undefined,undefined,undefined,undefined,undefined,undefined,undefined,
k57kgblnkg,undefined,undefined,undefined,undefined,50,Familiar,12,NA,NA,NA,NA,undefined,undefined,undefined,undefined,undefined,undefined,undefined,undefined,undefined,undefined,undefined,undefined,undefined,undefined,
k57kgblnkg,undefined,undefined,undefined,undefined,51,Know,1,LAUREN,MARY,false,5713.884999975562,undefined,undefined,undefined,undefined,undefined,undefined,undefined,undefined,undefined,undefined,undefined,undefined,undefined,undefined,
k57kgblnkg,undefined,undefined,undefined,undefined,52,Know,7,KAREN,KAREN,true,3607.785000000149,undefined,undefined,undefined,undefined,undefined,undefined,undefined,undefined,undefined,undefined,undefined,undefined,undefined,undefined,
k57kgblnkg,undefined,undefined,undefined,undefined,53,Familiar,11,NA,NA,NA,NA,undefined,undefined,undefined,undefined,undefined,undefined,undefined,undefined,undefined,undefined,undefined,undefined,undefined,undefined,
k57kgblnkg,undefined,undefined,undefined,undefined,54,Know,18,REBECCA,MARY,false,3970.5250000115484,undefined,undefined,undefined,undefined,undefined,undefined,undefined,undefined,undefined,undefined,undefined,undefined,undefined,undefined,
k57kgblnkg,undefined,undefined,undefined,undefined,55,Familiar,2,NA,NA,NA,NA,undefined,undefined,undefined,undefined,undefined,undefined,undefined,undefined,undefined,undefined,undefined,undefined,undefined,undefined,
k57kgblnkg,undefined,undefined,undefined,undefined,56,Know,24,SAMANTHA,NIOLE,false,9389.18499997817,undefined,undefined,undefined,undefined,undefined,undefined,undefined,undefined,undefined,undefined,undefined,undefined,undefined,undefined,
k57kgblnkg,undefined,undefined,undefined,undefined,57,Know,29,NICOLE,MARY,false,4623.439999995753,undefined,undefined,undefined,undefined,undefined,undefined,undefined,undefined,undefined,undefined,undefined,undefined,undefined,undefined,
k57kgblnkg,undefined,undefined,undefined,undefined,58,Familiar,10,NA,NA,NA,NA,undefined,undefined,undefined,undefined,undefined,undefined,undefined,undefined,undefined,undefined,undefined,undefined,undefined,undefined,
k57kgblnkg,undefined,undefined,undefined,undefined,59,Familiar,14,NA,NA,NA,NA,undefined,undefined,undefined,undefined,undefined,undefined,undefined,undefined,undefined,undefined,undefined,undefined,undefined,undefined,
k57kgblnkg,undefined,undefined,undefined,undefined,60,Know,35,EMILY,NICOLE,false,7905.719999980647,undefined,undefined,undefined,undefined,undefined,undefined,undefined,undefined,undefined,undefined,undefined,undefined,undefined,undefined,
k57kgblnkg,undefined,undefined,undefined,undefined,61,Familiar,6,NA,NA,NA,NA,undefined,undefined,undefined,undefined,undefined,undefined,undefined,undefined,undefined,undefined,undefined,undefined,undefined,undefined,
k57kgblnkg,undefined,undefined,undefined,undefined,62,Familiar,17,NA,NA,NA,NA,undefined,undefined,undefined,undefined,undefined,undefined,undefined,undefined,undefined,undefined,undefined,undefined,undefined,undefined,
k57kgblnkg,undefined,undefined,undefined,undefined,63,Know,8,SARAH,SARAH,true,3049.1449999972247,undefined,undefined,undefined,undefined,undefined,undefined,undefined,undefined,undefined,undefined,undefined,undefined,undefined,undefined,
k57kgblnkg,undefined,undefined,undefined,undefined,64,Know,9,RACHEL,REBECCA,false,6723.545000015292,undefined,undefined,undefined,undefined,undefined,undefined,undefined,undefined,undefined,undefined,undefined,undefined,undefined,undefined,
k57kgblnkg,undefined,undefined,undefined,undefined,65,Familiar,32,NA,NA,NA,NA,undefined,undefined,undefined,undefined,undefined,undefined,undefined,undefined,undefined,undefined,undefined,undefined,undefined,undefined,
k57kgblnkg,undefined,undefined,undefined,undefined,66,Familiar,28,NA,NA,NA,NA,undefined,undefined,undefined,undefined,undefined,undefined,undefined,undefined,undefined,undefined,undefined,undefined,undefined,undefined,
