SubNum,SubNum_demo,Exp_start_time,Exp_today_date,Exp_today_time,TrialNum,FaceID,FaceImg,Name,Response,NameAcc,RespTime,StudyTrialNum,StudyFaceID,StudyFaceImg,StudyFamCond,StudyTime,TestTrialNum,TestFaceID,TestFaceImg,TestFamCond,TestStatusCond,TestResponse,TestResponseTime,Exp_end_time,Distractor_1_duration,Distractor_1_numT,Distractor_1_acc,Distractor_2_duration,Distractor_2_numT,Distractor_2_acc,StudyButtonRespTime,StudyButtonRespTime_mean,q1,q2,q3,
mdotu15j3d,n7gj11zqzt,Mon Jan 04 2021 17:42:24 GMT-0600 (Central Standard Time),2021-1-4,17:42:24,1,25,6,LORY,LORY,true,8495.635000057518,1,6,1,1,4000,1,37,5,1,0,4,7644.635000033304,18:20:10,145517.36499997787,21,95,117112.42499994114,42,48,1896.8299999833107,1827.1187499631196,Not Sure,Natalie Portman,,
mdotu15j3d,undefined,undefined,undefined,undefined,2,9,6,JACOB,JACOB,true,6024.195000063628,2,23,1,0,4000,2,10,5,0,0,5,3272.2999999532476,undefined,151068.65000003017,18,50,121419.43499993067,undefined,undefined,1602.1549999713898,undefined,undefined,undefined,undefined,
mdotu15j3d,undefined,undefined,undefined,undefined,3,6,6,LARRY,LARRY,true,5898.350000032224,3,8,1,0,4000,3,12,5,1,1,5,2088.125000009313,undefined,295522.5100000389,undefined,undefined,undefined,undefined,undefined,2183.8199999183416,undefined,undefined,undefined,undefined,
mdotu15j3d,undefined,undefined,undefined,undefined,4,30,6,ROSE,ROSE,true,5608.449999941513,4,17,1,1,4000,4,28,5,0,1,2,3400.27999994345,undefined,121639.824999962,undefined,undefined,undefined,undefined,undefined,1625.6699999794364,undefined,undefined,undefined,undefined,
mdotu15j3d,undefined,undefined,undefined,undefined,5,38,6,NATALIE,NATALIE,true,6788.100000005215,5,10,1,0,4000,5,22,5,1,0,5,1936.0250000609085,undefined,272708.43500003684,undefined,undefined,undefined,undefined,undefined,undefined,undefined,undefined,undefined,undefined,
mdotu15j3d,undefined,undefined,undefined,undefined,6,24,6,FRANCES,FRANCES,true,5274.214999983087,6,36,1,0,4000,6,33,5,1,1,2,3160.3899999754503,undefined,undefined,undefined,undefined,undefined,undefined,undefined,undefined,undefined,undefined,undefined,undefined,
mdotu15j3d,undefined,undefined,undefined,undefined,7,7,6,ALLEN,ALLEN,true,5905.415000044741,7,22,1,1,4000,7,3,5,1,1,5,2775.5099999485537,undefined,undefined,undefined,undefined,undefined,undefined,undefined,undefined,undefined,undefined,undefined,undefined,
mdotu15j3d,undefined,undefined,undefined,undefined,8,15,6,NICK,NICK,true,6017.8049999522045,8,18,1,1,4000,8,20,5,0,1,2,1808.6950000142679,undefined,undefined,undefined,undefined,undefined,undefined,undefined,undefined,undefined,undefined,undefined,undefined,
mdotu15j3d,undefined,undefined,undefined,undefined,9,19,6,MICHAEL,MICHAEL,true,6720.63499991782,9,26,1,0,4000,9,7,5,1,1,2,3416.0749999573454,undefined,undefined,undefined,undefined,undefined,undefined,undefined,undefined,undefined,undefined,undefined,undefined,
mdotu15j3d,undefined,undefined,undefined,undefined,10,22,6,DENISE,DENISE,true,7890.254999976605,10,40,1,0,4000,10,17,5,1,0,5,1943.9749999437481,undefined,undefined,undefined,undefined,undefined,undefined,undefined,undefined,undefined,undefined,undefined,undefined,
mdotu15j3d,undefined,undefined,undefined,undefined,11,17,6,BRANDON,BRANDON,true,6440.874999971129,11,37,1,1,4000,11,11,5,0,1,5,3800.775000010617,undefined,undefined,undefined,undefined,undefined,undefined,undefined,undefined,undefined,undefined,undefined,undefined,
mdotu15j3d,undefined,undefined,undefined,undefined,12,2,6,KYLE,KYLE,true,4954.335000016727,12,24,1,1,4000,12,30,5,1,1,0,3184.099999954924,undefined,undefined,undefined,undefined,undefined,undefined,undefined,undefined,undefined,undefined,undefined,undefined,
mdotu15j3d,undefined,undefined,undefined,undefined,13,35,6,EMILY,EMILY,true,6209.535000030883,13,13,1,0,4000,13,9,5,1,0,0,2415.7300000078976,undefined,undefined,undefined,undefined,undefined,undefined,undefined,undefined,undefined,undefined,undefined,undefined,
mdotu15j3d,undefined,undefined,undefined,undefined,14,12,6,CHRIS,CHRIS,true,6835.060000070371,14,4,1,0,4000,14,1,5,0,1,1,2696.44500000868,undefined,undefined,undefined,undefined,undefined,undefined,undefined,undefined,undefined,undefined,undefined,undefined,
mdotu15j3d,undefined,undefined,undefined,undefined,15,32,6,JUDY,JUDY,true,4674.089999985881,15,38,1,1,4000,15,16,5,0,1,0,4424.340000026859,undefined,undefined,undefined,undefined,undefined,undefined,undefined,undefined,undefined,undefined,undefined,undefined,
mdotu15j3d,undefined,undefined,undefined,undefined,16,3,6,ANDREW,ANDREW,true,5919.200000003912,16,2,1,1,4000,16,23,5,0,0,0,2256.5099999774247,undefined,undefined,undefined,undefined,undefined,undefined,undefined,undefined,undefined,undefined,undefined,undefined,
mdotu15j3d,undefined,undefined,undefined,undefined,17,33,6,AMANDA,AMANDA,true,5899.29500001017,17,31,1,0,4000,17,36,5,0,0,1,4920.7050000550225,undefined,undefined,undefined,undefined,undefined,undefined,undefined,undefined,undefined,undefined,undefined,undefined,
mdotu15j3d,undefined,undefined,undefined,undefined,18,27,6,JESSICA,JESSICA,true,5731.015000026673,18,5,1,0,4000,18,40,5,0,0,5,2591.495000058785,undefined,undefined,undefined,undefined,undefined,undefined,undefined,undefined,undefined,undefined,undefined,undefined,
mdotu15j3d,undefined,undefined,undefined,undefined,19,18,6,WAYNE,WAYNE,true,5457.815000088885,19,9,1,1,4000,19,18,5,1,0,5,2863.424999988638,undefined,undefined,undefined,undefined,undefined,undefined,undefined,undefined,undefined,undefined,undefined,undefined,
mdotu15j3d,undefined,undefined,undefined,undefined,20,37,6,SARAH,SARAH,true,6400.224999990314,20,25,1,1,4000,20,26,5,0,0,5,1167.945000110194,undefined,undefined,undefined,undefined,undefined,undefined,undefined,undefined,undefined,undefined,undefined,undefined,
mdotu15j3d,undefined,undefined,undefined,undefined,21,25,2,LORY,LORY,true,13342.80999994371,undefined,undefined,undefined,undefined,undefined,21,19,5,1,1,0,3056.1999999918044,undefined,undefined,undefined,undefined,undefined,undefined,undefined,undefined,undefined,undefined,undefined,undefined,
mdotu15j3d,undefined,undefined,undefined,undefined,22,9,2,JACOB,KYLE,false,10293.969999998808,undefined,undefined,undefined,undefined,undefined,22,31,5,0,0,0,7416.5150000480935,undefined,undefined,undefined,undefined,undefined,undefined,undefined,undefined,undefined,undefined,undefined,undefined,
mdotu15j3d,undefined,undefined,undefined,undefined,23,6,2,LARRY,LARRY,true,12494.01999998372,undefined,undefined,undefined,undefined,undefined,23,24,5,1,0,4,2712.390000000596,undefined,undefined,undefined,undefined,undefined,undefined,undefined,undefined,undefined,undefined,undefined,undefined,
mdotu15j3d,undefined,undefined,undefined,undefined,24,30,2,ROSE,ROSE,true,7997.260000091046,undefined,undefined,undefined,undefined,undefined,24,6,5,1,0,4,1703.9550000336021,undefined,undefined,undefined,undefined,undefined,undefined,undefined,undefined,undefined,undefined,undefined,undefined,
mdotu15j3d,undefined,undefined,undefined,undefined,25,38,2,NATALIE,EMILY,false,11334.46499996353,undefined,undefined,undefined,undefined,undefined,25,2,5,1,0,0,5271.990000037476,undefined,undefined,undefined,undefined,undefined,undefined,undefined,undefined,undefined,undefined,undefined,undefined,
mdotu15j3d,undefined,undefined,undefined,undefined,26,24,2,FRANCES,JESSICA,false,9878.610000014305,undefined,undefined,undefined,undefined,undefined,26,27,5,1,1,0,1912.614999921061,undefined,undefined,undefined,undefined,undefined,undefined,undefined,undefined,undefined,undefined,undefined,undefined,
mdotu15j3d,undefined,undefined,undefined,undefined,27,7,2,ALLEN,ALLEN,true,7366.200000047684,undefined,undefined,undefined,undefined,undefined,27,14,5,0,1,1,2136.3349999301136,undefined,undefined,undefined,undefined,undefined,undefined,undefined,undefined,undefined,undefined,undefined,undefined,
mdotu15j3d,undefined,undefined,undefined,undefined,28,15,2,NICK,ANDREW,false,23686.275000101887,undefined,undefined,undefined,undefined,undefined,28,4,5,0,0,5,1887.9900000756606,undefined,undefined,undefined,undefined,undefined,undefined,undefined,undefined,undefined,undefined,undefined,undefined,
mdotu15j3d,undefined,undefined,undefined,undefined,29,19,2,MICHAEL,KYLE,false,8213.97500007879,undefined,undefined,undefined,undefined,undefined,29,34,5,0,1,0,2216.275000013411,undefined,undefined,undefined,undefined,undefined,undefined,undefined,undefined,undefined,undefined,undefined,undefined,
mdotu15j3d,undefined,undefined,undefined,undefined,30,22,2,DENISE,SARAH,false,14134.299999917857,undefined,undefined,undefined,undefined,undefined,30,32,5,1,1,5,2296.9149999553338,undefined,undefined,undefined,undefined,undefined,undefined,undefined,undefined,undefined,undefined,undefined,undefined,
mdotu15j3d,undefined,undefined,undefined,undefined,31,17,2,BRANDON,KYLE,false,5926.425000070594,undefined,undefined,undefined,undefined,undefined,31,39,5,0,1,0,1903.5349999321625,undefined,undefined,undefined,undefined,undefined,undefined,undefined,undefined,undefined,undefined,undefined,undefined,
mdotu15j3d,undefined,undefined,undefined,undefined,32,2,2,KYLE,ALLEN,false,8486.949999933131,undefined,undefined,undefined,undefined,undefined,32,38,5,1,0,5,1736.600000062026,undefined,undefined,undefined,undefined,undefined,undefined,undefined,undefined,undefined,undefined,undefined,undefined,
mdotu15j3d,undefined,undefined,undefined,undefined,33,35,2,EMILY,LORY,false,7421.435000025667,undefined,undefined,undefined,undefined,undefined,33,15,5,1,1,3,2769.429999985732,undefined,undefined,undefined,undefined,undefined,undefined,undefined,undefined,undefined,undefined,undefined,undefined,
mdotu15j3d,undefined,undefined,undefined,undefined,34,12,2,CHRIS,MICHAEL,false,17271.53500006534,undefined,undefined,undefined,undefined,undefined,34,13,5,0,0,1,2399.9100000364706,undefined,undefined,undefined,undefined,undefined,undefined,undefined,undefined,undefined,undefined,undefined,undefined,
mdotu15j3d,undefined,undefined,undefined,undefined,35,32,2,JUDY,JESSICA,false,7942.2900000354275,undefined,undefined,undefined,undefined,undefined,35,21,5,0,1,1,3664.3000000622123,undefined,undefined,undefined,undefined,undefined,undefined,undefined,undefined,undefined,undefined,undefined,undefined,
mdotu15j3d,undefined,undefined,undefined,undefined,36,3,2,ANDREW,CHRIS,false,53878.17499996163,undefined,undefined,undefined,undefined,undefined,36,35,5,1,1,1,1968.7949999934062,undefined,undefined,undefined,undefined,undefined,undefined,undefined,undefined,undefined,undefined,undefined,undefined,
mdotu15j3d,undefined,undefined,undefined,undefined,37,33,2,AMANDA,SARAH,false,9711.815000046045,undefined,undefined,undefined,undefined,undefined,37,25,5,1,0,5,1864.839999936521,undefined,undefined,undefined,undefined,undefined,undefined,undefined,undefined,undefined,undefined,undefined,undefined,
mdotu15j3d,undefined,undefined,undefined,undefined,38,27,2,JESSICA,JESSICA,true,5862.3399999924,undefined,undefined,undefined,undefined,undefined,38,29,5,0,1,0,8488.570000045002,undefined,undefined,undefined,undefined,undefined,undefined,undefined,undefined,undefined,undefined,undefined,undefined,
mdotu15j3d,undefined,undefined,undefined,undefined,39,18,2,WAYNE,LARRY,false,14328.289999975823,undefined,undefined,undefined,undefined,undefined,39,8,5,0,0,1,2328.1499999575317,undefined,undefined,undefined,undefined,undefined,undefined,undefined,undefined,undefined,undefined,undefined,undefined,
mdotu15j3d,undefined,undefined,undefined,undefined,40,37,2,SARAH,AMANDA,false,7183.970000012778,undefined,undefined,undefined,undefined,undefined,40,5,5,0,0,1,7375.819999957457,undefined,undefined,undefined,undefined,undefined,undefined,undefined,undefined,undefined,undefined,undefined,undefined,
mdotu15j3d,undefined,undefined,undefined,undefined,41,6,8,LARRY,CHRIS,false,5575.414999970235,undefined,undefined,undefined,undefined,undefined,undefined,undefined,undefined,undefined,undefined,undefined,undefined,undefined,undefined,undefined,undefined,undefined,undefined,undefined,undefined,undefined,undefined,undefined,undefined,
mdotu15j3d,undefined,undefined,undefined,undefined,42,27,8,JESSICA,JESSICA,true,11224.079999956302,undefined,undefined,undefined,undefined,undefined,undefined,undefined,undefined,undefined,undefined,undefined,undefined,undefined,undefined,undefined,undefined,undefined,undefined,undefined,undefined,undefined,undefined,undefined,undefined,
mdotu15j3d,undefined,undefined,undefined,undefined,43,15,8,NICK,NICK,true,10060.980000067502,undefined,undefined,undefined,undefined,undefined,undefined,undefined,undefined,undefined,undefined,undefined,undefined,undefined,undefined,undefined,undefined,undefined,undefined,undefined,undefined,undefined,undefined,undefined,undefined,
mdotu15j3d,undefined,undefined,undefined,undefined,44,35,8,EMILY,EMILY,true,12390.680000069551,undefined,undefined,undefined,undefined,undefined,undefined,undefined,undefined,undefined,undefined,undefined,undefined,undefined,undefined,undefined,undefined,undefined,undefined,undefined,undefined,undefined,undefined,undefined,undefined,
mdotu15j3d,undefined,undefined,undefined,undefined,45,37,8,SARAH,AMANDA,false,8310.235000099055,undefined,undefined,undefined,undefined,undefined,undefined,undefined,undefined,undefined,undefined,undefined,undefined,undefined,undefined,undefined,undefined,undefined,undefined,undefined,undefined,undefined,undefined,undefined,undefined,
mdotu15j3d,undefined,undefined,undefined,undefined,46,17,8,BRANDON,LARRY,false,10445.82000002265,undefined,undefined,undefined,undefined,undefined,undefined,undefined,undefined,undefined,undefined,undefined,undefined,undefined,undefined,undefined,undefined,undefined,undefined,undefined,undefined,undefined,undefined,undefined,undefined,
mdotu15j3d,undefined,undefined,undefined,undefined,47,2,8,KYLE,ALLEN,false,7182.9550000838935,undefined,undefined,undefined,undefined,undefined,undefined,undefined,undefined,undefined,undefined,undefined,undefined,undefined,undefined,undefined,undefined,undefined,undefined,undefined,undefined,undefined,undefined,undefined,undefined,
mdotu15j3d,undefined,undefined,undefined,undefined,48,7,8,ALLEN,ALLEN,true,5525.865000090562,undefined,undefined,undefined,undefined,undefined,undefined,undefined,undefined,undefined,undefined,undefined,undefined,undefined,undefined,undefined,undefined,undefined,undefined,undefined,undefined,undefined,undefined,undefined,undefined,
mdotu15j3d,undefined,undefined,undefined,undefined,49,19,8,MICHAEL,CHRIS,false,20646.865000016987,undefined,undefined,undefined,undefined,undefined,undefined,undefined,undefined,undefined,undefined,undefined,undefined,undefined,undefined,undefined,undefined,undefined,undefined,undefined,undefined,undefined,undefined,undefined,undefined,
mdotu15j3d,undefined,undefined,undefined,undefined,50,24,8,FRANCES,AMANDA,false,8286.87000006903,undefined,undefined,undefined,undefined,undefined,undefined,undefined,undefined,undefined,undefined,undefined,undefined,undefined,undefined,undefined,undefined,undefined,undefined,undefined,undefined,undefined,undefined,undefined,undefined,
mdotu15j3d,undefined,undefined,undefined,undefined,51,32,8,JUDY,EMILY,false,5765.6199999619275,undefined,undefined,undefined,undefined,undefined,undefined,undefined,undefined,undefined,undefined,undefined,undefined,undefined,undefined,undefined,undefined,undefined,undefined,undefined,undefined,undefined,undefined,undefined,undefined,
mdotu15j3d,undefined,undefined,undefined,undefined,52,33,8,AMANDA,AMANDA,true,6478.334999992512,undefined,undefined,undefined,undefined,undefined,undefined,undefined,undefined,undefined,undefined,undefined,undefined,undefined,undefined,undefined,undefined,undefined,undefined,undefined,undefined,undefined,undefined,undefined,undefined,
mdotu15j3d,undefined,undefined,undefined,undefined,53,38,8,NATALIE,EMILY,false,6902.884999988601,undefined,undefined,undefined,undefined,undefined,undefined,undefined,undefined,undefined,undefined,undefined,undefined,undefined,undefined,undefined,undefined,undefined,undefined,undefined,undefined,undefined,undefined,undefined,undefined,
mdotu15j3d,undefined,undefined,undefined,undefined,54,30,8,ROSE,ROSE,true,5614.794999943115,undefined,undefined,undefined,undefined,undefined,undefined,undefined,undefined,undefined,undefined,undefined,undefined,undefined,undefined,undefined,undefined,undefined,undefined,undefined,undefined,undefined,undefined,undefined,undefined,
mdotu15j3d,undefined,undefined,undefined,undefined,55,12,8,CHRIS,KYLE,false,15093.639999977313,undefined,undefined,undefined,undefined,undefined,undefined,undefined,undefined,undefined,undefined,undefined,undefined,undefined,undefined,undefined,undefined,undefined,undefined,undefined,undefined,undefined,undefined,undefined,undefined,
mdotu15j3d,undefined,undefined,undefined,undefined,56,9,8,JACOB,ALLEN,false,10599.175000097603,undefined,undefined,undefined,undefined,undefined,undefined,undefined,undefined,undefined,undefined,undefined,undefined,undefined,undefined,undefined,undefined,undefined,undefined,undefined,undefined,undefined,undefined,undefined,undefined,
mdotu15j3d,undefined,undefined,undefined,undefined,57,18,8,WAYNE,ALLEN,false,4989.730000030249,undefined,undefined,undefined,undefined,undefined,undefined,undefined,undefined,undefined,undefined,undefined,undefined,undefined,undefined,undefined,undefined,undefined,undefined,undefined,undefined,undefined,undefined,undefined,undefined,
mdotu15j3d,undefined,undefined,undefined,undefined,58,25,8,LORY,LORY,true,9005.869999993593,undefined,undefined,undefined,undefined,undefined,undefined,undefined,undefined,undefined,undefined,undefined,undefined,undefined,undefined,undefined,undefined,undefined,undefined,undefined,undefined,undefined,undefined,undefined,undefined,
mdotu15j3d,undefined,undefined,undefined,undefined,59,3,8,ANDREW,CHRIS,false,8701.985000050627,undefined,undefined,undefined,undefined,undefined,undefined,undefined,undefined,undefined,undefined,undefined,undefined,undefined,undefined,undefined,undefined,undefined,undefined,undefined,undefined,undefined,undefined,undefined,undefined,
mdotu15j3d,undefined,undefined,undefined,undefined,60,22,8,DENISE,DENISE,true,7470.684999949299,undefined,undefined,undefined,undefined,undefined,undefined,undefined,undefined,undefined,undefined,undefined,undefined,undefined,undefined,undefined,undefined,undefined,undefined,undefined,undefined,undefined,undefined,undefined,undefined,
mdotu15j3d,undefined,undefined,undefined,undefined,61,6,3,LARRY,MICHAEL,false,12815.204999991693,undefined,undefined,undefined,undefined,undefined,undefined,undefined,undefined,undefined,undefined,undefined,undefined,undefined,undefined,undefined,undefined,undefined,undefined,undefined,undefined,undefined,undefined,undefined,undefined,
mdotu15j3d,undefined,undefined,undefined,undefined,62,32,3,JUDY,JUDY,true,6125.755000044592,undefined,undefined,undefined,undefined,undefined,undefined,undefined,undefined,undefined,undefined,undefined,undefined,undefined,undefined,undefined,undefined,undefined,undefined,undefined,undefined,undefined,undefined,undefined,undefined,
mdotu15j3d,undefined,undefined,undefined,undefined,63,7,3,ALLEN,ALLEN,true,33205.94500005245,undefined,undefined,undefined,undefined,undefined,undefined,undefined,undefined,undefined,undefined,undefined,undefined,undefined,undefined,undefined,undefined,undefined,undefined,undefined,undefined,undefined,undefined,undefined,undefined,
mdotu15j3d,undefined,undefined,undefined,undefined,64,30,3,ROSE,SARAH,false,7920.0849999906495,undefined,undefined,undefined,undefined,undefined,undefined,undefined,undefined,undefined,undefined,undefined,undefined,undefined,undefined,undefined,undefined,undefined,undefined,undefined,undefined,undefined,undefined,undefined,undefined,
mdotu15j3d,undefined,undefined,undefined,undefined,65,27,3,JESSICA,JESSICA,true,6182.964999927208,undefined,undefined,undefined,undefined,undefined,undefined,undefined,undefined,undefined,undefined,undefined,undefined,undefined,undefined,undefined,undefined,undefined,undefined,undefined,undefined,undefined,undefined,undefined,undefined,
mdotu15j3d,undefined,undefined,undefined,undefined,66,3,3,ANDREW,CHRIS,false,13272.890000022016,undefined,undefined,undefined,undefined,undefined,undefined,undefined,undefined,undefined,undefined,undefined,undefined,undefined,undefined,undefined,undefined,undefined,undefined,undefined,undefined,undefined,undefined,undefined,undefined,
mdotu15j3d,undefined,undefined,undefined,undefined,67,9,3,JACOB,JACOB,true,7542.039999971166,undefined,undefined,undefined,undefined,undefined,undefined,undefined,undefined,undefined,undefined,undefined,undefined,undefined,undefined,undefined,undefined,undefined,undefined,undefined,undefined,undefined,undefined,undefined,undefined,
mdotu15j3d,undefined,undefined,undefined,undefined,68,18,3,WAYNE,LARRY,false,10332.010000012815,undefined,undefined,undefined,undefined,undefined,undefined,undefined,undefined,undefined,undefined,undefined,undefined,undefined,undefined,undefined,undefined,undefined,undefined,undefined,undefined,undefined,undefined,undefined,undefined,
mdotu15j3d,undefined,undefined,undefined,undefined,69,2,3,KYLE,ALLEN,false,8982.865000027232,undefined,undefined,undefined,undefined,undefined,undefined,undefined,undefined,undefined,undefined,undefined,undefined,undefined,undefined,undefined,undefined,undefined,undefined,undefined,undefined,undefined,undefined,undefined,undefined,
mdotu15j3d,undefined,undefined,undefined,undefined,70,25,3,LORY,LORY,true,4757.50499998685,undefined,undefined,undefined,undefined,undefined,undefined,undefined,undefined,undefined,undefined,undefined,undefined,undefined,undefined,undefined,undefined,undefined,undefined,undefined,undefined,undefined,undefined,undefined,undefined,
mdotu15j3d,undefined,undefined,undefined,undefined,71,15,3,NICK,NICK,true,5598.995000007562,undefined,undefined,undefined,undefined,undefined,undefined,undefined,undefined,undefined,undefined,undefined,undefined,undefined,undefined,undefined,undefined,undefined,undefined,undefined,undefined,undefined,undefined,undefined,undefined,
mdotu15j3d,undefined,undefined,undefined,undefined,72,17,3,BRANDON,LARRY,false,9398.285000002943,undefined,undefined,undefined,undefined,undefined,undefined,undefined,undefined,undefined,undefined,undefined,undefined,undefined,undefined,undefined,undefined,undefined,undefined,undefined,undefined,undefined,undefined,undefined,undefined,
mdotu15j3d,undefined,undefined,undefined,undefined,73,35,3,EMILY,NATALIE,false,9213.959999964572,undefined,undefined,undefined,undefined,undefined,undefined,undefined,undefined,undefined,undefined,undefined,undefined,undefined,undefined,undefined,undefined,undefined,undefined,undefined,undefined,undefined,undefined,undefined,undefined,
mdotu15j3d,undefined,undefined,undefined,undefined,74,22,3,DENISE,DENISE,true,5941.894999938086,undefined,undefined,undefined,undefined,undefined,undefined,undefined,undefined,undefined,undefined,undefined,undefined,undefined,undefined,undefined,undefined,undefined,undefined,undefined,undefined,undefined,undefined,undefined,undefined,
mdotu15j3d,undefined,undefined,undefined,undefined,75,12,3,CHRIS,JACOB,false,7518.6049999902025,undefined,undefined,undefined,undefined,undefined,undefined,undefined,undefined,undefined,undefined,undefined,undefined,undefined,undefined,undefined,undefined,undefined,undefined,undefined,undefined,undefined,undefined,undefined,undefined,
mdotu15j3d,undefined,undefined,undefined,undefined,76,24,3,FRANCES,SARAH,false,6532.879999955185,undefined,undefined,undefined,undefined,undefined,undefined,undefined,undefined,undefined,undefined,undefined,undefined,undefined,undefined,undefined,undefined,undefined,undefined,undefined,undefined,undefined,undefined,undefined,undefined,
mdotu15j3d,undefined,undefined,undefined,undefined,77,33,3,AMANDA,SARAH,false,6591.070000082254,undefined,undefined,undefined,undefined,undefined,undefined,undefined,undefined,undefined,undefined,undefined,undefined,undefined,undefined,undefined,undefined,undefined,undefined,undefined,undefined,undefined,undefined,undefined,undefined,
mdotu15j3d,undefined,undefined,undefined,undefined,78,38,3,NATALIE,NATALIE,true,9127.005000016652,undefined,undefined,undefined,undefined,undefined,undefined,undefined,undefined,undefined,undefined,undefined,undefined,undefined,undefined,undefined,undefined,undefined,undefined,undefined,undefined,undefined,undefined,undefined,undefined,
mdotu15j3d,undefined,undefined,undefined,undefined,79,37,3,SARAH,AMANDA,false,16635.87500003632,undefined,undefined,undefined,undefined,undefined,undefined,undefined,undefined,undefined,undefined,undefined,undefined,undefined,undefined,undefined,undefined,undefined,undefined,undefined,undefined,undefined,undefined,undefined,undefined,
mdotu15j3d,undefined,undefined,undefined,undefined,80,19,3,MICHAEL,KYLE,false,15093.690000008792,undefined,undefined,undefined,undefined,undefined,undefined,undefined,undefined,undefined,undefined,undefined,undefined,undefined,undefined,undefined,undefined,undefined,undefined,undefined,undefined,undefined,undefined,undefined,undefined,
mdotu15j3d,undefined,undefined,undefined,undefined,81,3,4,ANDREW,BRANDON,false,8589.745000004768,undefined,undefined,undefined,undefined,undefined,undefined,undefined,undefined,undefined,undefined,undefined,undefined,undefined,undefined,undefined,undefined,undefined,undefined,undefined,undefined,undefined,undefined,undefined,undefined,
mdotu15j3d,undefined,undefined,undefined,undefined,82,37,4,SARAH,FRANCES,false,17142.325000022538,undefined,undefined,undefined,undefined,undefined,undefined,undefined,undefined,undefined,undefined,undefined,undefined,undefined,undefined,undefined,undefined,undefined,undefined,undefined,undefined,undefined,undefined,undefined,undefined,
mdotu15j3d,undefined,undefined,undefined,undefined,83,7,4,ALLEN,ALLEN,true,5798.925000010058,undefined,undefined,undefined,undefined,undefined,undefined,undefined,undefined,undefined,undefined,undefined,undefined,undefined,undefined,undefined,undefined,undefined,undefined,undefined,undefined,undefined,undefined,undefined,undefined,
mdotu15j3d,undefined,undefined,undefined,undefined,84,12,4,CHRIS,JACOB,false,10997.164999949746,undefined,undefined,undefined,undefined,undefined,undefined,undefined,undefined,undefined,undefined,undefined,undefined,undefined,undefined,undefined,undefined,undefined,undefined,undefined,undefined,undefined,undefined,undefined,undefined,
mdotu15j3d,undefined,undefined,undefined,undefined,85,35,4,EMILY,EMILY,true,10796.729999943636,undefined,undefined,undefined,undefined,undefined,undefined,undefined,undefined,undefined,undefined,undefined,undefined,undefined,undefined,undefined,undefined,undefined,undefined,undefined,undefined,undefined,undefined,undefined,undefined,
mdotu15j3d,undefined,undefined,undefined,undefined,86,19,4,MICHAEL,MICHAEL,true,11502.59500008542,undefined,undefined,undefined,undefined,undefined,undefined,undefined,undefined,undefined,undefined,undefined,undefined,undefined,undefined,undefined,undefined,undefined,undefined,undefined,undefined,undefined,undefined,undefined,undefined,
mdotu15j3d,undefined,undefined,undefined,undefined,87,2,4,KYLE,ALLEN,false,5677.554999943823,undefined,undefined,undefined,undefined,undefined,undefined,undefined,undefined,undefined,undefined,undefined,undefined,undefined,undefined,undefined,undefined,undefined,undefined,undefined,undefined,undefined,undefined,undefined,undefined,
mdotu15j3d,undefined,undefined,undefined,undefined,88,24,4,FRANCES,AMANDA,false,15878.000000026077,undefined,undefined,undefined,undefined,undefined,undefined,undefined,undefined,undefined,undefined,undefined,undefined,undefined,undefined,undefined,undefined,undefined,undefined,undefined,undefined,undefined,undefined,undefined,undefined,
mdotu15j3d,undefined,undefined,undefined,undefined,89,17,4,BRANDON,LARRY,false,15797.49999998603,undefined,undefined,undefined,undefined,undefined,undefined,undefined,undefined,undefined,undefined,undefined,undefined,undefined,undefined,undefined,undefined,undefined,undefined,undefined,undefined,undefined,undefined,undefined,undefined,
mdotu15j3d,undefined,undefined,undefined,undefined,90,22,4,DENISE,DENISE,true,5157.709999941289,undefined,undefined,undefined,undefined,undefined,undefined,undefined,undefined,undefined,undefined,undefined,undefined,undefined,undefined,undefined,undefined,undefined,undefined,undefined,undefined,undefined,undefined,undefined,undefined,
mdotu15j3d,undefined,undefined,undefined,undefined,91,9,4,JACOB,MICHAEL,false,10727.094999980181,undefined,undefined,undefined,undefined,undefined,undefined,undefined,undefined,undefined,undefined,undefined,undefined,undefined,undefined,undefined,undefined,undefined,undefined,undefined,undefined,undefined,undefined,undefined,undefined,
mdotu15j3d,undefined,undefined,undefined,undefined,92,30,4,ROSE,ROSE,true,5142.435000045225,undefined,undefined,undefined,undefined,undefined,undefined,undefined,undefined,undefined,undefined,undefined,undefined,undefined,undefined,undefined,undefined,undefined,undefined,undefined,undefined,undefined,undefined,undefined,undefined,
mdotu15j3d,undefined,undefined,undefined,undefined,93,33,4,AMANDA,AMANDA,true,21429.824999999255,undefined,undefined,undefined,undefined,undefined,undefined,undefined,undefined,undefined,undefined,undefined,undefined,undefined,undefined,undefined,undefined,undefined,undefined,undefined,undefined,undefined,undefined,undefined,undefined,
mdotu15j3d,undefined,undefined,undefined,undefined,94,38,4,NATALIE,NATALIE,true,6271.014999947511,undefined,undefined,undefined,undefined,undefined,undefined,undefined,undefined,undefined,undefined,undefined,undefined,undefined,undefined,undefined,undefined,undefined,undefined,undefined,undefined,undefined,undefined,undefined,undefined,
mdotu15j3d,undefined,undefined,undefined,undefined,95,32,4,JUDY,EMILY,false,7519.369999994524,undefined,undefined,undefined,undefined,undefined,undefined,undefined,undefined,undefined,undefined,undefined,undefined,undefined,undefined,undefined,undefined,undefined,undefined,undefined,undefined,undefined,undefined,undefined,undefined,
mdotu15j3d,undefined,undefined,undefined,undefined,96,27,4,JESSICA,JESSICA,true,5182.340000057593,undefined,undefined,undefined,undefined,undefined,undefined,undefined,undefined,undefined,undefined,undefined,undefined,undefined,undefined,undefined,undefined,undefined,undefined,undefined,undefined,undefined,undefined,undefined,undefined,
mdotu15j3d,undefined,undefined,undefined,undefined,97,25,4,LORY,LORY,true,4896.104999934323,undefined,undefined,undefined,undefined,undefined,undefined,undefined,undefined,undefined,undefined,undefined,undefined,undefined,undefined,undefined,undefined,undefined,undefined,undefined,undefined,undefined,undefined,undefined,undefined,
mdotu15j3d,undefined,undefined,undefined,undefined,98,6,4,LARRY,JACOB,false,8982.004999998026,undefined,undefined,undefined,undefined,undefined,undefined,undefined,undefined,undefined,undefined,undefined,undefined,undefined,undefined,undefined,undefined,undefined,undefined,undefined,undefined,undefined,undefined,undefined,undefined,
mdotu15j3d,undefined,undefined,undefined,undefined,99,18,4,WAYNE,BRANDON,false,14038.799999980256,undefined,undefined,undefined,undefined,undefined,undefined,undefined,undefined,undefined,undefined,undefined,undefined,undefined,undefined,undefined,undefined,undefined,undefined,undefined,undefined,undefined,undefined,undefined,undefined,
mdotu15j3d,undefined,undefined,undefined,undefined,100,15,4,NICK,NICK,true,4847.070000017993,undefined,undefined,undefined,undefined,undefined,undefined,undefined,undefined,undefined,undefined,undefined,undefined,undefined,undefined,undefined,undefined,undefined,undefined,undefined,undefined,undefined,undefined,undefined,undefined,
mdotu15j3d,undefined,undefined,undefined,undefined,101,30,1,ROSE,ROSE,true,6534.250000026077,undefined,undefined,undefined,undefined,undefined,undefined,undefined,undefined,undefined,undefined,undefined,undefined,undefined,undefined,undefined,undefined,undefined,undefined,undefined,undefined,undefined,undefined,undefined,undefined,
mdotu15j3d,undefined,undefined,undefined,undefined,102,12,1,CHRIS,MICHAEL,false,17949.099999968894,undefined,undefined,undefined,undefined,undefined,undefined,undefined,undefined,undefined,undefined,undefined,undefined,undefined,undefined,undefined,undefined,undefined,undefined,undefined,undefined,undefined,undefined,undefined,undefined,
mdotu15j3d,undefined,undefined,undefined,undefined,103,19,1,MICHAEL,MICHAEL,true,9182.239999994636,undefined,undefined,undefined,undefined,undefined,undefined,undefined,undefined,undefined,undefined,undefined,undefined,undefined,undefined,undefined,undefined,undefined,undefined,undefined,undefined,undefined,undefined,undefined,undefined,
mdotu15j3d,undefined,undefined,undefined,undefined,104,22,1,DENISE,DENISE,true,6341.29499993287,undefined,undefined,undefined,undefined,undefined,undefined,undefined,undefined,undefined,undefined,undefined,undefined,undefined,undefined,undefined,undefined,undefined,undefined,undefined,undefined,undefined,undefined,undefined,undefined,
mdotu15j3d,undefined,undefined,undefined,undefined,105,3,1,ANDREW,BRANDON,false,25221.969999955036,undefined,undefined,undefined,undefined,undefined,undefined,undefined,undefined,undefined,undefined,undefined,undefined,undefined,undefined,undefined,undefined,undefined,undefined,undefined,undefined,undefined,undefined,undefined,undefined,
mdotu15j3d,undefined,undefined,undefined,undefined,106,17,1,BRANDON,LARRY,false,8293.71999995783,undefined,undefined,undefined,undefined,undefined,undefined,undefined,undefined,undefined,undefined,undefined,undefined,undefined,undefined,undefined,undefined,undefined,undefined,undefined,undefined,undefined,undefined,undefined,undefined,
mdotu15j3d,undefined,undefined,undefined,undefined,107,27,1,JESSICA,JESSICA,true,9877.285000053234,undefined,undefined,undefined,undefined,undefined,undefined,undefined,undefined,undefined,undefined,undefined,undefined,undefined,undefined,undefined,undefined,undefined,undefined,undefined,undefined,undefined,undefined,undefined,undefined,
mdotu15j3d,undefined,undefined,undefined,undefined,108,2,1,KYLE,ALLEN,false,5118.514999980107,undefined,undefined,undefined,undefined,undefined,undefined,undefined,undefined,undefined,undefined,undefined,undefined,undefined,undefined,undefined,undefined,undefined,undefined,undefined,undefined,undefined,undefined,undefined,undefined,
mdotu15j3d,undefined,undefined,undefined,undefined,109,25,1,LORY,LORY,true,5333.554999902844,undefined,undefined,undefined,undefined,undefined,undefined,undefined,undefined,undefined,undefined,undefined,undefined,undefined,undefined,undefined,undefined,undefined,undefined,undefined,undefined,undefined,undefined,undefined,undefined,
mdotu15j3d,undefined,undefined,undefined,undefined,110,32,1,JUDY,EMILY,false,9414.310000021942,undefined,undefined,undefined,undefined,undefined,undefined,undefined,undefined,undefined,undefined,undefined,undefined,undefined,undefined,undefined,undefined,undefined,undefined,undefined,undefined,undefined,undefined,undefined,undefined,
mdotu15j3d,undefined,undefined,undefined,undefined,111,18,1,WAYNE,LARRY,false,8919.504999998026,undefined,undefined,undefined,undefined,undefined,undefined,undefined,undefined,undefined,undefined,undefined,undefined,undefined,undefined,undefined,undefined,undefined,undefined,undefined,undefined,undefined,undefined,undefined,undefined,
mdotu15j3d,undefined,undefined,undefined,undefined,112,7,1,ALLEN,WAYNE,false,12950.885000056587,undefined,undefined,undefined,undefined,undefined,undefined,undefined,undefined,undefined,undefined,undefined,undefined,undefined,undefined,undefined,undefined,undefined,undefined,undefined,undefined,undefined,undefined,undefined,undefined,
mdotu15j3d,undefined,undefined,undefined,undefined,113,6,1,LARRY,MICHAEL,false,15957.519999938086,undefined,undefined,undefined,undefined,undefined,undefined,undefined,undefined,undefined,undefined,undefined,undefined,undefined,undefined,undefined,undefined,undefined,undefined,undefined,undefined,undefined,undefined,undefined,undefined,
mdotu15j3d,undefined,undefined,undefined,undefined,114,9,1,JACOB,MICHAEL,false,9021.580000058748,undefined,undefined,undefined,undefined,undefined,undefined,undefined,undefined,undefined,undefined,undefined,undefined,undefined,undefined,undefined,undefined,undefined,undefined,undefined,undefined,undefined,undefined,undefined,undefined,
mdotu15j3d,undefined,undefined,undefined,undefined,115,37,1,SARAH,SARAH,true,6973.354999907315,undefined,undefined,undefined,undefined,undefined,undefined,undefined,undefined,undefined,undefined,undefined,undefined,undefined,undefined,undefined,undefined,undefined,undefined,undefined,undefined,undefined,undefined,undefined,undefined,
mdotu15j3d,undefined,undefined,undefined,undefined,116,24,1,FRANCES,AMANDA,false,7125.89999998454,undefined,undefined,undefined,undefined,undefined,undefined,undefined,undefined,undefined,undefined,undefined,undefined,undefined,undefined,undefined,undefined,undefined,undefined,undefined,undefined,undefined,undefined,undefined,undefined,
mdotu15j3d,undefined,undefined,undefined,undefined,117,15,1,NICK,NICK,true,11453.3250000095,undefined,undefined,undefined,undefined,undefined,undefined,undefined,undefined,undefined,undefined,undefined,undefined,undefined,undefined,undefined,undefined,undefined,undefined,undefined,undefined,undefined,undefined,undefined,undefined,
mdotu15j3d,undefined,undefined,undefined,undefined,118,33,1,AMANDA,AMANDA,true,8357.710000011139,undefined,undefined,undefined,undefined,undefined,undefined,undefined,undefined,undefined,undefined,undefined,undefined,undefined,undefined,undefined,undefined,undefined,undefined,undefined,undefined,undefined,undefined,undefined,undefined,
mdotu15j3d,undefined,undefined,undefined,undefined,119,35,1,EMILY,EMILY,true,7030.320000019856,undefined,undefined,undefined,undefined,undefined,undefined,undefined,undefined,undefined,undefined,undefined,undefined,undefined,undefined,undefined,undefined,undefined,undefined,undefined,undefined,undefined,undefined,undefined,undefined,
mdotu15j3d,undefined,undefined,undefined,undefined,120,38,1,NATALIE,NATALIE,true,5671.160000027157,undefined,undefined,undefined,undefined,undefined,undefined,undefined,undefined,undefined,undefined,undefined,undefined,undefined,undefined,undefined,undefined,undefined,undefined,undefined,undefined,undefined,undefined,undefined,undefined,
