SubNum,SubNum_demo,Exp_start_time,Exp_today_date,Exp_today_time,TrialNum,Condition,Face,Name,Response,NameAcc,RespTime,StudyTrialNum,StudyFace,StudyContext,StudyFamCond,TestTrialNum,TestFace,TestContext,TestSDCond,TestFamCond,TestResponse,TestResponseTime,Exp_end_time,Distractor_1_duration,Distractor_2_duration,
r9a76ogsvf,3drl7ucckb,Wed Oct 14 2020 20:40:02 GMT-0500 (Central Daylight Time),2020-10-14,20:40:2,1,Familiar,5,NA,NA,NA,NA,1,34,26,2,1,18,18,1,0,0,6226.959999999963,21:3:48,120042.21500000125,62813.099999999395,
r9a76ogsvf,undefined,undefined,undefined,undefined,2,Know,14,STEPHANIE,STEPHANIE,true,8104.739999998885,2,4,1,2,2,26,35,0,1,0,1967.834999999497,undefined,undefined,undefined,
r9a76ogsvf,undefined,undefined,undefined,undefined,3,Familiar,2,NA,NA,NA,NA,3,16,29,0,3,24,33,0,2,0,1597.0799999996088,undefined,undefined,undefined,
r9a76ogsvf,undefined,undefined,undefined,undefined,4,Know,30,VICTORIA,VICTORIA,true,3156.0599999974947,4,21,36,2,4,29,5,0,2,0,1159.9800000002142,undefined,undefined,undefined,
r9a76ogsvf,undefined,undefined,undefined,undefined,5,Familiar,6,NA,NA,NA,NA,5,35,22,2,5,22,6,0,1,0,869.3700000003446,undefined,undefined,undefined,
r9a76ogsvf,undefined,undefined,undefined,undefined,6,Familiar,9,NA,NA,NA,NA,6,8,34,1,6,19,2,1,0,1,2647.6800000017975,undefined,undefined,undefined,
r9a76ogsvf,undefined,undefined,undefined,undefined,7,Know,33,CHLOE,CHLOE,true,4829.405000000377,7,10,25,0,7,11,29,1,0,1,1716.7799999988638,undefined,undefined,undefined,
r9a76ogsvf,undefined,undefined,undefined,undefined,8,Know,20,SAMANTHA,SAMANTHA,true,2969.4799999997485,8,17,17,1,8,16,31,1,0,1,2315.0400000014342,undefined,undefined,undefined,
r9a76ogsvf,undefined,undefined,undefined,undefined,9,Familiar,23,NA,NA,NA,NA,9,26,35,1,9,12,3,0,2,0,3028.390000003157,undefined,undefined,undefined,
r9a76ogsvf,undefined,undefined,undefined,undefined,10,Know,26,COURTNEY,COURTNEY,true,2721.669999998994,10,27,11,2,10,23,19,0,0,0,1331.9049999990966,undefined,undefined,undefined,
r9a76ogsvf,undefined,undefined,undefined,undefined,11,Familiar,10,NA,NA,NA,NA,11,24,33,2,11,36,13,1,2,1,1441.4149999939837,undefined,undefined,undefined,
r9a76ogsvf,undefined,undefined,undefined,undefined,12,Familiar,11,NA,NA,NA,NA,12,31,4,1,12,25,24,1,2,1,2699.775000000838,undefined,undefined,undefined,
r9a76ogsvf,undefined,undefined,undefined,undefined,13,Know,22,ALYSSA,ALYSSA,true,2384.250000002794,13,7,10,1,13,27,11,0,2,0,1701.415000003064,undefined,undefined,undefined,
r9a76ogsvf,undefined,undefined,undefined,undefined,14,Know,32,REBECCA,REBECCA,true,4139.8349999981,14,36,24,2,14,9,28,0,0,1,4318.3699999935925,undefined,undefined,undefined,
r9a76ogsvf,undefined,undefined,undefined,undefined,15,Familiar,16,NA,NA,NA,NA,15,2,16,0,15,7,27,1,1,0,2759.265000000596,undefined,undefined,undefined,
r9a76ogsvf,undefined,undefined,undefined,undefined,16,Know,8,SARAH,SARAH,true,3271.3000000003376,16,25,13,2,16,2,16,0,0,0,859.7099999971688,undefined,undefined,undefined,
r9a76ogsvf,undefined,undefined,undefined,undefined,17,Familiar,18,NA,NA,NA,NA,17,23,19,0,17,21,36,0,2,0,1447.5149999996647,undefined,undefined,undefined,
r9a76ogsvf,undefined,undefined,undefined,undefined,18,Familiar,1,NA,NA,NA,NA,18,20,30,1,18,1,9,1,0,1,1464.4550000012387,undefined,undefined,undefined,
r9a76ogsvf,undefined,undefined,undefined,undefined,19,Know,17,LISA,LISA,true,2723.040000000794,19,9,28,0,19,32,10,1,1,1,1781.409999995958,undefined,undefined,undefined,
r9a76ogsvf,undefined,undefined,undefined,undefined,20,Know,31,ALEXIS,ALEXIS,true,3747.9000000021188,20,18,2,0,20,4,8,1,2,0,6307.85499999905,undefined,undefined,undefined,
r9a76ogsvf,undefined,undefined,undefined,undefined,21,Familiar,3,NA,NA,NA,NA,21,33,32,1,21,6,12,0,0,0,4166.174999998417,undefined,undefined,undefined,
r9a76ogsvf,undefined,undefined,undefined,undefined,22,Familiar,19,NA,NA,NA,NA,22,12,3,2,22,8,4,1,1,1,8223.96499999729,undefined,undefined,undefined,
r9a76ogsvf,undefined,undefined,undefined,undefined,23,Know,7,GRACE,GRACE,true,4648.629999999714,23,19,18,0,23,28,1,1,2,1,1331.0799999963492,undefined,undefined,undefined,
r9a76ogsvf,undefined,undefined,undefined,undefined,24,Know,13,MARGARET,MARGARET,true,3803.165000001143,24,22,6,1,24,31,34,1,1,1,4209.434999997029,undefined,undefined,undefined,
r9a76ogsvf,undefined,undefined,undefined,undefined,25,Familiar,6,NA,NA,NA,NA,25,5,21,0,25,17,15,1,1,1,2901.3449999983422,undefined,undefined,undefined,
r9a76ogsvf,undefined,undefined,undefined,undefined,26,Know,13,MARGARET,MARGARET,true,3958.6699999999837,26,11,31,0,26,10,25,0,0,0,1185.5450000003912,undefined,undefined,undefined,
r9a76ogsvf,undefined,undefined,undefined,undefined,27,Know,31,ALEXIS,ALEXIS,true,9255.430000001099,27,14,20,1,27,14,20,0,1,0,2104.570000003092,undefined,undefined,undefined,
r9a76ogsvf,undefined,undefined,undefined,undefined,28,Familiar,18,NA,NA,NA,NA,28,6,12,0,28,20,30,0,1,0,3104.0299999951385,undefined,undefined,undefined,
r9a76ogsvf,undefined,undefined,undefined,undefined,29,Know,8,SARAH,COURTNEY,false,5853.930000001099,29,13,15,1,29,33,32,0,1,0,1206.030000001192,undefined,undefined,undefined,
r9a76ogsvf,undefined,undefined,undefined,undefined,30,Familiar,23,NA,NA,NA,NA,30,29,5,2,30,3,7,1,0,1,1150.3300000040326,undefined,undefined,undefined,
r9a76ogsvf,undefined,undefined,undefined,undefined,31,Familiar,2,NA,NA,NA,NA,31,28,8,2,31,30,14,0,1,0,1278.8549999967217,undefined,undefined,undefined,
r9a76ogsvf,undefined,undefined,undefined,undefined,32,Know,33,CHLOE,SARAH,false,16566.194999999367,32,30,14,1,32,34,26,0,2,0,2034.6850000061095,undefined,undefined,undefined,
r9a76ogsvf,undefined,undefined,undefined,undefined,33,Know,22,ALYSSA,ALYSSA,true,3756.085000000894,33,15,23,2,33,5,21,0,0,0,2897.8150000039022,undefined,undefined,undefined,
r9a76ogsvf,undefined,undefined,undefined,undefined,34,Familiar,19,NA,NA,NA,NA,34,1,7,0,34,35,23,1,2,1,1857.3499999984633,undefined,undefined,undefined,
r9a76ogsvf,undefined,undefined,undefined,undefined,35,Familiar,1,NA,NA,NA,NA,35,3,9,0,35,13,17,1,1,1,2332.720000005793,undefined,undefined,undefined,
r9a76ogsvf,undefined,undefined,undefined,undefined,36,Know,30,VICTORIA,COURTNEY,false,9772.369999998831,36,32,27,1,36,15,22,1,2,1,1489.9600000062492,undefined,undefined,undefined,
r9a76ogsvf,undefined,undefined,undefined,undefined,37,Familiar,10,NA,NA,NA,NA,37,24,33,2,undefined,undefined,undefined,undefined,undefined,undefined,undefined,undefined,undefined,undefined,
r9a76ogsvf,undefined,undefined,undefined,undefined,38,Know,17,LISA,LISA,true,4441.324999999721,38,19,18,0,undefined,undefined,undefined,undefined,undefined,undefined,undefined,undefined,undefined,undefined,
r9a76ogsvf,undefined,undefined,undefined,undefined,39,Familiar,3,NA,NA,NA,NA,39,28,8,2,undefined,undefined,undefined,undefined,undefined,undefined,undefined,undefined,undefined,undefined,
r9a76ogsvf,undefined,undefined,undefined,undefined,40,Know,26,COURTNEY,COURTNEY,true,4259.49000000034,40,14,20,1,undefined,undefined,undefined,undefined,undefined,undefined,undefined,undefined,undefined,undefined,
r9a76ogsvf,undefined,undefined,undefined,undefined,41,Know,32,REBECCA,REBECCA,true,4974.730000001728,41,21,36,2,undefined,undefined,undefined,undefined,undefined,undefined,undefined,undefined,undefined,undefined,
r9a76ogsvf,undefined,undefined,undefined,undefined,42,Familiar,5,NA,NA,NA,NA,42,22,6,1,undefined,undefined,undefined,undefined,undefined,undefined,undefined,undefined,undefined,undefined,
r9a76ogsvf,undefined,undefined,undefined,undefined,43,Familiar,16,NA,NA,NA,NA,43,11,31,0,undefined,undefined,undefined,undefined,undefined,undefined,undefined,undefined,undefined,undefined,
r9a76ogsvf,undefined,undefined,undefined,undefined,44,Know,7,GRACE,MARGARET,false,9178.05999999831,44,5,21,0,undefined,undefined,undefined,undefined,undefined,undefined,undefined,undefined,undefined,undefined,
r9a76ogsvf,undefined,undefined,undefined,undefined,45,Know,20,SAMANTHA,MARGARET,false,4036.854999998468,45,33,32,1,undefined,undefined,undefined,undefined,undefined,undefined,undefined,undefined,undefined,undefined,
r9a76ogsvf,undefined,undefined,undefined,undefined,46,Familiar,11,NA,NA,NA,NA,46,6,12,0,undefined,undefined,undefined,undefined,undefined,undefined,undefined,undefined,undefined,undefined,
r9a76ogsvf,undefined,undefined,undefined,undefined,47,Know,14,STEPHANIE,MARGARET,false,22833.08500000206,47,31,4,1,undefined,undefined,undefined,undefined,undefined,undefined,undefined,undefined,undefined,undefined,
r9a76ogsvf,undefined,undefined,undefined,undefined,48,Familiar,9,NA,NA,NA,NA,48,7,10,1,undefined,undefined,undefined,undefined,undefined,undefined,undefined,undefined,undefined,undefined,
r9a76ogsvf,undefined,undefined,undefined,undefined,49,Know,14,STEPHANIE,STEPHANIE,true,2554.519999997923,49,1,7,0,undefined,undefined,undefined,undefined,undefined,undefined,undefined,undefined,undefined,undefined,
r9a76ogsvf,undefined,undefined,undefined,undefined,50,Know,13,MARGARET,MARGARE,false,10132.879999997327,50,8,34,1,undefined,undefined,undefined,undefined,undefined,undefined,undefined,undefined,undefined,undefined,
r9a76ogsvf,undefined,undefined,undefined,undefined,51,Familiar,10,NA,NA,NA,NA,51,4,1,2,undefined,undefined,undefined,undefined,undefined,undefined,undefined,undefined,undefined,undefined,
r9a76ogsvf,undefined,undefined,undefined,undefined,52,Familiar,1,NA,NA,NA,NA,52,12,3,2,undefined,undefined,undefined,undefined,undefined,undefined,undefined,undefined,undefined,undefined,
r9a76ogsvf,undefined,undefined,undefined,undefined,53,Know,7,GRACE,GRACE,true,5681.2449999997625,53,17,17,1,undefined,undefined,undefined,undefined,undefined,undefined,undefined,undefined,undefined,undefined,
r9a76ogsvf,undefined,undefined,undefined,undefined,54,Know,32,REBECCA,REBECCA,true,4544.64999999979,54,23,19,0,undefined,undefined,undefined,undefined,undefined,undefined,undefined,undefined,undefined,undefined,
r9a76ogsvf,undefined,undefined,undefined,undefined,55,Familiar,2,NA,NA,NA,NA,55,9,28,0,undefined,undefined,undefined,undefined,undefined,undefined,undefined,undefined,undefined,undefined,
r9a76ogsvf,undefined,undefined,undefined,undefined,56,Familiar,19,NA,NA,NA,NA,56,29,5,2,undefined,undefined,undefined,undefined,undefined,undefined,undefined,undefined,undefined,undefined,
r9a76ogsvf,undefined,undefined,undefined,undefined,57,Know,22,ALYSSA,ALYSSA,true,2315.579999998561,57,36,24,2,undefined,undefined,undefined,undefined,undefined,undefined,undefined,undefined,undefined,undefined,
r9a76ogsvf,undefined,undefined,undefined,undefined,58,Know,17,LISA,LISA,true,5043.369999999413,58,32,27,1,undefined,undefined,undefined,undefined,undefined,undefined,undefined,undefined,undefined,undefined,
r9a76ogsvf,undefined,undefined,undefined,undefined,59,Familiar,6,NA,NA,NA,NA,59,2,16,0,undefined,undefined,undefined,undefined,undefined,undefined,undefined,undefined,undefined,undefined,
r9a76ogsvf,undefined,undefined,undefined,undefined,60,Know,8,SARAH,GRACE,false,4845.000000001164,60,35,22,2,undefined,undefined,undefined,undefined,undefined,undefined,undefined,undefined,undefined,undefined,
r9a76ogsvf,undefined,undefined,undefined,undefined,61,Know,33,CHLOE,GRACEE,false,5253.890000000014,61,3,9,0,undefined,undefined,undefined,undefined,undefined,undefined,undefined,undefined,undefined,undefined,
r9a76ogsvf,undefined,undefined,undefined,undefined,62,Familiar,9,NA,NA,NA,NA,62,30,14,1,undefined,undefined,undefined,undefined,undefined,undefined,undefined,undefined,undefined,undefined,
r9a76ogsvf,undefined,undefined,undefined,undefined,63,Familiar,18,NA,NA,NA,NA,63,26,35,1,undefined,undefined,undefined,undefined,undefined,undefined,undefined,undefined,undefined,undefined,
r9a76ogsvf,undefined,undefined,undefined,undefined,64,Know,31,ALEXIS,COURTNEY,false,12499.654999999562,64,16,29,0,undefined,undefined,undefined,undefined,undefined,undefined,undefined,undefined,undefined,undefined,
r9a76ogsvf,undefined,undefined,undefined,undefined,65,Familiar,16,NA,NA,NA,NA,65,15,23,2,undefined,undefined,undefined,undefined,undefined,undefined,undefined,undefined,undefined,undefined,
r9a76ogsvf,undefined,undefined,undefined,undefined,66,Familiar,23,NA,NA,NA,NA,66,25,13,2,undefined,undefined,undefined,undefined,undefined,undefined,undefined,undefined,undefined,undefined,
r9a76ogsvf,undefined,undefined,undefined,undefined,67,Know,26,COURTNEY,LISA,false,3411.8449999986915,67,18,2,0,undefined,undefined,undefined,undefined,undefined,undefined,undefined,undefined,undefined,undefined,
r9a76ogsvf,undefined,undefined,undefined,undefined,68,Familiar,5,NA,NA,NA,NA,68,27,11,2,undefined,undefined,undefined,undefined,undefined,undefined,undefined,undefined,undefined,undefined,
r9a76ogsvf,undefined,undefined,undefined,undefined,69,Familiar,11,NA,NA,NA,NA,69,20,30,1,undefined,undefined,undefined,undefined,undefined,undefined,undefined,undefined,undefined,undefined,
r9a76ogsvf,undefined,undefined,undefined,undefined,70,Know,30,VICTORIA,GRACE,false,7207.344999998808,70,10,25,0,undefined,undefined,undefined,undefined,undefined,undefined,undefined,undefined,undefined,undefined,
r9a76ogsvf,undefined,undefined,undefined,undefined,71,Familiar,3,NA,NA,NA,NA,71,13,15,1,undefined,undefined,undefined,undefined,undefined,undefined,undefined,undefined,undefined,undefined,
r9a76ogsvf,undefined,undefined,undefined,undefined,72,Know,20,SAMANTHA,STEPHANIE,false,18446.920000002254,72,34,26,2,undefined,undefined,undefined,undefined,undefined,undefined,undefined,undefined,undefined,undefined,
r9a76ogsvf,undefined,undefined,undefined,undefined,73,Familiar,10,NA,NA,NA,NA,undefined,undefined,undefined,undefined,undefined,undefined,undefined,undefined,undefined,undefined,undefined,undefined,undefined,undefined,
r9a76ogsvf,undefined,undefined,undefined,undefined,74,Know,20,SAMANTHA,SAMANTHA,true,3299.3549999991665,undefined,undefined,undefined,undefined,undefined,undefined,undefined,undefined,undefined,undefined,undefined,undefined,undefined,undefined,
r9a76ogsvf,undefined,undefined,undefined,undefined,75,Know,14,STEPHANIE,STEPHANIE,true,9540.91999999946,undefined,undefined,undefined,undefined,undefined,undefined,undefined,undefined,undefined,undefined,undefined,undefined,undefined,undefined,
r9a76ogsvf,undefined,undefined,undefined,undefined,76,Familiar,2,NA,NA,NA,NA,undefined,undefined,undefined,undefined,undefined,undefined,undefined,undefined,undefined,undefined,undefined,undefined,undefined,undefined,
r9a76ogsvf,undefined,undefined,undefined,undefined,77,Know,33,CHLOE,CHLOE,true,4180.739999999758,undefined,undefined,undefined,undefined,undefined,undefined,undefined,undefined,undefined,undefined,undefined,undefined,undefined,undefined,
r9a76ogsvf,undefined,undefined,undefined,undefined,78,Know,8,SARAH,GRACE,false,5624.674999999115,undefined,undefined,undefined,undefined,undefined,undefined,undefined,undefined,undefined,undefined,undefined,undefined,undefined,undefined,
r9a76ogsvf,undefined,undefined,undefined,undefined,79,Familiar,5,NA,NA,NA,NA,undefined,undefined,undefined,undefined,undefined,undefined,undefined,undefined,undefined,undefined,undefined,undefined,undefined,undefined,
r9a76ogsvf,undefined,undefined,undefined,undefined,80,Familiar,16,NA,NA,NA,NA,undefined,undefined,undefined,undefined,undefined,undefined,undefined,undefined,undefined,undefined,undefined,undefined,undefined,undefined,
r9a76ogsvf,undefined,undefined,undefined,undefined,81,Know,31,ALEXIS,ALEXIS,true,6494.790000000619,undefined,undefined,undefined,undefined,undefined,undefined,undefined,undefined,undefined,undefined,undefined,undefined,undefined,undefined,
r9a76ogsvf,undefined,undefined,undefined,undefined,82,Know,32,REBECCA,REBECCA,true,5601.125000001048,undefined,undefined,undefined,undefined,undefined,undefined,undefined,undefined,undefined,undefined,undefined,undefined,undefined,undefined,
r9a76ogsvf,undefined,undefined,undefined,undefined,83,Familiar,19,NA,NA,NA,NA,undefined,undefined,undefined,undefined,undefined,undefined,undefined,undefined,undefined,undefined,undefined,undefined,undefined,undefined,
r9a76ogsvf,undefined,undefined,undefined,undefined,84,Familiar,3,NA,NA,NA,NA,undefined,undefined,undefined,undefined,undefined,undefined,undefined,undefined,undefined,undefined,undefined,undefined,undefined,undefined,
r9a76ogsvf,undefined,undefined,undefined,undefined,85,Know,13,MARGARET,CHLOE,false,5917.730000001029,undefined,undefined,undefined,undefined,undefined,undefined,undefined,undefined,undefined,undefined,undefined,undefined,undefined,undefined,
r9a76ogsvf,undefined,undefined,undefined,undefined,86,Familiar,1,NA,NA,NA,NA,undefined,undefined,undefined,undefined,undefined,undefined,undefined,undefined,undefined,undefined,undefined,undefined,undefined,undefined,
r9a76ogsvf,undefined,undefined,undefined,undefined,87,Know,7,GRACE,GRACE,true,4279.300000002026,undefined,undefined,undefined,undefined,undefined,undefined,undefined,undefined,undefined,undefined,undefined,undefined,undefined,undefined,
r9a76ogsvf,undefined,undefined,undefined,undefined,88,Familiar,6,NA,NA,NA,NA,undefined,undefined,undefined,undefined,undefined,undefined,undefined,undefined,undefined,undefined,undefined,undefined,undefined,undefined,
r9a76ogsvf,undefined,undefined,undefined,undefined,89,Familiar,23,NA,NA,NA,NA,undefined,undefined,undefined,undefined,undefined,undefined,undefined,undefined,undefined,undefined,undefined,undefined,undefined,undefined,
r9a76ogsvf,undefined,undefined,undefined,undefined,90,Know,17,LISA,LISA,true,13224.275000000489,undefined,undefined,undefined,undefined,undefined,undefined,undefined,undefined,undefined,undefined,undefined,undefined,undefined,undefined,
r9a76ogsvf,undefined,undefined,undefined,undefined,91,Know,26,COURTNEY,STEPHANIE,false,15096.294999999343,undefined,undefined,undefined,undefined,undefined,undefined,undefined,undefined,undefined,undefined,undefined,undefined,undefined,undefined,
r9a76ogsvf,undefined,undefined,undefined,undefined,92,Familiar,9,NA,NA,NA,NA,undefined,undefined,undefined,undefined,undefined,undefined,undefined,undefined,undefined,undefined,undefined,undefined,undefined,undefined,
r9a76ogsvf,undefined,undefined,undefined,undefined,93,Familiar,18,NA,NA,NA,NA,undefined,undefined,undefined,undefined,undefined,undefined,undefined,undefined,undefined,undefined,undefined,undefined,undefined,undefined,
r9a76ogsvf,undefined,undefined,undefined,undefined,94,Know,22,ALYSSA,ALYSSA,true,2716.899999999441,undefined,undefined,undefined,undefined,undefined,undefined,undefined,undefined,undefined,undefined,undefined,undefined,undefined,undefined,
r9a76ogsvf,undefined,undefined,undefined,undefined,95,Know,30,VICTORIA,CHLOE,false,26669.190000000526,undefined,undefined,undefined,undefined,undefined,undefined,undefined,undefined,undefined,undefined,undefined,undefined,undefined,undefined,
r9a76ogsvf,undefined,undefined,undefined,undefined,96,Familiar,11,NA,NA,NA,NA,undefined,undefined,undefined,undefined,undefined,undefined,undefined,undefined,undefined,undefined,undefined,undefined,undefined,undefined,
