SubNum,SubNum_demo,Exp_start_time,Exp_today_date,Exp_today_time,TrialNum,Condition,Face,Name,Response,NameAcc,RespTime,StudyTrialNum,StudyFace,StudyContext,StudyFamCond,TestTrialNum,TestFace,TestContext,TestSDCond,TestFamCond,TestResponse,TestResponseTime,Exp_end_time,Distractor_1_duration,Distractor_2_duration,
0dnzr1v5ju,cmd8a1dgml,Sun Nov 22 2020 15:47:08 GMT-0600 (CST),2020-11-22,15:47:8,1,Familiar,27,NA,NA,NA,NA,1,26,19,0,1,35,17,0,2,1,4668,16:18:50,123652,65376,
0dnzr1v5ju,undefined,undefined,undefined,undefined,2,Know,36,GRACE,GRACE,true,7525,2,5,32,0,2,36,24,0,1,0,4825,undefined,undefined,undefined,
0dnzr1v5ju,undefined,undefined,undefined,undefined,3,Know,29,ALYSSA,ALYSSA,true,6004,3,32,28,2,3,19,27,0,1,0,4182,undefined,undefined,undefined,
0dnzr1v5ju,undefined,undefined,undefined,undefined,4,Familiar,17,NA,NA,NA,NA,4,35,17,2,4,8,16,1,0,1,8669,undefined,undefined,undefined,
0dnzr1v5ju,undefined,undefined,undefined,undefined,5,Know,30,KAREN,KAREN,true,5606,5,25,23,1,5,34,28,1,2,1,3302,undefined,undefined,undefined,
0dnzr1v5ju,undefined,undefined,undefined,undefined,6,Familiar,12,NA,NA,NA,NA,6,30,21,1,6,32,15,1,2,1,3912.000000000233,undefined,undefined,undefined,
0dnzr1v5ju,undefined,undefined,undefined,undefined,7,Familiar,26,NA,NA,NA,NA,7,6,3,2,7,2,2,1,1,1,2181,undefined,undefined,undefined,
0dnzr1v5ju,undefined,undefined,undefined,undefined,8,Know,9,JESSICA,JESSICA,true,5077,8,20,31,2,8,5,32,0,0,0,80680,undefined,undefined,undefined,
0dnzr1v5ju,undefined,undefined,undefined,undefined,9,Know,16,AUDREY,AUDREY,true,4195.999999999971,9,1,30,0,9,22,3,1,2,1,3399,undefined,undefined,undefined,
0dnzr1v5ju,undefined,undefined,undefined,undefined,10,Familiar,5,NA,NA,NA,NA,10,4,18,2,10,31,4,1,1,1,2436,undefined,undefined,undefined,
0dnzr1v5ju,undefined,undefined,undefined,undefined,11,Familiar,33,NA,NA,NA,NA,11,19,27,1,11,17,11,0,0,0,2632,undefined,undefined,undefined,
0dnzr1v5ju,undefined,undefined,undefined,undefined,12,Know,19,BRIANNA,BRIANNA,true,7454,12,9,33,1,12,15,1,0,2,0,9670.000000000233,undefined,undefined,undefined,
0dnzr1v5ju,undefined,undefined,undefined,undefined,13,Know,24,EMILY,EMILY,true,4891,13,10,20,0,13,13,10,1,1,1,2968,undefined,undefined,undefined,
0dnzr1v5ju,undefined,undefined,undefined,undefined,14,Familiar,8,NA,NA,NA,NA,14,14,10,1,14,23,36,1,0,1,2660,undefined,undefined,undefined,
0dnzr1v5ju,undefined,undefined,undefined,undefined,15,Familiar,10,NA,NA,NA,NA,15,36,24,1,15,1,14,1,0,1,3550.000000000233,undefined,undefined,undefined,
0dnzr1v5ju,undefined,undefined,undefined,undefined,16,Know,14,PATRICIA,PATRICIA,true,8992,16,18,29,2,16,7,30,1,0,1,3627,undefined,undefined,undefined,
0dnzr1v5ju,undefined,undefined,undefined,undefined,17,Familiar,7,NA,NA,NA,NA,17,15,1,2,17,6,12,1,2,1,933,undefined,undefined,undefined,
0dnzr1v5ju,undefined,undefined,undefined,undefined,18,Know,25,MARY,MARY,true,9224.99999999997,18,2,4,1,18,16,34,0,1,0,1339.9999999997672,undefined,undefined,undefined,
0dnzr1v5ju,undefined,undefined,undefined,undefined,19,Familiar,1,NA,NA,NA,NA,19,28,6,2,19,26,19,0,0,0,1069,undefined,undefined,undefined,
0dnzr1v5ju,undefined,undefined,undefined,undefined,20,Know,31,ZOEY,ZOEY,true,8064,20,17,11,0,20,14,8,1,1,1,3841,undefined,undefined,undefined,
0dnzr1v5ju,undefined,undefined,undefined,undefined,21,Know,2,MADISON,MADISON,true,6341.999999999971,21,12,35,0,21,29,26,0,1,0,940,undefined,undefined,undefined,
0dnzr1v5ju,undefined,undefined,undefined,undefined,22,Familiar,23,NA,NA,NA,NA,22,31,2,1,22,12,35,0,0,0,1006,undefined,undefined,undefined,
0dnzr1v5ju,undefined,undefined,undefined,undefined,23,Know,13,RACHEL,RACHEL,true,5699,23,29,26,1,23,24,23,1,1,1,1739,undefined,undefined,undefined,
0dnzr1v5ju,undefined,undefined,undefined,undefined,24,Familiar,3,NA,NA,NA,NA,24,11,9,2,24,30,21,0,1,0,1267,undefined,undefined,undefined,
0dnzr1v5ju,undefined,undefined,undefined,undefined,25,Know,14,PATRICIA,BRIANNA,false,9177.999999999942,25,21,5,2,25,3,20,1,0,1,1436,undefined,undefined,undefined,
0dnzr1v5ju,undefined,undefined,undefined,undefined,26,Familiar,26,NA,NA,NA,NA,26,13,8,1,26,21,5,0,2,0,920.9999999997672,undefined,undefined,undefined,
0dnzr1v5ju,undefined,undefined,undefined,undefined,27,Know,30,KAREN,KAREN,true,10115,27,23,16,0,27,11,31,1,2,1,1447,undefined,undefined,undefined,
0dnzr1v5ju,undefined,undefined,undefined,undefined,28,Know,31,ZOEY,MARY,false,22818,28,33,22,0,28,9,33,0,1,0,2416,undefined,undefined,undefined,
0dnzr1v5ju,undefined,undefined,undefined,undefined,29,Familiar,17,NA,NA,NA,NA,29,34,15,2,29,25,7,1,1,1,8200.999999999767,undefined,undefined,undefined,
0dnzr1v5ju,undefined,undefined,undefined,undefined,30,Familiar,12,NA,NA,NA,NA,30,8,36,0,30,28,6,0,2,0,4597,undefined,undefined,undefined,
0dnzr1v5ju,undefined,undefined,undefined,undefined,31,Know,2,MADISON,MADISON,true,12041,31,7,14,0,31,20,9,1,2,1,3174,undefined,undefined,undefined,
0dnzr1v5ju,undefined,undefined,undefined,undefined,32,Know,29,ALYSSA,BRIANNA,false,26752,32,24,7,1,32,10,25,1,0,1,3216,undefined,undefined,undefined,
0dnzr1v5ju,undefined,undefined,undefined,undefined,33,Familiar,1,NA,NA,NA,NA,33,22,12,2,33,18,29,0,2,1,6521.000000000233,undefined,undefined,undefined,
0dnzr1v5ju,undefined,undefined,undefined,undefined,34,Familiar,7,NA,NA,NA,NA,34,27,13,0,34,27,13,0,0,0,3128.000000000233,undefined,undefined,undefined,
0dnzr1v5ju,undefined,undefined,undefined,undefined,35,Know,9,JESSICA,MARY,false,33228,35,16,34,1,35,4,18,0,2,0,8833,undefined,undefined,undefined,
0dnzr1v5ju,undefined,undefined,undefined,undefined,36,Know,16,AUDREY,RACHEL,false,14770.000000000058,36,3,25,0,36,33,22,0,0,1,3410,undefined,undefined,undefined,
0dnzr1v5ju,undefined,undefined,undefined,undefined,37,Familiar,27,NA,NA,NA,NA,37,1,30,0,undefined,undefined,undefined,undefined,undefined,undefined,undefined,undefined,undefined,undefined,
0dnzr1v5ju,undefined,undefined,undefined,undefined,38,Know,24,EMILY,EMILY,true,6798,38,36,24,1,undefined,undefined,undefined,undefined,undefined,undefined,undefined,undefined,undefined,undefined,
0dnzr1v5ju,undefined,undefined,undefined,undefined,39,Familiar,10,NA,NA,NA,NA,39,31,2,1,undefined,undefined,undefined,undefined,undefined,undefined,undefined,undefined,undefined,undefined,
0dnzr1v5ju,undefined,undefined,undefined,undefined,40,Know,25,MARY,MARY,true,8594,40,22,12,2,undefined,undefined,undefined,undefined,undefined,undefined,undefined,undefined,undefined,undefined,
0dnzr1v5ju,undefined,undefined,undefined,undefined,41,Familiar,5,NA,NA,NA,NA,41,10,20,0,undefined,undefined,undefined,undefined,undefined,undefined,undefined,undefined,undefined,undefined,
0dnzr1v5ju,undefined,undefined,undefined,undefined,42,Familiar,8,NA,NA,NA,NA,42,29,26,1,undefined,undefined,undefined,undefined,undefined,undefined,undefined,undefined,undefined,undefined,
0dnzr1v5ju,undefined,undefined,undefined,undefined,43,Know,36,GRACE,RACHEL,false,13992,43,15,1,2,undefined,undefined,undefined,undefined,undefined,undefined,undefined,undefined,undefined,undefined,
0dnzr1v5ju,undefined,undefined,undefined,undefined,44,Familiar,33,NA,NA,NA,NA,44,5,32,0,undefined,undefined,undefined,undefined,undefined,undefined,undefined,undefined,undefined,undefined,
0dnzr1v5ju,undefined,undefined,undefined,undefined,45,Know,13,RACHEL,RACHEL,true,23677,45,30,21,1,undefined,undefined,undefined,undefined,undefined,undefined,undefined,undefined,undefined,undefined,
0dnzr1v5ju,undefined,undefined,undefined,undefined,46,Familiar,3,NA,NA,NA,NA,46,16,34,1,undefined,undefined,undefined,undefined,undefined,undefined,undefined,undefined,undefined,undefined,
0dnzr1v5ju,undefined,undefined,undefined,undefined,47,Familiar,23,NA,NA,NA,NA,47,11,9,2,undefined,undefined,undefined,undefined,undefined,undefined,undefined,undefined,undefined,undefined,
0dnzr1v5ju,undefined,undefined,undefined,undefined,48,Know,19,BRIANNA,BRIANNA,true,26574,48,23,16,0,undefined,undefined,undefined,undefined,undefined,undefined,undefined,undefined,undefined,undefined,
0dnzr1v5ju,undefined,undefined,undefined,undefined,49,Familiar,33,NA,NA,NA,NA,49,24,7,1,undefined,undefined,undefined,undefined,undefined,undefined,undefined,undefined,undefined,undefined,
0dnzr1v5ju,undefined,undefined,undefined,undefined,50,Familiar,8,NA,NA,NA,NA,50,27,13,0,undefined,undefined,undefined,undefined,undefined,undefined,undefined,undefined,undefined,undefined,
0dnzr1v5ju,undefined,undefined,undefined,undefined,51,Know,24,EMILY,EMILY,true,7069.999999999884,51,35,17,2,undefined,undefined,undefined,undefined,undefined,undefined,undefined,undefined,undefined,undefined,
0dnzr1v5ju,undefined,undefined,undefined,undefined,52,Know,13,RACHEL,RACHEL,true,21821,52,9,33,1,undefined,undefined,undefined,undefined,undefined,undefined,undefined,undefined,undefined,undefined,
0dnzr1v5ju,undefined,undefined,undefined,undefined,53,Familiar,3,NA,NA,NA,NA,53,7,14,0,undefined,undefined,undefined,undefined,undefined,undefined,undefined,undefined,undefined,undefined,
0dnzr1v5ju,undefined,undefined,undefined,undefined,54,Familiar,23,NA,NA,NA,NA,54,34,15,2,undefined,undefined,undefined,undefined,undefined,undefined,undefined,undefined,undefined,undefined,
0dnzr1v5ju,undefined,undefined,undefined,undefined,55,Know,9,JESSICA,GRACE,false,11777.000000000116,55,21,5,2,undefined,undefined,undefined,undefined,undefined,undefined,undefined,undefined,undefined,undefined,
0dnzr1v5ju,undefined,undefined,undefined,undefined,56,Know,36,GRACE,AUDREY,false,16199,56,2,4,1,undefined,undefined,undefined,undefined,undefined,undefined,undefined,undefined,undefined,undefined,
0dnzr1v5ju,undefined,undefined,undefined,undefined,57,Familiar,5,NA,NA,NA,NA,57,26,19,0,undefined,undefined,undefined,undefined,undefined,undefined,undefined,undefined,undefined,undefined,
0dnzr1v5ju,undefined,undefined,undefined,undefined,58,Familiar,17,NA,NA,NA,NA,58,12,35,0,undefined,undefined,undefined,undefined,undefined,undefined,undefined,undefined,undefined,undefined,
0dnzr1v5ju,undefined,undefined,undefined,undefined,59,Know,2,MADISON,MADISON,true,11792.999999999884,59,25,23,1,undefined,undefined,undefined,undefined,undefined,undefined,undefined,undefined,undefined,undefined,
0dnzr1v5ju,undefined,undefined,undefined,undefined,60,Know,14,PATRICIA,BRIANNA,false,29180.999999999884,60,19,27,1,undefined,undefined,undefined,undefined,undefined,undefined,undefined,undefined,undefined,undefined,
0dnzr1v5ju,undefined,undefined,undefined,undefined,61,Familiar,7,NA,NA,NA,NA,61,17,11,0,undefined,undefined,undefined,undefined,undefined,undefined,undefined,undefined,undefined,undefined,
0dnzr1v5ju,undefined,undefined,undefined,undefined,62,Know,29,ALYSSA,ALYSSA,true,8848,62,6,3,2,undefined,undefined,undefined,undefined,undefined,undefined,undefined,undefined,undefined,undefined,
0dnzr1v5ju,undefined,undefined,undefined,undefined,63,Know,19,BRIANNA,BRIANNA,true,12566.000000000116,63,32,28,2,undefined,undefined,undefined,undefined,undefined,undefined,undefined,undefined,undefined,undefined,
0dnzr1v5ju,undefined,undefined,undefined,undefined,64,Familiar,1,NA,NA,NA,NA,64,13,8,1,undefined,undefined,undefined,undefined,undefined,undefined,undefined,undefined,undefined,undefined,
0dnzr1v5ju,undefined,undefined,undefined,undefined,65,Familiar,26,NA,NA,NA,NA,65,33,22,0,undefined,undefined,undefined,undefined,undefined,undefined,undefined,undefined,undefined,undefined,
0dnzr1v5ju,undefined,undefined,undefined,undefined,66,Know,25,MARY,AUDREY,false,14453,66,18,29,2,undefined,undefined,undefined,undefined,undefined,undefined,undefined,undefined,undefined,undefined,
0dnzr1v5ju,undefined,undefined,undefined,undefined,67,Know,31,ZOEY,ZOEY,true,14682.999999999884,67,4,18,2,undefined,undefined,undefined,undefined,undefined,undefined,undefined,undefined,undefined,undefined,
0dnzr1v5ju,undefined,undefined,undefined,undefined,68,Familiar,27,NA,NA,NA,NA,68,14,10,1,undefined,undefined,undefined,undefined,undefined,undefined,undefined,undefined,undefined,undefined,
0dnzr1v5ju,undefined,undefined,undefined,undefined,69,Know,30,KAREN,AUDREY,false,25511.999999999884,69,3,25,0,undefined,undefined,undefined,undefined,undefined,undefined,undefined,undefined,undefined,undefined,
0dnzr1v5ju,undefined,undefined,undefined,undefined,70,Familiar,12,NA,NA,NA,NA,70,28,6,2,undefined,undefined,undefined,undefined,undefined,undefined,undefined,undefined,undefined,undefined,
0dnzr1v5ju,undefined,undefined,undefined,undefined,71,Know,16,AUDREY,BRIANNA,false,10073,71,8,36,0,undefined,undefined,undefined,undefined,undefined,undefined,undefined,undefined,undefined,undefined,
0dnzr1v5ju,undefined,undefined,undefined,undefined,72,Familiar,10,NA,NA,NA,NA,72,20,31,2,undefined,undefined,undefined,undefined,undefined,undefined,undefined,undefined,undefined,undefined,
0dnzr1v5ju,undefined,undefined,undefined,undefined,73,Know,31,ZOEY,ZOEY,true,13994,undefined,undefined,undefined,undefined,undefined,undefined,undefined,undefined,undefined,undefined,undefined,undefined,undefined,undefined,
0dnzr1v5ju,undefined,undefined,undefined,undefined,74,Familiar,26,NA,NA,NA,NA,undefined,undefined,undefined,undefined,undefined,undefined,undefined,undefined,undefined,undefined,undefined,undefined,undefined,undefined,
0dnzr1v5ju,undefined,undefined,undefined,undefined,75,Familiar,10,NA,NA,NA,NA,undefined,undefined,undefined,undefined,undefined,undefined,undefined,undefined,undefined,undefined,undefined,undefined,undefined,undefined,
0dnzr1v5ju,undefined,undefined,undefined,undefined,76,Know,30,KAREN,KAREN,true,7457,undefined,undefined,undefined,undefined,undefined,undefined,undefined,undefined,undefined,undefined,undefined,undefined,undefined,undefined,
0dnzr1v5ju,undefined,undefined,undefined,undefined,77,Familiar,17,NA,NA,NA,NA,undefined,undefined,undefined,undefined,undefined,undefined,undefined,undefined,undefined,undefined,undefined,undefined,undefined,undefined,
0dnzr1v5ju,undefined,undefined,undefined,undefined,78,Know,2,MADISON,MADISON,true,9957,undefined,undefined,undefined,undefined,undefined,undefined,undefined,undefined,undefined,undefined,undefined,undefined,undefined,undefined,
0dnzr1v5ju,undefined,undefined,undefined,undefined,79,Know,24,EMILY,EMILY,true,9694,undefined,undefined,undefined,undefined,undefined,undefined,undefined,undefined,undefined,undefined,undefined,undefined,undefined,undefined,
0dnzr1v5ju,undefined,undefined,undefined,undefined,80,Familiar,8,NA,NA,NA,NA,undefined,undefined,undefined,undefined,undefined,undefined,undefined,undefined,undefined,undefined,undefined,undefined,undefined,undefined,
0dnzr1v5ju,undefined,undefined,undefined,undefined,81,Familiar,3,NA,NA,NA,NA,undefined,undefined,undefined,undefined,undefined,undefined,undefined,undefined,undefined,undefined,undefined,undefined,undefined,undefined,
0dnzr1v5ju,undefined,undefined,undefined,undefined,82,Know,25,MARY,BRIANNA,false,22922.000000000116,undefined,undefined,undefined,undefined,undefined,undefined,undefined,undefined,undefined,undefined,undefined,undefined,undefined,undefined,
0dnzr1v5ju,undefined,undefined,undefined,undefined,83,Know,16,AUDREY,BRIANNA,false,9436,undefined,undefined,undefined,undefined,undefined,undefined,undefined,undefined,undefined,undefined,undefined,undefined,undefined,undefined,
0dnzr1v5ju,undefined,undefined,undefined,undefined,84,Familiar,33,NA,NA,NA,NA,undefined,undefined,undefined,undefined,undefined,undefined,undefined,undefined,undefined,undefined,undefined,undefined,undefined,undefined,
0dnzr1v5ju,undefined,undefined,undefined,undefined,85,Know,29,ALYSSA,ALYSSA,true,8138,undefined,undefined,undefined,undefined,undefined,undefined,undefined,undefined,undefined,undefined,undefined,undefined,undefined,undefined,
0dnzr1v5ju,undefined,undefined,undefined,undefined,86,Familiar,7,NA,NA,NA,NA,undefined,undefined,undefined,undefined,undefined,undefined,undefined,undefined,undefined,undefined,undefined,undefined,undefined,undefined,
0dnzr1v5ju,undefined,undefined,undefined,undefined,87,Familiar,1,NA,NA,NA,NA,undefined,undefined,undefined,undefined,undefined,undefined,undefined,undefined,undefined,undefined,undefined,undefined,undefined,undefined,
0dnzr1v5ju,undefined,undefined,undefined,undefined,88,Know,9,JESSICA,GRACE,false,14193,undefined,undefined,undefined,undefined,undefined,undefined,undefined,undefined,undefined,undefined,undefined,undefined,undefined,undefined,
0dnzr1v5ju,undefined,undefined,undefined,undefined,89,Know,19,BRIANNA,BRIANNA,true,10346,undefined,undefined,undefined,undefined,undefined,undefined,undefined,undefined,undefined,undefined,undefined,undefined,undefined,undefined,
0dnzr1v5ju,undefined,undefined,undefined,undefined,90,Familiar,12,NA,NA,NA,NA,undefined,undefined,undefined,undefined,undefined,undefined,undefined,undefined,undefined,undefined,undefined,undefined,undefined,undefined,
0dnzr1v5ju,undefined,undefined,undefined,undefined,91,Know,14,PATRICIA,PATRICIA,true,11651,undefined,undefined,undefined,undefined,undefined,undefined,undefined,undefined,undefined,undefined,undefined,undefined,undefined,undefined,
0dnzr1v5ju,undefined,undefined,undefined,undefined,92,Know,13,RACHEL,RACHEL,true,4847.999999999884,undefined,undefined,undefined,undefined,undefined,undefined,undefined,undefined,undefined,undefined,undefined,undefined,undefined,undefined,
0dnzr1v5ju,undefined,undefined,undefined,undefined,93,Familiar,5,NA,NA,NA,NA,undefined,undefined,undefined,undefined,undefined,undefined,undefined,undefined,undefined,undefined,undefined,undefined,undefined,undefined,
0dnzr1v5ju,undefined,undefined,undefined,undefined,94,Know,36,GRACE,GRACE,true,13427.999999999884,undefined,undefined,undefined,undefined,undefined,undefined,undefined,undefined,undefined,undefined,undefined,undefined,undefined,undefined,
0dnzr1v5ju,undefined,undefined,undefined,undefined,95,Familiar,23,NA,NA,NA,NA,undefined,undefined,undefined,undefined,undefined,undefined,undefined,undefined,undefined,undefined,undefined,undefined,undefined,undefined,
0dnzr1v5ju,undefined,undefined,undefined,undefined,96,Familiar,27,NA,NA,NA,NA,undefined,undefined,undefined,undefined,undefined,undefined,undefined,undefined,undefined,undefined,undefined,undefined,undefined,undefined,
