SubNum,SubNum_demo,Exp_start_time,Exp_today_date,Exp_today_time,TrialNum,Condition,Face,Name,Response,NameAcc,RespTime,StudyTrialNum,StudyFace,StudyContext,StudyFamCond,TestTrialNum,TestFace,TestContext,TestSDCond,TestFamCond,TestResponse,TestResponseTime,Exp_end_time,Distractor_1_duration,Distractor_2_duration,
tnjeoo4mvm,duudho9rpc,Thu Oct 15 2020 19:51:11 GMT-0500 (Central Daylight Time),2020-10-15,19:51:11,1,Familiar,33,NA,NA,NA,NA,1,28,28,0,1,26,33,0,2,1,1456.3250000064727,20:12:19,120968.82499998901,60338.71499999077,
tnjeoo4mvm,undefined,undefined,undefined,undefined,2,Familiar,27,NA,NA,NA,NA,2,6,11,2,2,24,9,0,2,0,1038.8200000161305,undefined,undefined,undefined,
tnjeoo4mvm,undefined,undefined,undefined,undefined,3,Know,29,VICTORIA,VICTORIA,true,7422.37000001478,3,17,24,0,3,23,17,0,1,0,774.0699999849312,undefined,undefined,undefined,
tnjeoo4mvm,undefined,undefined,undefined,undefined,4,Know,31,LISA,LISA,true,3313.8200000103097,4,30,2,2,4,12,12,1,1,1,1548.914999992121,undefined,undefined,undefined,
tnjeoo4mvm,undefined,undefined,undefined,undefined,5,Familiar,34,NA,NA,NA,NA,5,10,36,0,5,10,3,1,0,1,1781.875000015134,undefined,undefined,undefined,
tnjeoo4mvm,undefined,undefined,undefined,undefined,6,Familiar,15,NA,NA,NA,NA,6,13,3,0,6,36,26,1,2,1,1017.2299999976531,undefined,undefined,undefined,
tnjeoo4mvm,undefined,undefined,undefined,undefined,7,Know,23,PATRICIA,PATRICIA,true,8591.065000015078,7,14,26,2,7,13,36,1,0,1,1211.1349999904633,undefined,undefined,undefined,
tnjeoo4mvm,undefined,undefined,undefined,undefined,8,Familiar,4,NA,NA,NA,NA,8,29,18,1,8,15,25,0,0,0,1311.630000011064,undefined,undefined,undefined,
tnjeoo4mvm,undefined,undefined,undefined,undefined,9,Know,25,HAZEL,HAZEL,true,4370.369999989634,9,9,20,1,9,34,7,0,0,1,1315.7000000064727,undefined,undefined,undefined,
tnjeoo4mvm,undefined,undefined,undefined,undefined,10,Know,5,ELIZABETH,ELIZABETH,true,6581.899999990128,10,7,22,2,10,21,34,1,0,1,1011.6149999957997,undefined,undefined,undefined,
tnjeoo4mvm,undefined,undefined,undefined,undefined,11,Familiar,17,NA,NA,NA,NA,11,31,1,1,11,20,32,0,2,0,1146.8649999878835,undefined,undefined,undefined,
tnjeoo4mvm,undefined,undefined,undefined,undefined,12,Know,8,LAUREN,LAUREN,true,4989.124999992782,12,12,6,1,12,33,8,0,0,0,1180.3300000028685,undefined,undefined,undefined,
tnjeoo4mvm,undefined,undefined,undefined,undefined,13,Know,32,SOFIA,SOFIA,true,3410.21499998169,13,36,16,2,13,19,6,1,1,1,914.1149999923073,undefined,undefined,undefined,
tnjeoo4mvm,undefined,undefined,undefined,undefined,14,Familiar,1,NA,NA,NA,NA,14,23,17,1,14,17,24,0,0,0,1708.4200000099372,undefined,undefined,undefined,
tnjeoo4mvm,undefined,undefined,undefined,undefined,15,Know,9,JENNIFER,JENNIFER,true,4207.675000012387,15,4,19,0,15,4,19,0,0,0,1198.1899999955203,undefined,undefined,undefined,
tnjeoo4mvm,undefined,undefined,undefined,undefined,16,Familiar,10,NA,NA,NA,NA,16,25,35,1,16,1,13,1,0,1,1058.6550000007264,undefined,undefined,undefined,
tnjeoo4mvm,undefined,undefined,undefined,undefined,17,Familiar,13,NA,NA,NA,NA,17,2,15,2,17,14,16,1,2,1,1430.8000000019092,undefined,undefined,undefined,
tnjeoo4mvm,undefined,undefined,undefined,undefined,18,Know,19,AMANDA,AMANDA,true,3851.9599999999627,18,15,25,0,18,16,20,1,1,1,1692.9450000170618,undefined,undefined,undefined,
tnjeoo4mvm,undefined,undefined,undefined,undefined,19,Know,11,REBECCA,REBECCA,true,3671.345000009751,19,33,8,0,19,5,4,0,1,0,1243.949999974575,undefined,undefined,undefined,
tnjeoo4mvm,undefined,undefined,undefined,undefined,20,Familiar,18,NA,NA,NA,NA,20,35,14,2,20,28,31,1,0,0,1083.0149999819696,undefined,undefined,undefined,
tnjeoo4mvm,undefined,undefined,undefined,undefined,21,Familiar,21,NA,NA,NA,NA,21,21,13,0,21,22,10,0,2,0,1245.39499997627,undefined,undefined,undefined,
tnjeoo4mvm,undefined,undefined,undefined,undefined,22,Know,12,SARAH,SARAH,true,2553.925000014715,22,3,21,2,22,29,18,0,1,0,1401.8300000170711,undefined,undefined,undefined,
tnjeoo4mvm,undefined,undefined,undefined,undefined,23,Familiar,28,NA,NA,NA,NA,23,20,32,2,23,25,35,0,1,1,1839.0000000072177,undefined,undefined,undefined,
tnjeoo4mvm,undefined,undefined,undefined,undefined,24,Know,16,KAYLA,KAYLA,true,3934.7300000081304,24,5,4,1,24,27,27,0,0,0,985.6999999901745,undefined,undefined,undefined,
tnjeoo4mvm,undefined,undefined,undefined,undefined,25,Know,5,ELIZABETH,ELIZABETH,true,10477.335000003222,25,24,9,2,25,35,21,1,2,0,1936.1550000030547,undefined,undefined,undefined,
tnjeoo4mvm,undefined,undefined,undefined,undefined,26,Familiar,34,NA,NA,NA,NA,26,32,29,1,26,30,2,0,2,0,1552.4250000016764,undefined,undefined,undefined,
tnjeoo4mvm,undefined,undefined,undefined,undefined,27,Familiar,10,NA,NA,NA,NA,27,26,33,2,27,18,28,1,0,0,1105.8500000217464,undefined,undefined,undefined,
tnjeoo4mvm,undefined,undefined,undefined,undefined,28,Know,9,JENNIFER,PATRICIA,false,8927.590000006603,28,1,34,0,28,3,14,1,2,1,943.2849999866448,undefined,undefined,undefined,
tnjeoo4mvm,undefined,undefined,undefined,undefined,29,Familiar,27,NA,NA,NA,NA,29,19,12,1,29,2,22,1,2,0,1253.3600000024308,undefined,undefined,undefined,
tnjeoo4mvm,undefined,undefined,undefined,undefined,30,Familiar,4,NA,NA,NA,NA,30,16,23,1,30,9,23,1,1,1,1229.86000002129,undefined,undefined,undefined,
tnjeoo4mvm,undefined,undefined,undefined,undefined,31,Know,29,VICTORIA,HAZEL,false,3930.274999991525,31,22,10,2,31,11,29,1,1,0,1111.2250000005588,undefined,undefined,undefined,
tnjeoo4mvm,undefined,undefined,undefined,undefined,32,Familiar,13,NA,NA,NA,NA,32,18,31,0,32,31,1,0,1,0,1259.0849999978673,undefined,undefined,undefined,
tnjeoo4mvm,undefined,undefined,undefined,undefined,33,Familiar,18,NA,NA,NA,NA,33,34,7,0,33,7,15,1,2,0,1001.2649999989662,undefined,undefined,undefined,
tnjeoo4mvm,undefined,undefined,undefined,undefined,34,Know,11,REBECCA,AMANDA,false,6147.989999997662,34,11,30,1,34,8,5,0,1,0,1580.7050000003073,undefined,undefined,undefined,
tnjeoo4mvm,undefined,undefined,undefined,undefined,35,Familiar,33,NA,NA,NA,NA,35,8,5,1,35,32,30,1,1,0,2342.525000014575,undefined,undefined,undefined,
tnjeoo4mvm,undefined,undefined,undefined,undefined,36,Know,12,SARAH,SARAH,true,3431.650000013178,36,27,27,0,36,6,11,0,2,1,1077.4800000071991,undefined,undefined,undefined,
tnjeoo4mvm,undefined,undefined,undefined,undefined,37,Know,32,SOFIA,LISA,false,2952.065000019502,37,8,5,1,undefined,undefined,undefined,undefined,undefined,undefined,undefined,undefined,undefined,undefined,
tnjeoo4mvm,undefined,undefined,undefined,undefined,38,Familiar,21,NA,NA,NA,NA,38,15,25,0,undefined,undefined,undefined,undefined,undefined,undefined,undefined,undefined,undefined,undefined,
tnjeoo4mvm,undefined,undefined,undefined,undefined,39,Know,25,HAZEL,AMANDA,false,2472.234999993816,39,9,20,1,undefined,undefined,undefined,undefined,undefined,undefined,undefined,undefined,undefined,undefined,
tnjeoo4mvm,undefined,undefined,undefined,undefined,40,Know,31,LISA,AMANDA,false,4034.060000005411,40,30,2,2,undefined,undefined,undefined,undefined,undefined,undefined,undefined,undefined,undefined,undefined,
tnjeoo4mvm,undefined,undefined,undefined,undefined,41,Familiar,1,NA,NA,NA,NA,41,31,1,1,undefined,undefined,undefined,undefined,undefined,undefined,undefined,undefined,undefined,undefined,
tnjeoo4mvm,undefined,undefined,undefined,undefined,42,Familiar,15,NA,NA,NA,NA,42,14,26,2,undefined,undefined,undefined,undefined,undefined,undefined,undefined,undefined,undefined,undefined,
tnjeoo4mvm,undefined,undefined,undefined,undefined,43,Know,19,AMANDA,AMANDA,true,2595.390000002226,43,23,17,1,undefined,undefined,undefined,undefined,undefined,undefined,undefined,undefined,undefined,undefined,
tnjeoo4mvm,undefined,undefined,undefined,undefined,44,Familiar,17,NA,NA,NA,NA,44,11,30,1,undefined,undefined,undefined,undefined,undefined,undefined,undefined,undefined,undefined,undefined,
tnjeoo4mvm,undefined,undefined,undefined,undefined,45,Know,16,KAYLA,REBECCA,false,12147.339999995893,45,1,34,0,undefined,undefined,undefined,undefined,undefined,undefined,undefined,undefined,undefined,undefined,
tnjeoo4mvm,undefined,undefined,undefined,undefined,46,Know,8,LAUREN,ROSE,false,4092.3299999849405,46,33,8,0,undefined,undefined,undefined,undefined,undefined,undefined,undefined,undefined,undefined,undefined,
tnjeoo4mvm,undefined,undefined,undefined,undefined,47,Familiar,28,NA,NA,NA,NA,47,2,15,2,undefined,undefined,undefined,undefined,undefined,undefined,undefined,undefined,undefined,undefined,
tnjeoo4mvm,undefined,undefined,undefined,undefined,48,Know,23,PATRICIA,SARAH,false,7776.145000010729,48,21,13,0,undefined,undefined,undefined,undefined,undefined,undefined,undefined,undefined,undefined,undefined,
tnjeoo4mvm,undefined,undefined,undefined,undefined,49,Familiar,15,NA,NA,NA,NA,49,25,35,1,undefined,undefined,undefined,undefined,undefined,undefined,undefined,undefined,undefined,undefined,
tnjeoo4mvm,undefined,undefined,undefined,undefined,50,Know,8,LAUREN,PATRICIA,false,2681.414999999106,50,27,27,0,undefined,undefined,undefined,undefined,undefined,undefined,undefined,undefined,undefined,undefined,
tnjeoo4mvm,undefined,undefined,undefined,undefined,51,Know,16,KAYLA,KAYLA,true,3322.4650000047404,51,18,31,0,undefined,undefined,undefined,undefined,undefined,undefined,undefined,undefined,undefined,undefined,
tnjeoo4mvm,undefined,undefined,undefined,undefined,52,Familiar,17,NA,NA,NA,NA,52,16,23,1,undefined,undefined,undefined,undefined,undefined,undefined,undefined,undefined,undefined,undefined,
tnjeoo4mvm,undefined,undefined,undefined,undefined,53,Know,25,HAZEL,PATRICIA,false,4294.690000009723,53,36,16,2,undefined,undefined,undefined,undefined,undefined,undefined,undefined,undefined,undefined,undefined,
tnjeoo4mvm,undefined,undefined,undefined,undefined,54,Familiar,13,NA,NA,NA,NA,54,28,28,0,undefined,undefined,undefined,undefined,undefined,undefined,undefined,undefined,undefined,undefined,
tnjeoo4mvm,undefined,undefined,undefined,undefined,55,Know,31,LISA,REBECCA,false,6107.920000009472,55,17,24,0,undefined,undefined,undefined,undefined,undefined,undefined,undefined,undefined,undefined,undefined,
tnjeoo4mvm,undefined,undefined,undefined,undefined,56,Know,32,SOFIA,LISA,false,4151.409999991301,56,6,11,2,undefined,undefined,undefined,undefined,undefined,undefined,undefined,undefined,undefined,undefined,
tnjeoo4mvm,undefined,undefined,undefined,undefined,57,Familiar,34,NA,NA,NA,NA,57,34,7,0,undefined,undefined,undefined,undefined,undefined,undefined,undefined,undefined,undefined,undefined,
tnjeoo4mvm,undefined,undefined,undefined,undefined,58,Familiar,28,NA,NA,NA,NA,58,19,12,1,undefined,undefined,undefined,undefined,undefined,undefined,undefined,undefined,undefined,undefined,
tnjeoo4mvm,undefined,undefined,undefined,undefined,59,Know,23,PATRICIA,PATRICIA,true,4627.349999995204,59,26,33,2,undefined,undefined,undefined,undefined,undefined,undefined,undefined,undefined,undefined,undefined,
tnjeoo4mvm,undefined,undefined,undefined,undefined,60,Familiar,21,NA,NA,NA,NA,60,12,6,1,undefined,undefined,undefined,undefined,undefined,undefined,undefined,undefined,undefined,undefined,
tnjeoo4mvm,undefined,undefined,undefined,undefined,61,Familiar,27,NA,NA,NA,NA,61,4,19,0,undefined,undefined,undefined,undefined,undefined,undefined,undefined,undefined,undefined,undefined,
tnjeoo4mvm,undefined,undefined,undefined,undefined,62,Know,29,VICTORIA,LISA,false,5694.794999988517,62,10,36,0,undefined,undefined,undefined,undefined,undefined,undefined,undefined,undefined,undefined,undefined,
tnjeoo4mvm,undefined,undefined,undefined,undefined,63,Familiar,1,NA,NA,NA,NA,63,22,10,2,undefined,undefined,undefined,undefined,undefined,undefined,undefined,undefined,undefined,undefined,
tnjeoo4mvm,undefined,undefined,undefined,undefined,64,Familiar,4,NA,NA,NA,NA,64,35,14,2,undefined,undefined,undefined,undefined,undefined,undefined,undefined,undefined,undefined,undefined,
tnjeoo4mvm,undefined,undefined,undefined,undefined,65,Know,19,AMANDA,LAUREN,false,5493.580000009388,65,32,29,1,undefined,undefined,undefined,undefined,undefined,undefined,undefined,undefined,undefined,undefined,
tnjeoo4mvm,undefined,undefined,undefined,undefined,66,Know,5,ELIZABETH,REBECCA,false,3740.6799999880604,66,3,21,2,undefined,undefined,undefined,undefined,undefined,undefined,undefined,undefined,undefined,undefined,
tnjeoo4mvm,undefined,undefined,undefined,undefined,67,Familiar,18,NA,NA,NA,NA,67,5,4,1,undefined,undefined,undefined,undefined,undefined,undefined,undefined,undefined,undefined,undefined,
tnjeoo4mvm,undefined,undefined,undefined,undefined,68,Know,11,REBECCA,REBECCA,true,3495.584999996936,68,24,9,2,undefined,undefined,undefined,undefined,undefined,undefined,undefined,undefined,undefined,undefined,
tnjeoo4mvm,undefined,undefined,undefined,undefined,69,Know,12,SARAH,SARAH,true,2680.0050000019837,69,20,32,2,undefined,undefined,undefined,undefined,undefined,undefined,undefined,undefined,undefined,undefined,
tnjeoo4mvm,undefined,undefined,undefined,undefined,70,Familiar,10,NA,NA,NA,NA,70,29,18,1,undefined,undefined,undefined,undefined,undefined,undefined,undefined,undefined,undefined,undefined,
tnjeoo4mvm,undefined,undefined,undefined,undefined,71,Familiar,33,NA,NA,NA,NA,71,13,3,0,undefined,undefined,undefined,undefined,undefined,undefined,undefined,undefined,undefined,undefined,
tnjeoo4mvm,undefined,undefined,undefined,undefined,72,Know,9,JENNIFER,LISA,false,8498.115000023972,72,7,22,2,undefined,undefined,undefined,undefined,undefined,undefined,undefined,undefined,undefined,undefined,
tnjeoo4mvm,undefined,undefined,undefined,undefined,73,Familiar,18,NA,NA,NA,NA,undefined,undefined,undefined,undefined,undefined,undefined,undefined,undefined,undefined,undefined,undefined,undefined,undefined,undefined,
tnjeoo4mvm,undefined,undefined,undefined,undefined,74,Know,23,PATRICIA,PATRICIA,true,2974.4700000155717,undefined,undefined,undefined,undefined,undefined,undefined,undefined,undefined,undefined,undefined,undefined,undefined,undefined,undefined,
tnjeoo4mvm,undefined,undefined,undefined,undefined,75,Know,8,LAUREN,LAUREN,true,3707.2899999911897,undefined,undefined,undefined,undefined,undefined,undefined,undefined,undefined,undefined,undefined,undefined,undefined,undefined,undefined,
tnjeoo4mvm,undefined,undefined,undefined,undefined,76,Familiar,13,NA,NA,NA,NA,undefined,undefined,undefined,undefined,undefined,undefined,undefined,undefined,undefined,undefined,undefined,undefined,undefined,undefined,
tnjeoo4mvm,undefined,undefined,undefined,undefined,77,Know,16,KAYLA,KAYLA,true,2006.7149999958929,undefined,undefined,undefined,undefined,undefined,undefined,undefined,undefined,undefined,undefined,undefined,undefined,undefined,undefined,
tnjeoo4mvm,undefined,undefined,undefined,undefined,78,Know,5,ELIZABETH,ELIZABETH,true,7297.889999987092,undefined,undefined,undefined,undefined,undefined,undefined,undefined,undefined,undefined,undefined,undefined,undefined,undefined,undefined,
tnjeoo4mvm,undefined,undefined,undefined,undefined,79,Familiar,1,NA,NA,NA,NA,undefined,undefined,undefined,undefined,undefined,undefined,undefined,undefined,undefined,undefined,undefined,undefined,undefined,undefined,
tnjeoo4mvm,undefined,undefined,undefined,undefined,80,Know,11,REBECCA,REBECCA,true,5240.929999999935,undefined,undefined,undefined,undefined,undefined,undefined,undefined,undefined,undefined,undefined,undefined,undefined,undefined,undefined,
tnjeoo4mvm,undefined,undefined,undefined,undefined,81,Know,32,SOFIA,HAZEL,false,3491.615000006277,undefined,undefined,undefined,undefined,undefined,undefined,undefined,undefined,undefined,undefined,undefined,undefined,undefined,undefined,
tnjeoo4mvm,undefined,undefined,undefined,undefined,82,Familiar,4,NA,NA,NA,NA,undefined,undefined,undefined,undefined,undefined,undefined,undefined,undefined,undefined,undefined,undefined,undefined,undefined,undefined,
tnjeoo4mvm,undefined,undefined,undefined,undefined,83,Know,31,LISA,HAZEL,false,3666.979999979958,undefined,undefined,undefined,undefined,undefined,undefined,undefined,undefined,undefined,undefined,undefined,undefined,undefined,undefined,
tnjeoo4mvm,undefined,undefined,undefined,undefined,84,Familiar,28,NA,NA,NA,NA,undefined,undefined,undefined,undefined,undefined,undefined,undefined,undefined,undefined,undefined,undefined,undefined,undefined,undefined,
tnjeoo4mvm,undefined,undefined,undefined,undefined,85,Familiar,15,NA,NA,NA,NA,undefined,undefined,undefined,undefined,undefined,undefined,undefined,undefined,undefined,undefined,undefined,undefined,undefined,undefined,
tnjeoo4mvm,undefined,undefined,undefined,undefined,86,Know,29,VICTORIA,SOFIA,false,6012.435000011465,undefined,undefined,undefined,undefined,undefined,undefined,undefined,undefined,undefined,undefined,undefined,undefined,undefined,undefined,
tnjeoo4mvm,undefined,undefined,undefined,undefined,87,Know,19,AMANDA,AMANDA,true,2755.8999999891967,undefined,undefined,undefined,undefined,undefined,undefined,undefined,undefined,undefined,undefined,undefined,undefined,undefined,undefined,
tnjeoo4mvm,undefined,undefined,undefined,undefined,88,Familiar,10,NA,NA,NA,NA,undefined,undefined,undefined,undefined,undefined,undefined,undefined,undefined,undefined,undefined,undefined,undefined,undefined,undefined,
tnjeoo4mvm,undefined,undefined,undefined,undefined,89,Familiar,17,NA,NA,NA,NA,undefined,undefined,undefined,undefined,undefined,undefined,undefined,undefined,undefined,undefined,undefined,undefined,undefined,undefined,
tnjeoo4mvm,undefined,undefined,undefined,undefined,90,Know,12,SARAH,SARAH,true,2443.8800000061747,undefined,undefined,undefined,undefined,undefined,undefined,undefined,undefined,undefined,undefined,undefined,undefined,undefined,undefined,
tnjeoo4mvm,undefined,undefined,undefined,undefined,91,Familiar,33,NA,NA,NA,NA,undefined,undefined,undefined,undefined,undefined,undefined,undefined,undefined,undefined,undefined,undefined,undefined,undefined,undefined,
tnjeoo4mvm,undefined,undefined,undefined,undefined,92,Familiar,34,NA,NA,NA,NA,undefined,undefined,undefined,undefined,undefined,undefined,undefined,undefined,undefined,undefined,undefined,undefined,undefined,undefined,
tnjeoo4mvm,undefined,undefined,undefined,undefined,93,Know,25,HAZEL,HAZEL,true,4319.209999986924,undefined,undefined,undefined,undefined,undefined,undefined,undefined,undefined,undefined,undefined,undefined,undefined,undefined,undefined,
tnjeoo4mvm,undefined,undefined,undefined,undefined,94,Familiar,27,NA,NA,NA,NA,undefined,undefined,undefined,undefined,undefined,undefined,undefined,undefined,undefined,undefined,undefined,undefined,undefined,undefined,
tnjeoo4mvm,undefined,undefined,undefined,undefined,95,Know,9,JENNIFER,ELIZABETH,false,9152.870000019902,undefined,undefined,undefined,undefined,undefined,undefined,undefined,undefined,undefined,undefined,undefined,undefined,undefined,undefined,
tnjeoo4mvm,undefined,undefined,undefined,undefined,96,Familiar,21,NA,NA,NA,NA,undefined,undefined,undefined,undefined,undefined,undefined,undefined,undefined,undefined,undefined,undefined,undefined,undefined,undefined,
