SubNum,SubNum_demo,Exp_start_time,Exp_today_date,Exp_today_time,TrialNum,Condition,Face,Name,Response,NameAcc,RespTime,StudyTrialNum,StudyFace,StudyContext,StudyFamCond,TestTrialNum,TestFace,TestContext,TestSDCond,TestFamCond,TestResponse,TestResponseTime,Exp_end_time,Distractor_1_duration,Distractor_2_duration,
u691hjs9s0,zdxyn2dy20,Fri Nov 13 2020 04:11:36 GMT+0900 (대한민국 표준시),2020-11-13,4:11:36,1,Familiar,1,NA,NA,NA,NA,1,20,33,0,1,31,18,1,2,1,1819.0900000007823,4:34:19,122047.79500000272,60189.705000001006,
u691hjs9s0,undefined,undefined,undefined,undefined,2,Know,33,PATRICIA,PATRICIA,true,4135.60000000149,2,8,2,2,2,10,36,1,1,0,6103.440000003204,undefined,undefined,undefined,
u691hjs9s0,undefined,undefined,undefined,undefined,3,Know,30,VICTORIA,VICTORIA,true,3040.6399999987334,3,17,24,0,3,6,31,1,1,0,1004.9150000009686,undefined,undefined,undefined,
u691hjs9s0,undefined,undefined,undefined,undefined,4,Familiar,17,NA,NA,NA,NA,4,13,27,1,4,35,16,0,0,0,3063.399999999441,undefined,undefined,undefined,
u691hjs9s0,undefined,undefined,undefined,undefined,5,Know,21,ELIZABETH,ELIZABETH,true,2944.644999999553,5,14,21,0,5,3,12,1,0,1,1495.7450000001118,undefined,undefined,undefined,
u691hjs9s0,undefined,undefined,undefined,undefined,6,Know,4,STEPHANIE,STEPHANIE,true,2306.704999999143,6,10,31,1,6,22,3,1,2,1,1908.6700000008568,undefined,undefined,undefined,
u691hjs9s0,undefined,undefined,undefined,undefined,7,Familiar,34,NA,NA,NA,NA,7,21,30,1,7,15,35,1,2,1,2510.894999999553,undefined,undefined,undefined,
u691hjs9s0,undefined,undefined,undefined,undefined,8,Know,13,CHLOE,CHLOE,true,1079.5700000012293,8,15,32,2,8,32,15,1,0,0,1429.4550000019372,undefined,undefined,undefined,
u691hjs9s0,undefined,undefined,undefined,undefined,9,Familiar,35,NA,NA,NA,NA,9,25,25,2,9,20,33,0,0,0,1020.2299999976531,undefined,undefined,undefined,
u691hjs9s0,undefined,undefined,undefined,undefined,10,Know,23,SOFIA,SOFIA,true,934.7249999996275,10,4,23,1,10,29,11,0,2,1,1448.335000000894,undefined,undefined,undefined,
u691hjs9s0,undefined,undefined,undefined,undefined,11,Know,5,NICOLE,NICOLE,true,2189.825000002049,11,34,13,0,11,23,6,0,1,1,1008.2149999979883,undefined,undefined,undefined,
u691hjs9s0,undefined,undefined,undefined,undefined,12,Familiar,20,NA,NA,NA,NA,12,6,36,1,12,2,8,1,1,1,1510.2400000002235,undefined,undefined,undefined,
u691hjs9s0,undefined,undefined,undefined,undefined,13,Familiar,28,NA,NA,NA,NA,13,31,3,2,13,16,14,0,2,0,975.2900000018999,undefined,undefined,undefined,
u691hjs9s0,undefined,undefined,undefined,undefined,14,Know,2,EMILY,EMILY,true,2080.740000002086,14,30,20,1,14,4,23,0,1,0,2005.2599999979138,undefined,undefined,undefined,
u691hjs9s0,undefined,undefined,undefined,undefined,15,Familiar,18,NA,NA,NA,NA,15,24,7,0,15,1,34,0,0,1,1295.3549999985844,undefined,undefined,undefined,
u691hjs9s0,undefined,undefined,undefined,undefined,16,Familiar,14,NA,NA,NA,NA,16,33,10,1,16,21,30,0,1,0,924.644999999553,undefined,undefined,undefined,
u691hjs9s0,undefined,undefined,undefined,undefined,17,Know,6,SARAH,SARAH,true,1330.3649999983609,17,27,8,1,17,24,26,1,0,1,1522.3950000004843,undefined,undefined,undefined,
u691hjs9s0,undefined,undefined,undefined,undefined,18,Familiar,9,NA,NA,NA,NA,18,19,5,2,18,27,19,1,1,1,1391.4199999999255,undefined,undefined,undefined,
u691hjs9s0,undefined,undefined,undefined,undefined,19,Familiar,24,NA,NA,NA,NA,19,36,28,1,19,30,20,0,1,1,5031.865000001155,undefined,undefined,undefined,
u691hjs9s0,undefined,undefined,undefined,undefined,20,Know,36,ALYSSA,ALYSSA,true,1871.7250000005588,20,5,1,1,20,11,32,1,2,0,1315.559999998659,undefined,undefined,undefined,
u691hjs9s0,undefined,undefined,undefined,undefined,21,Know,27,HANNAH,HANNAH,true,1343.5649999985471,21,3,15,0,21,5,28,1,1,0,1295.1050000013784,undefined,undefined,undefined,
u691hjs9s0,undefined,undefined,undefined,undefined,22,Familiar,32,NA,NA,NA,NA,22,32,12,0,22,12,29,0,2,0,1484.4149999981746,undefined,undefined,undefined,
u691hjs9s0,undefined,undefined,undefined,undefined,23,Familiar,3,NA,NA,NA,NA,23,16,14,2,23,9,7,1,0,0,1665.429999996908,undefined,undefined,undefined,
u691hjs9s0,undefined,undefined,undefined,undefined,24,Know,10,SAMANTHA,SAMANTHA,true,1675.074999999255,24,1,34,0,24,36,1,1,1,1,843.5749999992549,undefined,undefined,undefined,
u691hjs9s0,undefined,undefined,undefined,undefined,25,Know,23,SOFIA,SOFIA,true,5947.51000000257,25,11,35,2,25,28,4,0,0,1,891.9300000015646,undefined,undefined,undefined,
u691hjs9s0,undefined,undefined,undefined,undefined,26,Familiar,24,NA,NA,NA,NA,26,7,9,2,26,18,21,1,0,1,1755.2250000005588,undefined,undefined,undefined,
u691hjs9s0,undefined,undefined,undefined,undefined,27,Familiar,1,NA,NA,NA,NA,27,35,16,0,27,8,5,1,2,1,883.9250000016764,undefined,undefined,undefined,
u691hjs9s0,undefined,undefined,undefined,undefined,28,Know,4,STEPHANIE,EMILY,false,3444.779999998398,28,26,17,2,28,7,9,0,2,1,1504.6000000005588,undefined,undefined,undefined,
u691hjs9s0,undefined,undefined,undefined,undefined,29,Know,36,ALYSSA,SARAH,false,2808.415000002831,29,9,26,0,29,19,2,1,2,1,2075.829999998212,undefined,undefined,undefined,
u691hjs9s0,undefined,undefined,undefined,undefined,30,Familiar,28,NA,NA,NA,NA,30,12,29,2,30,26,17,0,2,1,2932.8349999999627,undefined,undefined,undefined,
u691hjs9s0,undefined,undefined,undefined,undefined,31,Know,21,ELIZABETH,ELIZABETH,true,3945.100000000559,31,29,11,2,31,33,10,0,1,0,805.4499999992549,undefined,undefined,undefined,
u691hjs9s0,undefined,undefined,undefined,undefined,32,Know,2,EMILY,EMILY,true,14908.995000001043,32,2,19,1,32,17,24,0,0,0,1224.4099999992177,undefined,undefined,undefined,
u691hjs9s0,undefined,undefined,undefined,undefined,33,Familiar,9,NA,NA,NA,NA,33,28,4,0,33,13,27,0,1,1,1633.5099999997765,undefined,undefined,undefined,
u691hjs9s0,undefined,undefined,undefined,undefined,34,Know,13,CHLOE,SAMANTHA,false,7422.764999999665,34,23,6,1,34,25,25,0,2,1,1505.160000000149,undefined,undefined,undefined,
u691hjs9s0,undefined,undefined,undefined,undefined,35,Know,33,PATRICIA,EMILY,false,6925.824999998324,35,18,22,0,35,34,13,0,0,0,917.1199999982491,undefined,undefined,undefined,
u691hjs9s0,undefined,undefined,undefined,undefined,36,Familiar,32,NA,NA,NA,NA,36,22,18,2,36,14,22,1,0,1,1101.7100000027567,undefined,undefined,undefined,
u691hjs9s0,undefined,undefined,undefined,undefined,37,Familiar,3,NA,NA,NA,NA,37,35,16,0,undefined,undefined,undefined,undefined,undefined,undefined,undefined,undefined,undefined,undefined,
u691hjs9s0,undefined,undefined,undefined,undefined,38,Know,10,SAMANTHA,HANNAH,false,3139.7699999976903,38,13,27,1,undefined,undefined,undefined,undefined,undefined,undefined,undefined,undefined,undefined,undefined,
u691hjs9s0,undefined,undefined,undefined,undefined,39,Familiar,17,NA,NA,NA,NA,39,18,22,0,undefined,undefined,undefined,undefined,undefined,undefined,undefined,undefined,undefined,undefined,
u691hjs9s0,undefined,undefined,undefined,undefined,40,Familiar,18,NA,NA,NA,NA,40,31,3,2,undefined,undefined,undefined,undefined,undefined,undefined,undefined,undefined,undefined,undefined,
u691hjs9s0,undefined,undefined,undefined,undefined,41,Know,5,NICOLE,SAMANTHA,false,8083.685000001453,41,7,9,2,undefined,undefined,undefined,undefined,undefined,undefined,undefined,undefined,undefined,undefined,
u691hjs9s0,undefined,undefined,undefined,undefined,42,Know,30,VICTORIA,SAMANTHA,false,4023.1400000015274,42,21,30,1,undefined,undefined,undefined,undefined,undefined,undefined,undefined,undefined,undefined,undefined,
u691hjs9s0,undefined,undefined,undefined,undefined,43,Familiar,14,NA,NA,NA,NA,43,20,33,0,undefined,undefined,undefined,undefined,undefined,undefined,undefined,undefined,undefined,undefined,
u691hjs9s0,undefined,undefined,undefined,undefined,44,Familiar,35,NA,NA,NA,NA,44,3,15,0,undefined,undefined,undefined,undefined,undefined,undefined,undefined,undefined,undefined,undefined,
u691hjs9s0,undefined,undefined,undefined,undefined,45,Know,27,HANNAH,HANNAH,true,2109.27499999851,45,2,19,1,undefined,undefined,undefined,undefined,undefined,undefined,undefined,undefined,undefined,undefined,
u691hjs9s0,undefined,undefined,undefined,undefined,46,Know,6,SARAH,VICTORIA,false,2224.4799999967217,46,29,11,2,undefined,undefined,undefined,undefined,undefined,undefined,undefined,undefined,undefined,undefined,
u691hjs9s0,undefined,undefined,undefined,undefined,47,Familiar,20,NA,NA,NA,NA,47,30,20,1,undefined,undefined,undefined,undefined,undefined,undefined,undefined,undefined,undefined,undefined,
u691hjs9s0,undefined,undefined,undefined,undefined,48,Familiar,34,NA,NA,NA,NA,48,4,23,1,undefined,undefined,undefined,undefined,undefined,undefined,undefined,undefined,undefined,undefined,
u691hjs9s0,undefined,undefined,undefined,undefined,49,Know,2,EMILY,ALYSSA,false,5447.24499999918,49,28,4,0,undefined,undefined,undefined,undefined,undefined,undefined,undefined,undefined,undefined,undefined,
u691hjs9s0,undefined,undefined,undefined,undefined,50,Familiar,34,NA,NA,NA,NA,50,17,24,0,undefined,undefined,undefined,undefined,undefined,undefined,undefined,undefined,undefined,undefined,
u691hjs9s0,undefined,undefined,undefined,undefined,51,Know,10,SAMANTHA,NICOLE,false,2997.774999999441,51,26,17,2,undefined,undefined,undefined,undefined,undefined,undefined,undefined,undefined,undefined,undefined,
u691hjs9s0,undefined,undefined,undefined,undefined,52,Familiar,20,NA,NA,NA,NA,52,32,12,0,undefined,undefined,undefined,undefined,undefined,undefined,undefined,undefined,undefined,undefined,
u691hjs9s0,undefined,undefined,undefined,undefined,53,Familiar,17,NA,NA,NA,NA,53,25,25,2,undefined,undefined,undefined,undefined,undefined,undefined,undefined,undefined,undefined,undefined,
u691hjs9s0,undefined,undefined,undefined,undefined,54,Know,21,ELIZABETH,ELIZABETH,true,3825.979999997653,54,22,18,2,undefined,undefined,undefined,undefined,undefined,undefined,undefined,undefined,undefined,undefined,
u691hjs9s0,undefined,undefined,undefined,undefined,55,Know,6,SARAH,VICTORIA,false,7650.554999999702,55,1,34,0,undefined,undefined,undefined,undefined,undefined,undefined,undefined,undefined,undefined,undefined,
u691hjs9s0,undefined,undefined,undefined,undefined,56,Familiar,24,NA,NA,NA,NA,56,10,31,1,undefined,undefined,undefined,undefined,undefined,undefined,undefined,undefined,undefined,undefined,
u691hjs9s0,undefined,undefined,undefined,undefined,57,Know,23,SOFIA,SAMANTHA,false,5107.329999999143,57,16,14,2,undefined,undefined,undefined,undefined,undefined,undefined,undefined,undefined,undefined,undefined,
u691hjs9s0,undefined,undefined,undefined,undefined,58,Know,27,HANNAH,EMILY,false,3580.5350000010803,58,24,7,0,undefined,undefined,undefined,undefined,undefined,undefined,undefined,undefined,undefined,undefined,
u691hjs9s0,undefined,undefined,undefined,undefined,59,Familiar,28,NA,NA,NA,NA,59,19,5,2,undefined,undefined,undefined,undefined,undefined,undefined,undefined,undefined,undefined,undefined,
u691hjs9s0,undefined,undefined,undefined,undefined,60,Familiar,35,NA,NA,NA,NA,60,5,1,1,undefined,undefined,undefined,undefined,undefined,undefined,undefined,undefined,undefined,undefined,
u691hjs9s0,undefined,undefined,undefined,undefined,61,Know,33,PATRICIA,EMILY,false,4608.595000001602,61,33,10,1,undefined,undefined,undefined,undefined,undefined,undefined,undefined,undefined,undefined,undefined,
u691hjs9s0,undefined,undefined,undefined,undefined,62,Familiar,1,NA,NA,NA,NA,62,8,2,2,undefined,undefined,undefined,undefined,undefined,undefined,undefined,undefined,undefined,undefined,
u691hjs9s0,undefined,undefined,undefined,undefined,63,Familiar,9,NA,NA,NA,NA,63,15,32,2,undefined,undefined,undefined,undefined,undefined,undefined,undefined,undefined,undefined,undefined,
u691hjs9s0,undefined,undefined,undefined,undefined,64,Know,4,STEPHANIE,ALYSSA,false,7831.009999997914,64,6,36,1,undefined,undefined,undefined,undefined,undefined,undefined,undefined,undefined,undefined,undefined,
u691hjs9s0,undefined,undefined,undefined,undefined,65,Know,5,NICOLE,NICOLE,true,2675.570000003092,65,27,8,1,undefined,undefined,undefined,undefined,undefined,undefined,undefined,undefined,undefined,undefined,
u691hjs9s0,undefined,undefined,undefined,undefined,66,Familiar,32,NA,NA,NA,NA,66,9,26,0,undefined,undefined,undefined,undefined,undefined,undefined,undefined,undefined,undefined,undefined,
u691hjs9s0,undefined,undefined,undefined,undefined,67,Familiar,3,NA,NA,NA,NA,67,34,13,0,undefined,undefined,undefined,undefined,undefined,undefined,undefined,undefined,undefined,undefined,
u691hjs9s0,undefined,undefined,undefined,undefined,68,Know,36,ALYSSA,SARAH,false,4714.410000000149,68,12,29,2,undefined,undefined,undefined,undefined,undefined,undefined,undefined,undefined,undefined,undefined,
u691hjs9s0,undefined,undefined,undefined,undefined,69,Know,13,CHLOE,CHOLE,false,8443.17999999784,69,36,28,1,undefined,undefined,undefined,undefined,undefined,undefined,undefined,undefined,undefined,undefined,
u691hjs9s0,undefined,undefined,undefined,undefined,70,Familiar,14,NA,NA,NA,NA,70,11,35,2,undefined,undefined,undefined,undefined,undefined,undefined,undefined,undefined,undefined,undefined,
u691hjs9s0,undefined,undefined,undefined,undefined,71,Familiar,18,NA,NA,NA,NA,71,14,21,0,undefined,undefined,undefined,undefined,undefined,undefined,undefined,undefined,undefined,undefined,
u691hjs9s0,undefined,undefined,undefined,undefined,72,Know,30,VICTORIA,SAMANTHA,false,5008.18499999959,72,23,6,1,undefined,undefined,undefined,undefined,undefined,undefined,undefined,undefined,undefined,undefined,
u691hjs9s0,undefined,undefined,undefined,undefined,73,Familiar,3,NA,NA,NA,NA,undefined,undefined,undefined,undefined,undefined,undefined,undefined,undefined,undefined,undefined,undefined,undefined,undefined,undefined,
u691hjs9s0,undefined,undefined,undefined,undefined,74,Familiar,17,NA,NA,NA,NA,undefined,undefined,undefined,undefined,undefined,undefined,undefined,undefined,undefined,undefined,undefined,undefined,undefined,undefined,
u691hjs9s0,undefined,undefined,undefined,undefined,75,Know,21,ELIZABETH,CHLOE,false,6153.429999998771,undefined,undefined,undefined,undefined,undefined,undefined,undefined,undefined,undefined,undefined,undefined,undefined,undefined,undefined,
u691hjs9s0,undefined,undefined,undefined,undefined,76,Know,4,STEPHANIE,NICOLE,false,6982.724999997765,undefined,undefined,undefined,undefined,undefined,undefined,undefined,undefined,undefined,undefined,undefined,undefined,undefined,undefined,
u691hjs9s0,undefined,undefined,undefined,undefined,77,Familiar,1,NA,NA,NA,NA,undefined,undefined,undefined,undefined,undefined,undefined,undefined,undefined,undefined,undefined,undefined,undefined,undefined,undefined,
u691hjs9s0,undefined,undefined,undefined,undefined,78,Familiar,24,NA,NA,NA,NA,undefined,undefined,undefined,undefined,undefined,undefined,undefined,undefined,undefined,undefined,undefined,undefined,undefined,undefined,
u691hjs9s0,undefined,undefined,undefined,undefined,79,Know,2,EMILY,CHLOE,false,4420.580000001937,undefined,undefined,undefined,undefined,undefined,undefined,undefined,undefined,undefined,undefined,undefined,undefined,undefined,undefined,
u691hjs9s0,undefined,undefined,undefined,undefined,80,Familiar,20,NA,NA,NA,NA,undefined,undefined,undefined,undefined,undefined,undefined,undefined,undefined,undefined,undefined,undefined,undefined,undefined,undefined,
u691hjs9s0,undefined,undefined,undefined,undefined,81,Know,27,HANNAH,HANNAH,true,3558.5199999986216,undefined,undefined,undefined,undefined,undefined,undefined,undefined,undefined,undefined,undefined,undefined,undefined,undefined,undefined,
u691hjs9s0,undefined,undefined,undefined,undefined,82,Familiar,34,NA,NA,NA,NA,undefined,undefined,undefined,undefined,undefined,undefined,undefined,undefined,undefined,undefined,undefined,undefined,undefined,undefined,
u691hjs9s0,undefined,undefined,undefined,undefined,83,Know,36,ALYSSA,CHLOE,false,8428.980000000447,undefined,undefined,undefined,undefined,undefined,undefined,undefined,undefined,undefined,undefined,undefined,undefined,undefined,undefined,
u691hjs9s0,undefined,undefined,undefined,undefined,84,Familiar,18,NA,NA,NA,NA,undefined,undefined,undefined,undefined,undefined,undefined,undefined,undefined,undefined,undefined,undefined,undefined,undefined,undefined,
u691hjs9s0,undefined,undefined,undefined,undefined,85,Familiar,32,NA,NA,NA,NA,undefined,undefined,undefined,undefined,undefined,undefined,undefined,undefined,undefined,undefined,undefined,undefined,undefined,undefined,
u691hjs9s0,undefined,undefined,undefined,undefined,86,Know,33,PATRICIA,SAMANTHA,false,6832.239999999292,undefined,undefined,undefined,undefined,undefined,undefined,undefined,undefined,undefined,undefined,undefined,undefined,undefined,undefined,
u691hjs9s0,undefined,undefined,undefined,undefined,87,Know,6,SARAH,SAMANTHA,false,2221.2300000023097,undefined,undefined,undefined,undefined,undefined,undefined,undefined,undefined,undefined,undefined,undefined,undefined,undefined,undefined,
u691hjs9s0,undefined,undefined,undefined,undefined,88,Familiar,35,NA,NA,NA,NA,undefined,undefined,undefined,undefined,undefined,undefined,undefined,undefined,undefined,undefined,undefined,undefined,undefined,undefined,
u691hjs9s0,undefined,undefined,undefined,undefined,89,Familiar,9,NA,NA,NA,NA,undefined,undefined,undefined,undefined,undefined,undefined,undefined,undefined,undefined,undefined,undefined,undefined,undefined,undefined,
u691hjs9s0,undefined,undefined,undefined,undefined,90,Know,10,SAMANTHA,VICTORIA,false,4824.600000000559,undefined,undefined,undefined,undefined,undefined,undefined,undefined,undefined,undefined,undefined,undefined,undefined,undefined,undefined,
u691hjs9s0,undefined,undefined,undefined,undefined,91,Familiar,28,NA,NA,NA,NA,undefined,undefined,undefined,undefined,undefined,undefined,undefined,undefined,undefined,undefined,undefined,undefined,undefined,undefined,
u691hjs9s0,undefined,undefined,undefined,undefined,92,Know,30,VICTORIA,CHLOE,false,9955.330000001006,undefined,undefined,undefined,undefined,undefined,undefined,undefined,undefined,undefined,undefined,undefined,undefined,undefined,undefined,
u691hjs9s0,undefined,undefined,undefined,undefined,93,Know,5,NICOLE,NICOLE,true,6899.365000001155,undefined,undefined,undefined,undefined,undefined,undefined,undefined,undefined,undefined,undefined,undefined,undefined,undefined,undefined,
u691hjs9s0,undefined,undefined,undefined,undefined,94,Familiar,14,NA,NA,NA,NA,undefined,undefined,undefined,undefined,undefined,undefined,undefined,undefined,undefined,undefined,undefined,undefined,undefined,undefined,
u691hjs9s0,undefined,undefined,undefined,undefined,95,Know,23,SOFIA,EMILY,false,6608.125000002794,undefined,undefined,undefined,undefined,undefined,undefined,undefined,undefined,undefined,undefined,undefined,undefined,undefined,undefined,
u691hjs9s0,undefined,undefined,undefined,undefined,96,Know,13,CHLOE,EMILY,false,3593.3100000005215,undefined,undefined,undefined,undefined,undefined,undefined,undefined,undefined,undefined,undefined,undefined,undefined,undefined,undefined,
