SubNum,SubNum_demo,Exp_start_time,Exp_today_date,Exp_today_time,TrialNum,Condition,Face,Name,Response,NameAcc,RespTime,StudyTrialNum,StudyFace,StudyContext,StudyFamCond,TestTrialNum,TestFace,TestContext,TestSDCond,TestFamCond,TestResponse,TestResponseTime,Exp_end_time,Distractor_1_duration,Distractor_2_duration,
o8z9e3uam7,w5oc7t943c,Mon Oct 26 2020 17:30:56 GMT-0500 (Central Daylight Time),2020-10-26,17:30:56,1,Familiar,28,NA,NA,NA,NA,1,11,22,0,1,16,20,0,2,0,11819.844999932684,17:57:27,121318.96499998402,111526.42999996897,
o8z9e3uam7,undefined,undefined,undefined,undefined,2,Know,27,ELIZABETH,ELIZABETH,true,10839.589999988675,2,34,9,2,2,21,9,1,2,1,3635.590000078082,undefined,undefined,undefined,
o8z9e3uam7,undefined,undefined,undefined,undefined,3,Familiar,20,NA,NA,NA,NA,3,36,3,2,3,31,5,0,2,1,2918.614999973215,undefined,undefined,undefined,
o8z9e3uam7,undefined,undefined,undefined,undefined,4,Know,23,ZOEY,ZOEY,true,4049.9500000150874,4,20,14,0,4,9,7,0,2,1,2115.500000072643,undefined,undefined,undefined,
o8z9e3uam7,undefined,undefined,undefined,undefined,5,Know,3,HANNAH,HANNAH,true,3177.7849999489263,5,26,1,0,5,11,21,1,0,1,3302.170000039041,undefined,undefined,undefined,
o8z9e3uam7,undefined,undefined,undefined,undefined,6,Familiar,30,NA,NA,NA,NA,6,6,2,1,6,24,8,1,1,1,26174.029999994673,undefined,undefined,undefined,
o8z9e3uam7,undefined,undefined,undefined,undefined,7,Familiar,26,NA,NA,NA,NA,7,33,24,0,7,4,27,0,2,0,1963.8900000136346,undefined,undefined,undefined,
o8z9e3uam7,undefined,undefined,undefined,undefined,8,Know,8,HAZEL,HAZEL,true,1786.824999959208,8,9,7,2,8,29,28,1,1,0,3090.8350000390783,undefined,undefined,undefined,
o8z9e3uam7,undefined,undefined,undefined,undefined,9,Familiar,12,NA,NA,NA,NA,9,16,20,2,9,17,17,0,1,0,6924.159999936819,undefined,undefined,undefined,
o8z9e3uam7,undefined,undefined,undefined,undefined,10,Know,17,MADISON,MADISON,true,1654.8400000901893,10,12,11,0,10,14,2,1,1,1,6019.22499993816,undefined,undefined,undefined,
o8z9e3uam7,undefined,undefined,undefined,undefined,11,Know,19,VICTORIA,VICTORIA,true,2611.7749999975786,11,25,35,2,11,1,10,0,2,0,1576.6350000631064,undefined,undefined,undefined,
o8z9e3uam7,undefined,undefined,undefined,undefined,12,Familiar,33,NA,NA,NA,NA,12,8,15,1,12,6,31,1,1,1,2716.4049999555573,undefined,undefined,undefined,
o8z9e3uam7,undefined,undefined,undefined,undefined,13,Familiar,5,NA,NA,NA,NA,13,30,4,0,13,23,26,0,1,1,9191.279999911785,undefined,undefined,undefined,
o8z9e3uam7,undefined,undefined,undefined,undefined,14,Know,13,ASHLEY,ASHLEY,true,1937.7399999648333,14,14,31,1,14,28,19,0,0,0,2733.214999898337,undefined,undefined,undefined,
o8z9e3uam7,undefined,undefined,undefined,undefined,15,Familiar,7,NA,NA,NA,NA,15,19,6,1,15,34,12,1,2,1,6444.980000029318,undefined,undefined,undefined,
o8z9e3uam7,undefined,undefined,undefined,undefined,16,Know,22,NANCY,NANCY,true,1483.8849999941885,16,15,34,0,16,25,23,1,2,1,22287.79999993276,undefined,undefined,undefined,
o8z9e3uam7,undefined,undefined,undefined,undefined,17,Familiar,11,NA,NA,NA,NA,17,3,30,1,17,10,22,1,0,1,10724.144999985583,undefined,undefined,undefined,
o8z9e3uam7,undefined,undefined,undefined,undefined,18,Familiar,10,NA,NA,NA,NA,18,32,33,2,18,30,4,0,0,0,8574.60000005085,undefined,undefined,undefined,
o8z9e3uam7,undefined,undefined,undefined,undefined,19,Know,6,NICOLE,NICOLE,true,1456.4450000179932,19,31,5,2,19,5,34,1,0,1,2976.314999978058,undefined,undefined,undefined,
o8z9e3uam7,undefined,undefined,undefined,undefined,20,Know,14,JESSICA,JESSICA,true,1998.9150000037625,20,5,32,0,20,13,25,1,1,1,10138.509999960661,undefined,undefined,undefined,
o8z9e3uam7,undefined,undefined,undefined,undefined,21,Familiar,35,NA,NA,NA,NA,21,10,21,0,21,15,32,1,0,1,4858.525000046939,undefined,undefined,undefined,
o8z9e3uam7,undefined,undefined,undefined,undefined,22,Familiar,15,NA,NA,NA,NA,22,17,17,1,22,22,36,1,1,1,2348.4300000127405,undefined,undefined,undefined,
o8z9e3uam7,undefined,undefined,undefined,undefined,23,Know,24,GRACE,GRACE,true,1801.8050000537187,23,1,10,2,23,2,35,1,2,0,8343.445000005886,undefined,undefined,undefined,
o8z9e3uam7,undefined,undefined,undefined,undefined,24,Know,29,COURTNEY,COURTNEY,true,1817.159999976866,24,21,12,2,24,20,14,0,0,0,3425.5400000838563,undefined,undefined,undefined,
o8z9e3uam7,undefined,undefined,undefined,undefined,25,Familiar,11,NA,NA,NA,NA,25,27,29,1,25,32,3,1,2,1,4900.439999997616,undefined,undefined,undefined,
o8z9e3uam7,undefined,undefined,undefined,undefined,26,Know,19,VICTORIA,ELIZABETH,false,8642.68000004813,26,18,16,2,26,18,16,0,2,0,8889.079999993555,undefined,undefined,undefined,
o8z9e3uam7,undefined,undefined,undefined,undefined,27,Know,8,HAZEL,NANCY,false,3755.475000012666,27,7,13,0,27,36,33,1,2,1,7600.090000079945,undefined,undefined,undefined,
o8z9e3uam7,undefined,undefined,undefined,undefined,28,Familiar,33,NA,NA,NA,NA,28,13,36,1,28,8,15,0,1,0,2457.9950000625104,undefined,undefined,undefined,
o8z9e3uam7,undefined,undefined,undefined,undefined,29,Know,29,COURTNEY,HAZEL,false,11445.275000063702,29,2,23,2,29,7,18,1,0,1,6836.269999970682,undefined,undefined,undefined,
o8z9e3uam7,undefined,undefined,undefined,undefined,30,Know,24,GRACE,GRACE,true,3303.139999974519,30,24,28,1,30,27,29,0,1,0,3336.43500006292,undefined,undefined,undefined,
o8z9e3uam7,undefined,undefined,undefined,undefined,31,Familiar,12,NA,NA,NA,NA,31,35,18,0,31,12,11,0,0,0,5025.6850000005215,undefined,undefined,undefined,
o8z9e3uam7,undefined,undefined,undefined,undefined,32,Know,17,MADISON,MADISON,true,4330.200000084005,32,22,25,1,32,33,24,0,0,0,11303.824999951757,undefined,undefined,undefined,
o8z9e3uam7,undefined,undefined,undefined,undefined,33,Familiar,30,NA,NA,NA,NA,33,4,27,2,33,35,13,1,0,1,5486.7349999258295,undefined,undefined,undefined,
o8z9e3uam7,undefined,undefined,undefined,undefined,34,Know,27,ELIZABETH,NICOLE,false,4177.060000016354,34,23,26,1,34,19,6,0,1,1,1314.3350000027567,undefined,undefined,undefined,
o8z9e3uam7,undefined,undefined,undefined,undefined,35,Familiar,20,NA,NA,NA,NA,35,28,19,0,35,3,30,0,1,0,6938.414999982342,undefined,undefined,undefined,
o8z9e3uam7,undefined,undefined,undefined,undefined,36,Know,14,JESSICA,NANCY,false,4167.149999993853,36,29,8,1,36,26,1,0,0,0,3424.93499990087,undefined,undefined,undefined,
o8z9e3uam7,undefined,undefined,undefined,undefined,37,Familiar,28,NA,NA,NA,NA,37,18,16,2,undefined,undefined,undefined,undefined,undefined,undefined,undefined,undefined,undefined,undefined,
o8z9e3uam7,undefined,undefined,undefined,undefined,38,Know,23,ZOEY,OLIVIA,false,13006.229999940842,38,31,5,2,undefined,undefined,undefined,undefined,undefined,undefined,undefined,undefined,undefined,undefined,
o8z9e3uam7,undefined,undefined,undefined,undefined,39,Familiar,7,NA,NA,NA,NA,39,12,11,0,undefined,undefined,undefined,undefined,undefined,undefined,undefined,undefined,undefined,undefined,
o8z9e3uam7,undefined,undefined,undefined,undefined,40,Know,6,NICOLE,NICOLE,true,7612.7449999330565,40,10,21,0,undefined,undefined,undefined,undefined,undefined,undefined,undefined,undefined,undefined,undefined,
o8z9e3uam7,undefined,undefined,undefined,undefined,41,Know,3,HANNAH,OLIVIA,false,7503.935000044294,41,24,28,1,undefined,undefined,undefined,undefined,undefined,undefined,undefined,undefined,undefined,undefined,
o8z9e3uam7,undefined,undefined,undefined,undefined,42,Familiar,10,NA,NA,NA,NA,42,8,15,1,undefined,undefined,undefined,undefined,undefined,undefined,undefined,undefined,undefined,undefined,
o8z9e3uam7,undefined,undefined,undefined,undefined,43,Familiar,35,NA,NA,NA,NA,43,25,35,2,undefined,undefined,undefined,undefined,undefined,undefined,undefined,undefined,undefined,undefined,
o8z9e3uam7,undefined,undefined,undefined,undefined,44,Know,13,ASHLEY,OLIVIA,false,7596.710000070743,44,32,33,2,undefined,undefined,undefined,undefined,undefined,undefined,undefined,undefined,undefined,undefined,
o8z9e3uam7,undefined,undefined,undefined,undefined,45,Familiar,5,NA,NA,NA,NA,45,35,18,0,undefined,undefined,undefined,undefined,undefined,undefined,undefined,undefined,undefined,undefined,
o8z9e3uam7,undefined,undefined,undefined,undefined,46,Familiar,15,NA,NA,NA,NA,46,2,23,2,undefined,undefined,undefined,undefined,undefined,undefined,undefined,undefined,undefined,undefined,
o8z9e3uam7,undefined,undefined,undefined,undefined,47,Know,22,NANCY,OLIVIA,false,9537.894999957643,47,14,31,1,undefined,undefined,undefined,undefined,undefined,undefined,undefined,undefined,undefined,undefined,
o8z9e3uam7,undefined,undefined,undefined,undefined,48,Familiar,26,NA,NA,NA,NA,48,11,22,0,undefined,undefined,undefined,undefined,undefined,undefined,undefined,undefined,undefined,undefined,
o8z9e3uam7,undefined,undefined,undefined,undefined,49,Know,3,HANNAH,HANNAH,true,4249.690000084229,49,26,1,0,undefined,undefined,undefined,undefined,undefined,undefined,undefined,undefined,undefined,undefined,
o8z9e3uam7,undefined,undefined,undefined,undefined,50,Familiar,20,NA,NA,NA,NA,50,27,29,1,undefined,undefined,undefined,undefined,undefined,undefined,undefined,undefined,undefined,undefined,
o8z9e3uam7,undefined,undefined,undefined,undefined,51,Know,14,JESSICA,ASHLEY,false,11115.549999987707,51,33,24,0,undefined,undefined,undefined,undefined,undefined,undefined,undefined,undefined,undefined,undefined,
o8z9e3uam7,undefined,undefined,undefined,undefined,52,Know,8,HAZEL,ASHLEY,false,5882.489999989048,52,19,6,1,undefined,undefined,undefined,undefined,undefined,undefined,undefined,undefined,undefined,undefined,
o8z9e3uam7,undefined,undefined,undefined,undefined,53,Familiar,35,NA,NA,NA,NA,53,22,25,1,undefined,undefined,undefined,undefined,undefined,undefined,undefined,undefined,undefined,undefined,
o8z9e3uam7,undefined,undefined,undefined,undefined,54,Know,19,VICTORIA,NACY,false,8179.740000050515,54,30,4,0,undefined,undefined,undefined,undefined,undefined,undefined,undefined,undefined,undefined,undefined,
o8z9e3uam7,undefined,undefined,undefined,undefined,55,Familiar,28,NA,NA,NA,NA,55,29,8,1,undefined,undefined,undefined,undefined,undefined,undefined,undefined,undefined,undefined,undefined,
o8z9e3uam7,undefined,undefined,undefined,undefined,56,Know,23,ZOEY,JESSICA,false,4550.38999998942,56,1,10,2,undefined,undefined,undefined,undefined,undefined,undefined,undefined,undefined,undefined,undefined,
o8z9e3uam7,undefined,undefined,undefined,undefined,57,Familiar,11,NA,NA,NA,NA,57,7,13,0,undefined,undefined,undefined,undefined,undefined,undefined,undefined,undefined,undefined,undefined,
o8z9e3uam7,undefined,undefined,undefined,undefined,58,Familiar,26,NA,NA,NA,NA,58,20,14,0,undefined,undefined,undefined,undefined,undefined,undefined,undefined,undefined,undefined,undefined,
o8z9e3uam7,undefined,undefined,undefined,undefined,59,Know,17,MADISON,MADISON,true,3263.990000006743,59,13,36,1,undefined,undefined,undefined,undefined,undefined,undefined,undefined,undefined,undefined,undefined,
o8z9e3uam7,undefined,undefined,undefined,undefined,60,Familiar,15,NA,NA,NA,NA,60,34,9,2,undefined,undefined,undefined,undefined,undefined,undefined,undefined,undefined,undefined,undefined,
o8z9e3uam7,undefined,undefined,undefined,undefined,61,Familiar,10,NA,NA,NA,NA,61,28,19,0,undefined,undefined,undefined,undefined,undefined,undefined,undefined,undefined,undefined,undefined,
o8z9e3uam7,undefined,undefined,undefined,undefined,62,Know,22,NANCY,ZOEY,false,7653.070000000298,62,5,32,0,undefined,undefined,undefined,undefined,undefined,undefined,undefined,undefined,undefined,undefined,
o8z9e3uam7,undefined,undefined,undefined,undefined,63,Familiar,7,NA,NA,NA,NA,63,16,20,2,undefined,undefined,undefined,undefined,undefined,undefined,undefined,undefined,undefined,undefined,
o8z9e3uam7,undefined,undefined,undefined,undefined,64,Know,24,GRACE,COURTNEY,false,3842.880000011064,64,9,7,2,undefined,undefined,undefined,undefined,undefined,undefined,undefined,undefined,undefined,undefined,
o8z9e3uam7,undefined,undefined,undefined,undefined,65,Familiar,33,NA,NA,NA,NA,65,17,17,1,undefined,undefined,undefined,undefined,undefined,undefined,undefined,undefined,undefined,undefined,
o8z9e3uam7,undefined,undefined,undefined,undefined,66,Familiar,12,NA,NA,NA,NA,66,3,30,1,undefined,undefined,undefined,undefined,undefined,undefined,undefined,undefined,undefined,undefined,
o8z9e3uam7,undefined,undefined,undefined,undefined,67,Know,6,NICOLE,HAZEL,false,5389.049999997951,67,36,3,2,undefined,undefined,undefined,undefined,undefined,undefined,undefined,undefined,undefined,undefined,
o8z9e3uam7,undefined,undefined,undefined,undefined,68,Familiar,5,NA,NA,NA,NA,68,4,27,2,undefined,undefined,undefined,undefined,undefined,undefined,undefined,undefined,undefined,undefined,
o8z9e3uam7,undefined,undefined,undefined,undefined,69,Know,27,ELIZABETH,HAZEL,false,8230.920000001788,69,6,2,1,undefined,undefined,undefined,undefined,undefined,undefined,undefined,undefined,undefined,undefined,
o8z9e3uam7,undefined,undefined,undefined,undefined,70,Know,13,ASHLEY,HAZEL,false,5094.83000007458,70,23,26,1,undefined,undefined,undefined,undefined,undefined,undefined,undefined,undefined,undefined,undefined,
o8z9e3uam7,undefined,undefined,undefined,undefined,71,Familiar,30,NA,NA,NA,NA,71,15,34,0,undefined,undefined,undefined,undefined,undefined,undefined,undefined,undefined,undefined,undefined,
o8z9e3uam7,undefined,undefined,undefined,undefined,72,Know,29,COURTNEY,NICOLE,false,4958.525000023656,72,21,12,2,undefined,undefined,undefined,undefined,undefined,undefined,undefined,undefined,undefined,undefined,
o8z9e3uam7,undefined,undefined,undefined,undefined,73,Familiar,12,NA,NA,NA,NA,undefined,undefined,undefined,undefined,undefined,undefined,undefined,undefined,undefined,undefined,undefined,undefined,undefined,undefined,
o8z9e3uam7,undefined,undefined,undefined,undefined,74,Know,3,HANNAH,HANNAH,true,3714.9999999674037,undefined,undefined,undefined,undefined,undefined,undefined,undefined,undefined,undefined,undefined,undefined,undefined,undefined,undefined,
o8z9e3uam7,undefined,undefined,undefined,undefined,75,Know,29,COURTNEY,COURTNEY,true,5007.194999954663,undefined,undefined,undefined,undefined,undefined,undefined,undefined,undefined,undefined,undefined,undefined,undefined,undefined,undefined,
o8z9e3uam7,undefined,undefined,undefined,undefined,76,Familiar,28,NA,NA,NA,NA,undefined,undefined,undefined,undefined,undefined,undefined,undefined,undefined,undefined,undefined,undefined,undefined,undefined,undefined,
o8z9e3uam7,undefined,undefined,undefined,undefined,77,Know,8,HAZEL,HAZEL,true,6619.96000004001,undefined,undefined,undefined,undefined,undefined,undefined,undefined,undefined,undefined,undefined,undefined,undefined,undefined,undefined,
o8z9e3uam7,undefined,undefined,undefined,undefined,78,Know,17,MADISON,MADISON,true,3581.5750000765547,undefined,undefined,undefined,undefined,undefined,undefined,undefined,undefined,undefined,undefined,undefined,undefined,undefined,undefined,
o8z9e3uam7,undefined,undefined,undefined,undefined,79,Familiar,11,NA,NA,NA,NA,undefined,undefined,undefined,undefined,undefined,undefined,undefined,undefined,undefined,undefined,undefined,undefined,undefined,undefined,
o8z9e3uam7,undefined,undefined,undefined,undefined,80,Know,14,JESSICA,NANCY,false,6556.274999980815,undefined,undefined,undefined,undefined,undefined,undefined,undefined,undefined,undefined,undefined,undefined,undefined,undefined,undefined,
o8z9e3uam7,undefined,undefined,undefined,undefined,81,Know,19,VICTORIA,GRACE,false,10383.514999994077,undefined,undefined,undefined,undefined,undefined,undefined,undefined,undefined,undefined,undefined,undefined,undefined,undefined,undefined,
o8z9e3uam7,undefined,undefined,undefined,undefined,82,Familiar,26,NA,NA,NA,NA,undefined,undefined,undefined,undefined,undefined,undefined,undefined,undefined,undefined,undefined,undefined,undefined,undefined,undefined,
o8z9e3uam7,undefined,undefined,undefined,undefined,83,Familiar,15,NA,NA,NA,NA,undefined,undefined,undefined,undefined,undefined,undefined,undefined,undefined,undefined,undefined,undefined,undefined,undefined,undefined,
o8z9e3uam7,undefined,undefined,undefined,undefined,84,Know,27,ELIZABETH,HAZEL,false,12191.885000094771,undefined,undefined,undefined,undefined,undefined,undefined,undefined,undefined,undefined,undefined,undefined,undefined,undefined,undefined,
o8z9e3uam7,undefined,undefined,undefined,undefined,85,Know,24,GRACE,GRACE,true,8781.169999972917,undefined,undefined,undefined,undefined,undefined,undefined,undefined,undefined,undefined,undefined,undefined,undefined,undefined,undefined,
o8z9e3uam7,undefined,undefined,undefined,undefined,86,Familiar,7,NA,NA,NA,NA,undefined,undefined,undefined,undefined,undefined,undefined,undefined,undefined,undefined,undefined,undefined,undefined,undefined,undefined,
o8z9e3uam7,undefined,undefined,undefined,undefined,87,Familiar,5,NA,NA,NA,NA,undefined,undefined,undefined,undefined,undefined,undefined,undefined,undefined,undefined,undefined,undefined,undefined,undefined,undefined,
o8z9e3uam7,undefined,undefined,undefined,undefined,88,Know,6,NICOLE,ASHLEY,false,9674.64999994263,undefined,undefined,undefined,undefined,undefined,undefined,undefined,undefined,undefined,undefined,undefined,undefined,undefined,undefined,
o8z9e3uam7,undefined,undefined,undefined,undefined,89,Know,23,ZOEY,NANCY,false,13192.460000049323,undefined,undefined,undefined,undefined,undefined,undefined,undefined,undefined,undefined,undefined,undefined,undefined,undefined,undefined,
o8z9e3uam7,undefined,undefined,undefined,undefined,90,Familiar,30,NA,NA,NA,NA,undefined,undefined,undefined,undefined,undefined,undefined,undefined,undefined,undefined,undefined,undefined,undefined,undefined,undefined,
o8z9e3uam7,undefined,undefined,undefined,undefined,91,Familiar,10,NA,NA,NA,NA,undefined,undefined,undefined,undefined,undefined,undefined,undefined,undefined,undefined,undefined,undefined,undefined,undefined,undefined,
o8z9e3uam7,undefined,undefined,undefined,undefined,92,Know,13,ASHLEY,ASHLEY,true,9376.029999926686,undefined,undefined,undefined,undefined,undefined,undefined,undefined,undefined,undefined,undefined,undefined,undefined,undefined,undefined,
o8z9e3uam7,undefined,undefined,undefined,undefined,93,Familiar,20,NA,NA,NA,NA,undefined,undefined,undefined,undefined,undefined,undefined,undefined,undefined,undefined,undefined,undefined,undefined,undefined,undefined,
o8z9e3uam7,undefined,undefined,undefined,undefined,94,Know,22,NANCY,NANCY,true,30258.33999994211,undefined,undefined,undefined,undefined,undefined,undefined,undefined,undefined,undefined,undefined,undefined,undefined,undefined,undefined,
o8z9e3uam7,undefined,undefined,undefined,undefined,95,Familiar,33,NA,NA,NA,NA,undefined,undefined,undefined,undefined,undefined,undefined,undefined,undefined,undefined,undefined,undefined,undefined,undefined,undefined,
o8z9e3uam7,undefined,undefined,undefined,undefined,96,Familiar,35,NA,NA,NA,NA,undefined,undefined,undefined,undefined,undefined,undefined,undefined,undefined,undefined,undefined,undefined,undefined,undefined,undefined,
