SubNum,SubNum_demo,Exp_start_time,Exp_today_date,Exp_today_time,TrialNum,Condition,Face,Name,Response,NameAcc,RespTime,StudyTrialNum,StudyFace,StudyContext,StudyFamCond,TestTrialNum,TestFace,TestContext,TestSDCond,TestFamCond,TestResponse,TestResponseTime,Exp_end_time,Distractor_1_duration,Distractor_2_duration,
3msgw0ltad,bp6q0q6l6a,Thu Oct 22 2020 11:25:41 GMT-0700 (Pacific Daylight Time),2020-10-22,11:25:41,1,Know,2,HANNAH,HANNAH,true,2316.8350000632927,1,27,18,0,1,29,9,0,1,0,2460.259999963455,11:47:11,120898.98499997798,63807.165000005625,
3msgw0ltad,undefined,undefined,undefined,undefined,2,Know,13,SOFIA,SOFIA,true,6465.855000074953,2,21,10,0,2,17,23,0,1,1,2438.0449999589473,undefined,undefined,undefined,
3msgw0ltad,undefined,undefined,undefined,undefined,3,Familiar,34,NA,NA,NA,NA,3,12,34,1,3,31,35,0,2,0,2425.899999914691,undefined,undefined,undefined,
3msgw0ltad,undefined,undefined,undefined,undefined,4,Familiar,21,NA,NA,NA,NA,4,33,17,1,4,6,33,0,2,0,1401.2250000378117,undefined,undefined,undefined,
3msgw0ltad,undefined,undefined,undefined,undefined,5,Know,17,GRACE,GRACE,true,3524.305000086315,5,5,15,2,5,11,5,1,2,0,1290.1549999369308,undefined,undefined,undefined,
3msgw0ltad,undefined,undefined,undefined,undefined,6,Know,19,LISA,LISA,true,1285.8000000705943,6,29,9,1,6,27,18,0,0,0,1402.3999999044463,undefined,undefined,undefined,
3msgw0ltad,undefined,undefined,undefined,undefined,7,Familiar,26,NA,NA,NA,NA,7,1,14,0,7,19,3,0,1,0,1865.9699999261647,undefined,undefined,undefined,
3msgw0ltad,undefined,undefined,undefined,undefined,8,Know,29,NANCY,NANCY,true,1763.245000038296,8,30,6,1,8,36,16,1,1,0,1719.844999955967,undefined,undefined,undefined,
3msgw0ltad,undefined,undefined,undefined,undefined,9,Know,33,MADISON,MADISON,true,4817.230000044219,9,36,29,1,9,20,14,1,0,1,1333.9799999957904,undefined,undefined,undefined,
3msgw0ltad,undefined,undefined,undefined,undefined,10,Familiar,27,NA,NA,NA,NA,10,10,32,2,10,16,7,0,0,0,1274.0100000519305,undefined,undefined,undefined,
3msgw0ltad,undefined,undefined,undefined,undefined,11,Know,12,CHLOE,CHLOE,true,2705.0100000342354,11,6,33,2,11,15,2,1,2,1,1298.450000002049,undefined,undefined,undefined,
3msgw0ltad,undefined,undefined,undefined,undefined,12,Familiar,24,NA,NA,NA,NA,12,26,30,0,12,26,30,0,0,0,1256.8650000030175,undefined,undefined,undefined,
3msgw0ltad,undefined,undefined,undefined,undefined,13,Familiar,16,NA,NA,NA,NA,13,4,11,0,13,32,29,1,1,1,2790.335000026971,undefined,undefined,undefined,
3msgw0ltad,undefined,undefined,undefined,undefined,14,Know,36,AUDREY,AUDREY,true,2579.3200000189245,14,19,3,1,14,23,31,0,2,1,1028.485000017099,undefined,undefined,undefined,
3msgw0ltad,undefined,undefined,undefined,undefined,15,Familiar,20,NA,NA,NA,NA,15,11,2,2,15,18,26,1,1,1,2392.8999999770895,undefined,undefined,undefined,
3msgw0ltad,undefined,undefined,undefined,undefined,16,Familiar,3,NA,NA,NA,NA,16,22,21,0,16,2,28,0,1,0,1198.2250000583008,undefined,undefined,undefined,
3msgw0ltad,undefined,undefined,undefined,undefined,17,Know,32,MEGAN,MEGAN,true,2845.8600000012666,17,24,19,0,17,13,20,0,1,0,1241.13999994006,undefined,undefined,undefined,
3msgw0ltad,undefined,undefined,undefined,undefined,18,Familiar,4,NA,NA,NA,NA,18,7,24,2,18,10,15,1,2,0,523.7300000153482,undefined,undefined,undefined,
3msgw0ltad,undefined,undefined,undefined,undefined,19,Know,18,SARAH,SARAH,true,1811.5299999481067,19,8,13,2,19,33,17,0,1,0,1261.0799999674782,undefined,undefined,undefined,
3msgw0ltad,undefined,undefined,undefined,undefined,20,Know,30,VICTORIA,VICTORIA,true,2186.2650000257418,20,34,27,0,20,34,27,0,0,0,1406.360000022687,undefined,undefined,undefined,
3msgw0ltad,undefined,undefined,undefined,undefined,21,Familiar,35,NA,NA,NA,NA,21,17,23,1,21,1,22,1,0,1,1313.0249999230728,undefined,undefined,undefined,
3msgw0ltad,undefined,undefined,undefined,undefined,22,Know,14,HAZEL,HANNAH,false,7789.489999995567,22,3,25,0,22,3,11,1,0,0,1352.8250000672415,undefined,undefined,undefined,
3msgw0ltad,undefined,undefined,undefined,undefined,23,Familiar,22,NA,NA,NA,NA,23,31,35,2,23,4,25,1,0,0,1559.914999990724,undefined,undefined,undefined,
3msgw0ltad,undefined,undefined,undefined,undefined,24,Familiar,1,NA,NA,NA,NA,24,32,16,1,24,5,32,1,2,1,982.0749999489635,undefined,undefined,undefined,
3msgw0ltad,undefined,undefined,undefined,undefined,25,Know,29,NANCY,GRACE,false,3486.64000001736,25,35,8,0,25,28,12,0,2,0,1300.8250000420958,undefined,undefined,undefined,
3msgw0ltad,undefined,undefined,undefined,undefined,26,Familiar,20,NA,NA,NA,NA,26,20,22,0,26,24,19,0,0,0,1454.2849999852479,undefined,undefined,undefined,
3msgw0ltad,undefined,undefined,undefined,undefined,27,Know,19,LISA,HAZEL,false,9459.294999949634,27,28,12,2,27,14,4,1,1,0,2308.6649999022484,undefined,undefined,undefined,
3msgw0ltad,undefined,undefined,undefined,undefined,28,Familiar,1,NA,NA,NA,NA,28,2,28,1,28,21,10,0,0,0,2141.369999968447,undefined,undefined,undefined,
3msgw0ltad,undefined,undefined,undefined,undefined,29,Familiar,27,NA,NA,NA,NA,29,18,4,1,29,30,34,1,1,0,1249.3600000161678,undefined,undefined,undefined,
3msgw0ltad,undefined,undefined,undefined,undefined,30,Know,18,SARAH,GRACE,false,4057.249999954365,30,9,1,2,30,9,1,0,2,1,2075.2999999094754,undefined,undefined,undefined,
3msgw0ltad,undefined,undefined,undefined,undefined,31,Familiar,22,NA,NA,NA,NA,31,23,31,2,31,7,24,0,2,0,2673.0400000233203,undefined,undefined,undefined,
3msgw0ltad,undefined,undefined,undefined,undefined,32,Know,36,AUDREY,HAZEL,false,3539.4450000021607,32,13,20,1,32,8,36,1,2,1,1509.0049999998882,undefined,undefined,undefined,
3msgw0ltad,undefined,undefined,undefined,undefined,33,Know,13,SOFIA,CHLOE,false,5910.859999945387,33,16,7,0,33,22,8,1,0,1,3586.215000017546,undefined,undefined,undefined,
3msgw0ltad,undefined,undefined,undefined,undefined,34,Familiar,35,NA,NA,NA,NA,34,25,36,2,34,12,6,1,1,0,2111.7799999192357,undefined,undefined,undefined,
3msgw0ltad,undefined,undefined,undefined,undefined,35,Familiar,24,NA,NA,NA,NA,35,14,26,1,35,25,13,1,2,0,4533.309999969788,undefined,undefined,undefined,
3msgw0ltad,undefined,undefined,undefined,undefined,36,Know,12,CHLOE,GRACE,false,2193.055000039749,36,15,5,2,36,35,21,1,0,0,1903.3849999541417,undefined,undefined,undefined,
3msgw0ltad,undefined,undefined,undefined,undefined,37,Familiar,16,NA,NA,NA,NA,37,28,12,2,undefined,undefined,undefined,undefined,undefined,undefined,undefined,undefined,undefined,undefined,
3msgw0ltad,undefined,undefined,undefined,undefined,38,Know,2,HANNAH,GRCAE,false,4548.925000010058,38,14,26,1,undefined,undefined,undefined,undefined,undefined,undefined,undefined,undefined,undefined,undefined,
3msgw0ltad,undefined,undefined,undefined,undefined,39,Familiar,3,NA,NA,NA,NA,39,15,5,2,undefined,undefined,undefined,undefined,undefined,undefined,undefined,undefined,undefined,undefined,
3msgw0ltad,undefined,undefined,undefined,undefined,40,Know,14,HAZEL,LISA,false,5368.885000003502,40,13,20,1,undefined,undefined,undefined,undefined,undefined,undefined,undefined,undefined,undefined,undefined,
3msgw0ltad,undefined,undefined,undefined,undefined,41,Familiar,34,NA,NA,NA,NA,41,30,6,1,undefined,undefined,undefined,undefined,undefined,undefined,undefined,undefined,undefined,undefined,
3msgw0ltad,undefined,undefined,undefined,undefined,42,Familiar,4,NA,NA,NA,NA,42,27,18,0,undefined,undefined,undefined,undefined,undefined,undefined,undefined,undefined,undefined,undefined,
3msgw0ltad,undefined,undefined,undefined,undefined,43,Know,17,GRACE,GRACE,true,3389.25999996718,43,29,9,1,undefined,undefined,undefined,undefined,undefined,undefined,undefined,undefined,undefined,undefined,
3msgw0ltad,undefined,undefined,undefined,undefined,44,Know,30,VICTORIA,AUDREY,false,3405.6300000520423,44,9,1,2,undefined,undefined,undefined,undefined,undefined,undefined,undefined,undefined,undefined,undefined,
3msgw0ltad,undefined,undefined,undefined,undefined,45,Familiar,26,NA,NA,NA,NA,45,33,17,1,undefined,undefined,undefined,undefined,undefined,undefined,undefined,undefined,undefined,undefined,
3msgw0ltad,undefined,undefined,undefined,undefined,46,Familiar,21,NA,NA,NA,NA,46,24,19,0,undefined,undefined,undefined,undefined,undefined,undefined,undefined,undefined,undefined,undefined,
3msgw0ltad,undefined,undefined,undefined,undefined,47,Know,32,MEGAN,VICTORIA,false,3339.159999974072,47,25,36,2,undefined,undefined,undefined,undefined,undefined,undefined,undefined,undefined,undefined,undefined,
3msgw0ltad,undefined,undefined,undefined,undefined,48,Know,33,MADISON,MEGAN,false,6487.334999954328,48,3,25,0,undefined,undefined,undefined,undefined,undefined,undefined,undefined,undefined,undefined,undefined,
3msgw0ltad,undefined,undefined,undefined,undefined,49,Familiar,26,NA,NA,NA,NA,49,10,32,2,undefined,undefined,undefined,undefined,undefined,undefined,undefined,undefined,undefined,undefined,
3msgw0ltad,undefined,undefined,undefined,undefined,50,Familiar,21,NA,NA,NA,NA,50,34,27,0,undefined,undefined,undefined,undefined,undefined,undefined,undefined,undefined,undefined,undefined,
3msgw0ltad,undefined,undefined,undefined,undefined,51,Know,17,GRACE,MEGAN,false,3481.904999935068,51,2,28,1,undefined,undefined,undefined,undefined,undefined,undefined,undefined,undefined,undefined,undefined,
3msgw0ltad,undefined,undefined,undefined,undefined,52,Familiar,1,NA,NA,NA,NA,52,11,2,2,undefined,undefined,undefined,undefined,undefined,undefined,undefined,undefined,undefined,undefined,
3msgw0ltad,undefined,undefined,undefined,undefined,53,Familiar,3,NA,NA,NA,NA,53,20,22,0,undefined,undefined,undefined,undefined,undefined,undefined,undefined,undefined,undefined,undefined,
3msgw0ltad,undefined,undefined,undefined,undefined,54,Know,2,HANNAH,HANNAH,true,2341.825000010431,54,8,13,2,undefined,undefined,undefined,undefined,undefined,undefined,undefined,undefined,undefined,undefined,
3msgw0ltad,undefined,undefined,undefined,undefined,55,Familiar,20,NA,NA,NA,NA,55,22,21,0,undefined,undefined,undefined,undefined,undefined,undefined,undefined,undefined,undefined,undefined,
3msgw0ltad,undefined,undefined,undefined,undefined,56,Know,12,CHLOE,MEGAN ,false,6451.920000021346,56,7,24,2,undefined,undefined,undefined,undefined,undefined,undefined,undefined,undefined,undefined,undefined,
3msgw0ltad,undefined,undefined,undefined,undefined,57,Know,32,MEGAN,VICTORIA,false,3065.9900000318885,57,12,34,1,undefined,undefined,undefined,undefined,undefined,undefined,undefined,undefined,undefined,undefined,
3msgw0ltad,undefined,undefined,undefined,undefined,58,Familiar,22,NA,NA,NA,NA,58,23,31,2,undefined,undefined,undefined,undefined,undefined,undefined,undefined,undefined,undefined,undefined,
3msgw0ltad,undefined,undefined,undefined,undefined,59,Familiar,27,NA,NA,NA,NA,59,32,16,1,undefined,undefined,undefined,undefined,undefined,undefined,undefined,undefined,undefined,undefined,
3msgw0ltad,undefined,undefined,undefined,undefined,60,Know,33,MADISON,MADISON,true,3199.0099999820814,60,6,33,2,undefined,undefined,undefined,undefined,undefined,undefined,undefined,undefined,undefined,undefined,
3msgw0ltad,undefined,undefined,undefined,undefined,61,Know,19,LISA,MEGAN ,false,5488.899999996647,61,16,7,0,undefined,undefined,undefined,undefined,undefined,undefined,undefined,undefined,undefined,undefined,
3msgw0ltad,undefined,undefined,undefined,undefined,62,Familiar,24,NA,NA,NA,NA,62,36,29,1,undefined,undefined,undefined,undefined,undefined,undefined,undefined,undefined,undefined,undefined,
3msgw0ltad,undefined,undefined,undefined,undefined,63,Familiar,34,NA,NA,NA,NA,63,35,8,0,undefined,undefined,undefined,undefined,undefined,undefined,undefined,undefined,undefined,undefined,
3msgw0ltad,undefined,undefined,undefined,undefined,64,Know,36,AUDREY,AUDREY,true,5519.145000027493,64,4,11,0,undefined,undefined,undefined,undefined,undefined,undefined,undefined,undefined,undefined,undefined,
3msgw0ltad,undefined,undefined,undefined,undefined,65,Know,30,VICTORIA,VICTORIA,true,4604.334999923594,65,31,35,2,undefined,undefined,undefined,undefined,undefined,undefined,undefined,undefined,undefined,undefined,
3msgw0ltad,undefined,undefined,undefined,undefined,66,Familiar,16,NA,NA,NA,NA,66,21,10,0,undefined,undefined,undefined,undefined,undefined,undefined,undefined,undefined,undefined,undefined,
3msgw0ltad,undefined,undefined,undefined,undefined,67,Familiar,4,NA,NA,NA,NA,67,18,4,1,undefined,undefined,undefined,undefined,undefined,undefined,undefined,undefined,undefined,undefined,
3msgw0ltad,undefined,undefined,undefined,undefined,68,Know,18,SARAH,GRACE,false,5698.759999941103,68,26,30,0,undefined,undefined,undefined,undefined,undefined,undefined,undefined,undefined,undefined,undefined,
3msgw0ltad,undefined,undefined,undefined,undefined,69,Know,13,SOFIA,CHLOSE,false,8430.045000044629,69,5,15,2,undefined,undefined,undefined,undefined,undefined,undefined,undefined,undefined,undefined,undefined,
3msgw0ltad,undefined,undefined,undefined,undefined,70,Familiar,35,NA,NA,NA,NA,70,19,3,1,undefined,undefined,undefined,undefined,undefined,undefined,undefined,undefined,undefined,undefined,
3msgw0ltad,undefined,undefined,undefined,undefined,71,Know,29,NANCY,MEGAN ,false,3054.980000015348,71,17,23,1,undefined,undefined,undefined,undefined,undefined,undefined,undefined,undefined,undefined,undefined,
3msgw0ltad,undefined,undefined,undefined,undefined,72,Know,14,HAZEL,MADISON,false,7593.75,72,1,14,0,undefined,undefined,undefined,undefined,undefined,undefined,undefined,undefined,undefined,undefined,
3msgw0ltad,undefined,undefined,undefined,undefined,73,Familiar,34,NA,NA,NA,NA,undefined,undefined,undefined,undefined,undefined,undefined,undefined,undefined,undefined,undefined,undefined,undefined,undefined,undefined,
3msgw0ltad,undefined,undefined,undefined,undefined,74,Know,14,HAZEL,HAZEL ,false,2992.2500000102445,undefined,undefined,undefined,undefined,undefined,undefined,undefined,undefined,undefined,undefined,undefined,undefined,undefined,undefined,
3msgw0ltad,undefined,undefined,undefined,undefined,75,Familiar,26,NA,NA,NA,NA,undefined,undefined,undefined,undefined,undefined,undefined,undefined,undefined,undefined,undefined,undefined,undefined,undefined,undefined,
3msgw0ltad,undefined,undefined,undefined,undefined,76,Know,12,CHLOE,SARAH ',false,5889.315000036731,undefined,undefined,undefined,undefined,undefined,undefined,undefined,undefined,undefined,undefined,undefined,undefined,undefined,undefined,
3msgw0ltad,undefined,undefined,undefined,undefined,77,Familiar,24,NA,NA,NA,NA,undefined,undefined,undefined,undefined,undefined,undefined,undefined,undefined,undefined,undefined,undefined,undefined,undefined,undefined,
3msgw0ltad,undefined,undefined,undefined,undefined,78,Know,18,SARAH,MADISON ,false,10854.000000050291,undefined,undefined,undefined,undefined,undefined,undefined,undefined,undefined,undefined,undefined,undefined,undefined,undefined,undefined,
3msgw0ltad,undefined,undefined,undefined,undefined,79,Know,32,MEGAN,VICTORIA,false,8221.409999998286,undefined,undefined,undefined,undefined,undefined,undefined,undefined,undefined,undefined,undefined,undefined,undefined,undefined,undefined,
3msgw0ltad,undefined,undefined,undefined,undefined,80,Familiar,21,NA,NA,NA,NA,undefined,undefined,undefined,undefined,undefined,undefined,undefined,undefined,undefined,undefined,undefined,undefined,undefined,undefined,
3msgw0ltad,undefined,undefined,undefined,undefined,81,Know,36,AUDREY,HAZEL,false,4538.055000011809,undefined,undefined,undefined,undefined,undefined,undefined,undefined,undefined,undefined,undefined,undefined,undefined,undefined,undefined,
3msgw0ltad,undefined,undefined,undefined,undefined,82,Familiar,20,NA,NA,NA,NA,undefined,undefined,undefined,undefined,undefined,undefined,undefined,undefined,undefined,undefined,undefined,undefined,undefined,undefined,
3msgw0ltad,undefined,undefined,undefined,undefined,83,Familiar,27,NA,NA,NA,NA,undefined,undefined,undefined,undefined,undefined,undefined,undefined,undefined,undefined,undefined,undefined,undefined,undefined,undefined,
3msgw0ltad,undefined,undefined,undefined,undefined,84,Know,19,LISA,MADISON,false,3943.2300000917166,undefined,undefined,undefined,undefined,undefined,undefined,undefined,undefined,undefined,undefined,undefined,undefined,undefined,undefined,
3msgw0ltad,undefined,undefined,undefined,undefined,85,Know,33,MADISON,SARAH ,false,3791.3600000320002,undefined,undefined,undefined,undefined,undefined,undefined,undefined,undefined,undefined,undefined,undefined,undefined,undefined,undefined,
3msgw0ltad,undefined,undefined,undefined,undefined,86,Familiar,4,NA,NA,NA,NA,undefined,undefined,undefined,undefined,undefined,undefined,undefined,undefined,undefined,undefined,undefined,undefined,undefined,undefined,
3msgw0ltad,undefined,undefined,undefined,undefined,87,Know,30,VICTORIA,AUDREY,false,3338.0200000246987,undefined,undefined,undefined,undefined,undefined,undefined,undefined,undefined,undefined,undefined,undefined,undefined,undefined,undefined,
3msgw0ltad,undefined,undefined,undefined,undefined,88,Familiar,16,NA,NA,NA,NA,undefined,undefined,undefined,undefined,undefined,undefined,undefined,undefined,undefined,undefined,undefined,undefined,undefined,undefined,
3msgw0ltad,undefined,undefined,undefined,undefined,89,Know,13,SOFIA,SOFIUA,false,3866.704999934882,undefined,undefined,undefined,undefined,undefined,undefined,undefined,undefined,undefined,undefined,undefined,undefined,undefined,undefined,
3msgw0ltad,undefined,undefined,undefined,undefined,90,Familiar,3,NA,NA,NA,NA,undefined,undefined,undefined,undefined,undefined,undefined,undefined,undefined,undefined,undefined,undefined,undefined,undefined,undefined,
3msgw0ltad,undefined,undefined,undefined,undefined,91,Familiar,1,NA,NA,NA,NA,undefined,undefined,undefined,undefined,undefined,undefined,undefined,undefined,undefined,undefined,undefined,undefined,undefined,undefined,
3msgw0ltad,undefined,undefined,undefined,undefined,92,Know,2,HANNAH,HANNAH,true,2799.6350000612438,undefined,undefined,undefined,undefined,undefined,undefined,undefined,undefined,undefined,undefined,undefined,undefined,undefined,undefined,
3msgw0ltad,undefined,undefined,undefined,undefined,93,Familiar,35,NA,NA,NA,NA,undefined,undefined,undefined,undefined,undefined,undefined,undefined,undefined,undefined,undefined,undefined,undefined,undefined,undefined,
3msgw0ltad,undefined,undefined,undefined,undefined,94,Know,17,GRACE,LISA,false,4378.015000023879,undefined,undefined,undefined,undefined,undefined,undefined,undefined,undefined,undefined,undefined,undefined,undefined,undefined,undefined,
3msgw0ltad,undefined,undefined,undefined,undefined,95,Familiar,22,NA,NA,NA,NA,undefined,undefined,undefined,undefined,undefined,undefined,undefined,undefined,undefined,undefined,undefined,undefined,undefined,undefined,
3msgw0ltad,undefined,undefined,undefined,undefined,96,Know,29,NANCY,AUDREY,false,4415.839999914169,undefined,undefined,undefined,undefined,undefined,undefined,undefined,undefined,undefined,undefined,undefined,undefined,undefined,undefined,
