SubNum,SubNum_demo,Exp_start_time,Exp_today_date,Exp_today_time,TrialNum,FaceID,FaceImg,Name,Response,NameAcc,RespTime,StudyTrialNum,StudyFaceID,StudyFaceImg,StudyFamCond,StudyTime,TestTrialNum,TestFaceID,TestFaceImg,TestFamCond,TestStatusCond,TestResponse,TestResponseTime,Exp_end_time,Distractor_1_duration,Distractor_1_numT,Distractor_1_acc,Distractor_2_duration,Distractor_2_numT,Distractor_2_acc,StudyButtonRespTime,StudyButtonRespTime_mean,q1,q2,q3,
zn4tgce594,ooa3gqz4hq,Mon Jan 04 2021 08:10:00 GMT-0500 (Eastern Standard Time),2021-1-4,8:10:0,1,37,1,JULIE,JULIE,true,4728.970000054687,1,6,4,0,4000,1,20,2,1,1,0,5268.924999982119,8:42:51,142374.5900001377,28,100,117888.19999992847,53,72,1626.0850001126528,2095.797499991022,No,none,That was hard but very fun!,
zn4tgce594,undefined,undefined,undefined,undefined,2,13,1,CHRIS,CHRIS,true,2987.9600000567734,2,19,4,0,4000,2,27,2,0,1,4,7001.1849999427795,undefined,153422.480000183,23,78,121713.25999964029,undefined,undefined,3979.9200003035367,undefined,undefined,undefined,undefined,
zn4tgce594,undefined,undefined,undefined,undefined,3,22,1,SARAH,SARAH,true,7006.000000052154,3,23,4,1,4000,3,33,2,0,1,1,3145.2249996364117,undefined,294539.2100000754,undefined,undefined,undefined,undefined,undefined,1075.539999641478,undefined,undefined,undefined,undefined,
zn4tgce594,undefined,undefined,undefined,undefined,4,16,1,RYAN,RYAN,true,5725.085000041872,4,24,4,1,4000,4,17,2,1,0,5,1714.1649997793138,undefined,123563.34999995306,undefined,undefined,undefined,undefined,undefined,1701.6449999064207,undefined,undefined,undefined,undefined,
zn4tgce594,undefined,undefined,undefined,undefined,5,28,1,LAUREN,LAUREN,true,5486.864999867976,5,21,4,0,4000,5,22,2,1,0,5,1282.5349997729063,undefined,276985.8050001785,undefined,undefined,undefined,undefined,undefined,undefined,undefined,undefined,undefined,undefined,
zn4tgce594,undefined,undefined,undefined,undefined,6,23,1,EVELYN,EVELYN,true,4109.699999913573,6,10,4,0,4000,6,29,2,1,0,5,1616.7450002394617,undefined,undefined,undefined,undefined,undefined,undefined,undefined,undefined,undefined,undefined,undefined,undefined,
zn4tgce594,undefined,undefined,undefined,undefined,7,29,1,DENISE,DENISE,true,6875.525000039488,7,29,4,1,4000,7,36,2,0,0,4,3681.9800003431737,undefined,undefined,undefined,undefined,undefined,undefined,undefined,undefined,undefined,undefined,undefined,undefined,
zn4tgce594,undefined,undefined,undefined,undefined,8,26,1,EMILY,EMILY,true,10382.09499977529,8,1,4,1,4000,8,19,2,0,0,4,3905.6049999780953,undefined,undefined,undefined,undefined,undefined,undefined,undefined,undefined,undefined,undefined,undefined,undefined,
zn4tgce594,undefined,undefined,undefined,undefined,9,11,1,ROBERT,ROBERT,true,6333.649999927729,9,30,4,0,4000,9,18,2,0,1,4,2329.429999925196,undefined,undefined,undefined,undefined,undefined,undefined,undefined,undefined,undefined,undefined,undefined,undefined,
zn4tgce594,undefined,undefined,undefined,undefined,10,3,1,KYLE,KYLE,true,7246.815000195056,10,12,4,0,4000,10,28,2,1,1,3,5889.994999859482,undefined,undefined,undefined,undefined,undefined,undefined,undefined,undefined,undefined,undefined,undefined,undefined,
zn4tgce594,undefined,undefined,undefined,undefined,11,40,1,ASHLEY,ASHLEY,true,10590.484999585897,11,16,4,1,4000,11,6,2,0,0,4,3457.025000359863,undefined,undefined,undefined,undefined,undefined,undefined,undefined,undefined,undefined,undefined,undefined,undefined,
zn4tgce594,undefined,undefined,undefined,undefined,12,35,1,FRANCES,FRANCES,true,10379.375000018626,12,9,4,1,4000,12,8,2,0,0,4,4994.059999939054,undefined,undefined,undefined,undefined,undefined,undefined,undefined,undefined,undefined,undefined,undefined,undefined,
zn4tgce594,undefined,undefined,undefined,undefined,13,4,1,CARTER,CARTER,true,6991.549999918789,13,31,4,0,4000,13,15,2,1,1,1,4201.969999819994,undefined,undefined,undefined,undefined,undefined,undefined,undefined,undefined,undefined,undefined,undefined,undefined,
zn4tgce594,undefined,undefined,undefined,undefined,14,24,1,NATALIE,NATALIE,true,6398.579999804497,14,36,4,0,4000,14,16,2,1,0,4,2841.5300003252923,undefined,undefined,undefined,undefined,undefined,undefined,undefined,undefined,undefined,undefined,undefined,undefined,
zn4tgce594,undefined,undefined,undefined,undefined,15,15,1,TYLER,TYLER,true,7099.419999867678,15,11,4,1,4000,15,26,2,1,1,3,4233.215000014752,undefined,undefined,undefined,undefined,undefined,undefined,undefined,undefined,undefined,undefined,undefined,undefined,
zn4tgce594,undefined,undefined,undefined,undefined,16,39,1,CHLOE,CHLOE,true,7180.02500012517,16,17,4,1,4000,16,9,2,1,0,5,3947.1849999390543,undefined,undefined,undefined,undefined,undefined,undefined,undefined,undefined,undefined,undefined,undefined,undefined,
zn4tgce594,undefined,undefined,undefined,undefined,17,17,1,WAYNE,WAYNE,true,5101.250000298023,17,34,4,0,4000,17,2,2,0,1,5,2578.0250001698732,undefined,undefined,undefined,undefined,undefined,undefined,undefined,undefined,undefined,undefined,undefined,undefined,
zn4tgce594,undefined,undefined,undefined,undefined,18,20,1,MICHAEL,MICHAEL,true,8925.524999853224,18,8,4,0,4000,18,12,2,0,0,5,2449.1949998773634,undefined,undefined,undefined,undefined,undefined,undefined,undefined,undefined,undefined,undefined,undefined,undefined,
zn4tgce594,undefined,undefined,undefined,undefined,19,9,1,LARRY,LARRY,true,7245.7249998115,19,22,4,1,4000,19,35,2,1,1,2,9451.140000019222,undefined,undefined,undefined,undefined,undefined,undefined,undefined,undefined,undefined,undefined,undefined,undefined,
zn4tgce594,undefined,undefined,undefined,undefined,20,1,1,ALLEN,ALLEN,true,16237.50999988988,20,37,4,1,4000,20,32,2,0,1,5,3241.70000012964,undefined,undefined,undefined,undefined,undefined,undefined,undefined,undefined,undefined,undefined,undefined,undefined,
zn4tgce594,undefined,undefined,undefined,undefined,21,37,8,JULIE,LAUREN,false,7712.659999728203,undefined,undefined,undefined,undefined,undefined,21,34,2,0,0,5,2105.510000139475,undefined,undefined,undefined,undefined,undefined,undefined,undefined,undefined,undefined,undefined,undefined,undefined,
zn4tgce594,undefined,undefined,undefined,undefined,22,13,8,CHRIS,CHRIS,true,36641.15499984473,undefined,undefined,undefined,undefined,undefined,22,38,2,0,1,5,2186.604999937117,undefined,undefined,undefined,undefined,undefined,undefined,undefined,undefined,undefined,undefined,undefined,undefined,
zn4tgce594,undefined,undefined,undefined,undefined,23,22,8,SARAH,LAUREN,false,8690.440000034869,undefined,undefined,undefined,undefined,undefined,23,3,2,1,1,2,3001.6149999573827,undefined,undefined,undefined,undefined,undefined,undefined,undefined,undefined,undefined,undefined,undefined,undefined,
zn4tgce594,undefined,undefined,undefined,undefined,24,16,8,RYAN,ALLEN,false,26848.230000119656,undefined,undefined,undefined,undefined,undefined,24,39,2,1,1,3,7753.130000084639,undefined,undefined,undefined,undefined,undefined,undefined,undefined,undefined,undefined,undefined,undefined,undefined,
zn4tgce594,undefined,undefined,undefined,undefined,25,28,8,LAUREN,DENISE,false,2831.7999998107553,undefined,undefined,undefined,undefined,undefined,25,1,2,1,0,2,4297.8150001727045,undefined,undefined,undefined,undefined,undefined,undefined,undefined,undefined,undefined,undefined,undefined,undefined,
zn4tgce594,undefined,undefined,undefined,undefined,26,23,8,EVELYN,DENISE,false,6704.884999897331,undefined,undefined,undefined,undefined,undefined,26,40,2,1,1,1,6098.240000195801,undefined,undefined,undefined,undefined,undefined,undefined,undefined,undefined,undefined,undefined,undefined,undefined,
zn4tgce594,undefined,undefined,undefined,undefined,27,29,8,DENISE,DENISE,true,6992.604999803007,undefined,undefined,undefined,undefined,undefined,27,7,2,0,1,4,1714.26000026986,undefined,undefined,undefined,undefined,undefined,undefined,undefined,undefined,undefined,undefined,undefined,undefined,
zn4tgce594,undefined,undefined,undefined,undefined,28,26,8,EMILY,CHLOE,false,21442.120000254363,undefined,undefined,undefined,undefined,undefined,28,30,2,0,0,5,1633.7749999947846,undefined,undefined,undefined,undefined,undefined,undefined,undefined,undefined,undefined,undefined,undefined,undefined,
zn4tgce594,undefined,undefined,undefined,undefined,29,11,8,ROBERT,MICHAEL,false,11089.379999786615,undefined,undefined,undefined,undefined,undefined,29,14,2,0,1,4,5266.394999809563,undefined,undefined,undefined,undefined,undefined,undefined,undefined,undefined,undefined,undefined,undefined,undefined,
zn4tgce594,undefined,undefined,undefined,undefined,30,3,8,KYLE,ALLEN,false,30528.30500015989,undefined,undefined,undefined,undefined,undefined,30,5,2,0,1,4,1593.2749998755753,undefined,undefined,undefined,undefined,undefined,undefined,undefined,undefined,undefined,undefined,undefined,undefined,
zn4tgce594,undefined,undefined,undefined,undefined,31,40,8,ASHLEY,CHLOE,false,7152.79999980703,undefined,undefined,undefined,undefined,undefined,31,31,2,0,0,4,1362.560000270605,undefined,undefined,undefined,undefined,undefined,undefined,undefined,undefined,undefined,undefined,undefined,undefined,
zn4tgce594,undefined,undefined,undefined,undefined,32,35,8,FRANCES,CHLOE,false,2655.2200000733137,undefined,undefined,undefined,undefined,undefined,32,24,2,1,0,3,4848.97999977693,undefined,undefined,undefined,undefined,undefined,undefined,undefined,undefined,undefined,undefined,undefined,undefined,
zn4tgce594,undefined,undefined,undefined,undefined,33,4,8,CARTER,ALLEN,false,5393.769999966025,undefined,undefined,undefined,undefined,undefined,33,23,2,1,0,5,2352.670000400394,undefined,undefined,undefined,undefined,undefined,undefined,undefined,undefined,undefined,undefined,undefined,undefined,
zn4tgce594,undefined,undefined,undefined,undefined,34,24,8,NATALIE,CHLOE,false,3295.735000167042,undefined,undefined,undefined,undefined,undefined,34,4,2,1,1,2,3354.169999714941,undefined,undefined,undefined,undefined,undefined,undefined,undefined,undefined,undefined,undefined,undefined,undefined,
zn4tgce594,undefined,undefined,undefined,undefined,35,15,8,TYLER,ALLEN,false,4032.5199998915195,undefined,undefined,undefined,undefined,undefined,35,11,2,1,0,5,5721.795000135899,undefined,undefined,undefined,undefined,undefined,undefined,undefined,undefined,undefined,undefined,undefined,undefined,
zn4tgce594,undefined,undefined,undefined,undefined,36,39,8,CHLOE,CHLOE,true,2449.7849997133017,undefined,undefined,undefined,undefined,undefined,36,25,2,0,1,4,1712.984999641776,undefined,undefined,undefined,undefined,undefined,undefined,undefined,undefined,undefined,undefined,undefined,undefined,
zn4tgce594,undefined,undefined,undefined,undefined,37,17,8,WAYNE,MICHAEL,false,17761.21999975294,undefined,undefined,undefined,undefined,undefined,37,21,2,0,0,4,1001.0400000028312,undefined,undefined,undefined,undefined,undefined,undefined,undefined,undefined,undefined,undefined,undefined,undefined,
zn4tgce594,undefined,undefined,undefined,undefined,38,20,8,MICHAEL,MICHAEL,true,2336.939999833703,undefined,undefined,undefined,undefined,undefined,38,37,2,1,0,4,1969.6949999779463,undefined,undefined,undefined,undefined,undefined,undefined,undefined,undefined,undefined,undefined,undefined,undefined,
zn4tgce594,undefined,undefined,undefined,undefined,39,9,8,LARRY,ROBERT,false,5826.060000341386,undefined,undefined,undefined,undefined,undefined,39,10,2,0,0,4,2441.304999869317,undefined,undefined,undefined,undefined,undefined,undefined,undefined,undefined,undefined,undefined,undefined,undefined,
zn4tgce594,undefined,undefined,undefined,undefined,40,1,8,ALLEN,LARRY,false,5135.695000179112,undefined,undefined,undefined,undefined,undefined,40,13,2,1,1,5,3242.119999602437,undefined,undefined,undefined,undefined,undefined,undefined,undefined,undefined,undefined,undefined,undefined,undefined,
zn4tgce594,undefined,undefined,undefined,undefined,41,4,3,CARTER,CARTER,true,2497.6599998772144,undefined,undefined,undefined,undefined,undefined,undefined,undefined,undefined,undefined,undefined,undefined,undefined,undefined,undefined,undefined,undefined,undefined,undefined,undefined,undefined,undefined,undefined,undefined,undefined,
zn4tgce594,undefined,undefined,undefined,undefined,42,26,3,EMILY,LAUREN,false,4546.529999934137,undefined,undefined,undefined,undefined,undefined,undefined,undefined,undefined,undefined,undefined,undefined,undefined,undefined,undefined,undefined,undefined,undefined,undefined,undefined,undefined,undefined,undefined,undefined,undefined,
zn4tgce594,undefined,undefined,undefined,undefined,43,40,3,ASHLEY,DENISE,false,5728.540000040084,undefined,undefined,undefined,undefined,undefined,undefined,undefined,undefined,undefined,undefined,undefined,undefined,undefined,undefined,undefined,undefined,undefined,undefined,undefined,undefined,undefined,undefined,undefined,undefined,
zn4tgce594,undefined,undefined,undefined,undefined,44,22,3,SARAH,SARAH,true,1938.0000000819564,undefined,undefined,undefined,undefined,undefined,undefined,undefined,undefined,undefined,undefined,undefined,undefined,undefined,undefined,undefined,undefined,undefined,undefined,undefined,undefined,undefined,undefined,undefined,undefined,
zn4tgce594,undefined,undefined,undefined,undefined,45,37,3,JULIE,LAUREN,false,2991.555000189692,undefined,undefined,undefined,undefined,undefined,undefined,undefined,undefined,undefined,undefined,undefined,undefined,undefined,undefined,undefined,undefined,undefined,undefined,undefined,undefined,undefined,undefined,undefined,undefined,
zn4tgce594,undefined,undefined,undefined,undefined,46,24,3,NATALIE,ASHLEY,false,7617.860000114888,undefined,undefined,undefined,undefined,undefined,undefined,undefined,undefined,undefined,undefined,undefined,undefined,undefined,undefined,undefined,undefined,undefined,undefined,undefined,undefined,undefined,undefined,undefined,undefined,
zn4tgce594,undefined,undefined,undefined,undefined,47,35,3,FRANCES,CHLOE,false,16896.66000008583,undefined,undefined,undefined,undefined,undefined,undefined,undefined,undefined,undefined,undefined,undefined,undefined,undefined,undefined,undefined,undefined,undefined,undefined,undefined,undefined,undefined,undefined,undefined,undefined,
zn4tgce594,undefined,undefined,undefined,undefined,48,23,3,EVELYN,EVELYN,true,6704.909999854863,undefined,undefined,undefined,undefined,undefined,undefined,undefined,undefined,undefined,undefined,undefined,undefined,undefined,undefined,undefined,undefined,undefined,undefined,undefined,undefined,undefined,undefined,undefined,undefined,
zn4tgce594,undefined,undefined,undefined,undefined,49,1,3,ALLEN,ALLEN,true,5616.719999816269,undefined,undefined,undefined,undefined,undefined,undefined,undefined,undefined,undefined,undefined,undefined,undefined,undefined,undefined,undefined,undefined,undefined,undefined,undefined,undefined,undefined,undefined,undefined,undefined,
zn4tgce594,undefined,undefined,undefined,undefined,50,11,3,ROBERT,CHRIS,false,2320.1500000432134,undefined,undefined,undefined,undefined,undefined,undefined,undefined,undefined,undefined,undefined,undefined,undefined,undefined,undefined,undefined,undefined,undefined,undefined,undefined,undefined,undefined,undefined,undefined,undefined,
zn4tgce594,undefined,undefined,undefined,undefined,51,9,3,LARRY,ALLEN,false,7776.200000196695,undefined,undefined,undefined,undefined,undefined,undefined,undefined,undefined,undefined,undefined,undefined,undefined,undefined,undefined,undefined,undefined,undefined,undefined,undefined,undefined,undefined,undefined,undefined,undefined,
zn4tgce594,undefined,undefined,undefined,undefined,52,28,3,LAUREN,CHLOE,false,4832.6699999161065,undefined,undefined,undefined,undefined,undefined,undefined,undefined,undefined,undefined,undefined,undefined,undefined,undefined,undefined,undefined,undefined,undefined,undefined,undefined,undefined,undefined,undefined,undefined,undefined,
zn4tgce594,undefined,undefined,undefined,undefined,53,17,3,WAYNE,LARRY,false,36512.76500010863,undefined,undefined,undefined,undefined,undefined,undefined,undefined,undefined,undefined,undefined,undefined,undefined,undefined,undefined,undefined,undefined,undefined,undefined,undefined,undefined,undefined,undefined,undefined,undefined,
zn4tgce594,undefined,undefined,undefined,undefined,54,29,3,DENISE,DENISE,true,8239.215000066906,undefined,undefined,undefined,undefined,undefined,undefined,undefined,undefined,undefined,undefined,undefined,undefined,undefined,undefined,undefined,undefined,undefined,undefined,undefined,undefined,undefined,undefined,undefined,undefined,
zn4tgce594,undefined,undefined,undefined,undefined,55,13,3,CHRIS,CHRIS,true,1761.5999998524785,undefined,undefined,undefined,undefined,undefined,undefined,undefined,undefined,undefined,undefined,undefined,undefined,undefined,undefined,undefined,undefined,undefined,undefined,undefined,undefined,undefined,undefined,undefined,undefined,
zn4tgce594,undefined,undefined,undefined,undefined,56,3,3,KYLE,KYLE,true,2624.6000002138317,undefined,undefined,undefined,undefined,undefined,undefined,undefined,undefined,undefined,undefined,undefined,undefined,undefined,undefined,undefined,undefined,undefined,undefined,undefined,undefined,undefined,undefined,undefined,undefined,
zn4tgce594,undefined,undefined,undefined,undefined,57,20,3,MICHAEL,MICHAEL,true,2801.2600000947714,undefined,undefined,undefined,undefined,undefined,undefined,undefined,undefined,undefined,undefined,undefined,undefined,undefined,undefined,undefined,undefined,undefined,undefined,undefined,undefined,undefined,undefined,undefined,undefined,
zn4tgce594,undefined,undefined,undefined,undefined,58,39,3,CHLOE,CHLOE,true,3201.260000001639,undefined,undefined,undefined,undefined,undefined,undefined,undefined,undefined,undefined,undefined,undefined,undefined,undefined,undefined,undefined,undefined,undefined,undefined,undefined,undefined,undefined,undefined,undefined,undefined,
zn4tgce594,undefined,undefined,undefined,undefined,59,15,3,TYLER,TYLER,true,3776.9800000824034,undefined,undefined,undefined,undefined,undefined,undefined,undefined,undefined,undefined,undefined,undefined,undefined,undefined,undefined,undefined,undefined,undefined,undefined,undefined,undefined,undefined,undefined,undefined,undefined,
zn4tgce594,undefined,undefined,undefined,undefined,60,16,3,RYAN,WAYNE,false,26786.45500028506,undefined,undefined,undefined,undefined,undefined,undefined,undefined,undefined,undefined,undefined,undefined,undefined,undefined,undefined,undefined,undefined,undefined,undefined,undefined,undefined,undefined,undefined,undefined,undefined,
zn4tgce594,undefined,undefined,undefined,undefined,61,24,6,NATALIE,LAUREN,false,4432.5999999418855,undefined,undefined,undefined,undefined,undefined,undefined,undefined,undefined,undefined,undefined,undefined,undefined,undefined,undefined,undefined,undefined,undefined,undefined,undefined,undefined,undefined,undefined,undefined,undefined,
zn4tgce594,undefined,undefined,undefined,undefined,62,17,6,WAYNE,WAYNE,true,3009.4949998892844,undefined,undefined,undefined,undefined,undefined,undefined,undefined,undefined,undefined,undefined,undefined,undefined,undefined,undefined,undefined,undefined,undefined,undefined,undefined,undefined,undefined,undefined,undefined,undefined,
zn4tgce594,undefined,undefined,undefined,undefined,63,3,6,KYLE,KYLE,true,2193.4549999423325,undefined,undefined,undefined,undefined,undefined,undefined,undefined,undefined,undefined,undefined,undefined,undefined,undefined,undefined,undefined,undefined,undefined,undefined,undefined,undefined,undefined,undefined,undefined,undefined,
zn4tgce594,undefined,undefined,undefined,undefined,64,11,6,ROBERT,ROBERT,true,2817.444999702275,undefined,undefined,undefined,undefined,undefined,undefined,undefined,undefined,undefined,undefined,undefined,undefined,undefined,undefined,undefined,undefined,undefined,undefined,undefined,undefined,undefined,undefined,undefined,undefined,
zn4tgce594,undefined,undefined,undefined,undefined,65,23,6,EVELYN,DENISE,false,4929.8350000754,undefined,undefined,undefined,undefined,undefined,undefined,undefined,undefined,undefined,undefined,undefined,undefined,undefined,undefined,undefined,undefined,undefined,undefined,undefined,undefined,undefined,undefined,undefined,undefined,
zn4tgce594,undefined,undefined,undefined,undefined,66,26,6,EMILY,LAUREN,false,5231.755000073463,undefined,undefined,undefined,undefined,undefined,undefined,undefined,undefined,undefined,undefined,undefined,undefined,undefined,undefined,undefined,undefined,undefined,undefined,undefined,undefined,undefined,undefined,undefined,undefined,
zn4tgce594,undefined,undefined,undefined,undefined,67,35,6,FRANCES,JULIE,false,6400.944999884814,undefined,undefined,undefined,undefined,undefined,undefined,undefined,undefined,undefined,undefined,undefined,undefined,undefined,undefined,undefined,undefined,undefined,undefined,undefined,undefined,undefined,undefined,undefined,undefined,
zn4tgce594,undefined,undefined,undefined,undefined,68,16,6,RYAN,RYAN,true,4000.674999784678,undefined,undefined,undefined,undefined,undefined,undefined,undefined,undefined,undefined,undefined,undefined,undefined,undefined,undefined,undefined,undefined,undefined,undefined,undefined,undefined,undefined,undefined,undefined,undefined,
zn4tgce594,undefined,undefined,undefined,undefined,69,28,6,LAUREN,JULIE,false,5392.465000040829,undefined,undefined,undefined,undefined,undefined,undefined,undefined,undefined,undefined,undefined,undefined,undefined,undefined,undefined,undefined,undefined,undefined,undefined,undefined,undefined,undefined,undefined,undefined,undefined,
zn4tgce594,undefined,undefined,undefined,undefined,70,15,6,TYLER,TYLER,true,5394.040000159293,undefined,undefined,undefined,undefined,undefined,undefined,undefined,undefined,undefined,undefined,undefined,undefined,undefined,undefined,undefined,undefined,undefined,undefined,undefined,undefined,undefined,undefined,undefined,undefined,
zn4tgce594,undefined,undefined,undefined,undefined,71,20,6,MICHAEL,MICHAEL,true,2127.4399999529123,undefined,undefined,undefined,undefined,undefined,undefined,undefined,undefined,undefined,undefined,undefined,undefined,undefined,undefined,undefined,undefined,undefined,undefined,undefined,undefined,undefined,undefined,undefined,undefined,
zn4tgce594,undefined,undefined,undefined,undefined,72,39,6,CHLOE,CHLOE,true,2161.349999718368,undefined,undefined,undefined,undefined,undefined,undefined,undefined,undefined,undefined,undefined,undefined,undefined,undefined,undefined,undefined,undefined,undefined,undefined,undefined,undefined,undefined,undefined,undefined,undefined,
zn4tgce594,undefined,undefined,undefined,undefined,73,1,6,ALLEN,LARRY,false,8513.259999919683,undefined,undefined,undefined,undefined,undefined,undefined,undefined,undefined,undefined,undefined,undefined,undefined,undefined,undefined,undefined,undefined,undefined,undefined,undefined,undefined,undefined,undefined,undefined,undefined,
zn4tgce594,undefined,undefined,undefined,undefined,74,13,6,CHRIS,CHRIS,true,3857.985000126064,undefined,undefined,undefined,undefined,undefined,undefined,undefined,undefined,undefined,undefined,undefined,undefined,undefined,undefined,undefined,undefined,undefined,undefined,undefined,undefined,undefined,undefined,undefined,undefined,
zn4tgce594,undefined,undefined,undefined,undefined,75,4,6,CARTER,CARTER,true,17743.98500006646,undefined,undefined,undefined,undefined,undefined,undefined,undefined,undefined,undefined,undefined,undefined,undefined,undefined,undefined,undefined,undefined,undefined,undefined,undefined,undefined,undefined,undefined,undefined,undefined,
zn4tgce594,undefined,undefined,undefined,undefined,76,9,6,LARRY,ALLEN,false,7873.394999653101,undefined,undefined,undefined,undefined,undefined,undefined,undefined,undefined,undefined,undefined,undefined,undefined,undefined,undefined,undefined,undefined,undefined,undefined,undefined,undefined,undefined,undefined,undefined,undefined,
zn4tgce594,undefined,undefined,undefined,undefined,77,37,6,JULIE,LAUREN,false,11184.444999787956,undefined,undefined,undefined,undefined,undefined,undefined,undefined,undefined,undefined,undefined,undefined,undefined,undefined,undefined,undefined,undefined,undefined,undefined,undefined,undefined,undefined,undefined,undefined,undefined,
zn4tgce594,undefined,undefined,undefined,undefined,78,40,6,ASHLEY,ASHLEY,true,12818.500000052154,undefined,undefined,undefined,undefined,undefined,undefined,undefined,undefined,undefined,undefined,undefined,undefined,undefined,undefined,undefined,undefined,undefined,undefined,undefined,undefined,undefined,undefined,undefined,undefined,
zn4tgce594,undefined,undefined,undefined,undefined,79,29,6,DENISE,DENISE,true,2944.744999986142,undefined,undefined,undefined,undefined,undefined,undefined,undefined,undefined,undefined,undefined,undefined,undefined,undefined,undefined,undefined,undefined,undefined,undefined,undefined,undefined,undefined,undefined,undefined,undefined,
zn4tgce594,undefined,undefined,undefined,undefined,80,22,6,SARAH,SARAH,true,2769.7999998927116,undefined,undefined,undefined,undefined,undefined,undefined,undefined,undefined,undefined,undefined,undefined,undefined,undefined,undefined,undefined,undefined,undefined,undefined,undefined,undefined,undefined,undefined,undefined,undefined,
zn4tgce594,undefined,undefined,undefined,undefined,81,9,5,LARRY,LARRY,true,5729.119999799877,undefined,undefined,undefined,undefined,undefined,undefined,undefined,undefined,undefined,undefined,undefined,undefined,undefined,undefined,undefined,undefined,undefined,undefined,undefined,undefined,undefined,undefined,undefined,undefined,
zn4tgce594,undefined,undefined,undefined,undefined,82,1,5,ALLEN,ALLEN,true,8288.819999899715,undefined,undefined,undefined,undefined,undefined,undefined,undefined,undefined,undefined,undefined,undefined,undefined,undefined,undefined,undefined,undefined,undefined,undefined,undefined,undefined,undefined,undefined,undefined,undefined,
zn4tgce594,undefined,undefined,undefined,undefined,83,26,5,EMILY,EMILY,true,3760.394999757409,undefined,undefined,undefined,undefined,undefined,undefined,undefined,undefined,undefined,undefined,undefined,undefined,undefined,undefined,undefined,undefined,undefined,undefined,undefined,undefined,undefined,undefined,undefined,undefined,
zn4tgce594,undefined,undefined,undefined,undefined,84,24,5,NATALIE,JULIE,false,5393.804999999702,undefined,undefined,undefined,undefined,undefined,undefined,undefined,undefined,undefined,undefined,undefined,undefined,undefined,undefined,undefined,undefined,undefined,undefined,undefined,undefined,undefined,undefined,undefined,undefined,
zn4tgce594,undefined,undefined,undefined,undefined,85,16,5,RYAN,LARRY,false,8577.019999735057,undefined,undefined,undefined,undefined,undefined,undefined,undefined,undefined,undefined,undefined,undefined,undefined,undefined,undefined,undefined,undefined,undefined,undefined,undefined,undefined,undefined,undefined,undefined,undefined,
zn4tgce594,undefined,undefined,undefined,undefined,86,29,5,DENISE,DENISE,true,2112.534999847412,undefined,undefined,undefined,undefined,undefined,undefined,undefined,undefined,undefined,undefined,undefined,undefined,undefined,undefined,undefined,undefined,undefined,undefined,undefined,undefined,undefined,undefined,undefined,undefined,
zn4tgce594,undefined,undefined,undefined,undefined,87,3,5,KYLE,KYLE,true,3696.6899996623397,undefined,undefined,undefined,undefined,undefined,undefined,undefined,undefined,undefined,undefined,undefined,undefined,undefined,undefined,undefined,undefined,undefined,undefined,undefined,undefined,undefined,undefined,undefined,undefined,
zn4tgce594,undefined,undefined,undefined,undefined,88,11,5,ROBERT,ROBERT,true,3537.8500004298985,undefined,undefined,undefined,undefined,undefined,undefined,undefined,undefined,undefined,undefined,undefined,undefined,undefined,undefined,undefined,undefined,undefined,undefined,undefined,undefined,undefined,undefined,undefined,undefined,
zn4tgce594,undefined,undefined,undefined,undefined,89,35,5,FRANCES,NATALIE,false,14304.839999880642,undefined,undefined,undefined,undefined,undefined,undefined,undefined,undefined,undefined,undefined,undefined,undefined,undefined,undefined,undefined,undefined,undefined,undefined,undefined,undefined,undefined,undefined,undefined,undefined,
zn4tgce594,undefined,undefined,undefined,undefined,90,40,5,ASHLEY,ASHLEY,true,2385.859999805689,undefined,undefined,undefined,undefined,undefined,undefined,undefined,undefined,undefined,undefined,undefined,undefined,undefined,undefined,undefined,undefined,undefined,undefined,undefined,undefined,undefined,undefined,undefined,undefined,
zn4tgce594,undefined,undefined,undefined,undefined,91,17,5,WAYNE,WAYNE,true,4080.959999933839,undefined,undefined,undefined,undefined,undefined,undefined,undefined,undefined,undefined,undefined,undefined,undefined,undefined,undefined,undefined,undefined,undefined,undefined,undefined,undefined,undefined,undefined,undefined,undefined,
zn4tgce594,undefined,undefined,undefined,undefined,92,20,5,MICHAEL,MICHAEL,true,2241.885000374168,undefined,undefined,undefined,undefined,undefined,undefined,undefined,undefined,undefined,undefined,undefined,undefined,undefined,undefined,undefined,undefined,undefined,undefined,undefined,undefined,undefined,undefined,undefined,undefined,
zn4tgce594,undefined,undefined,undefined,undefined,93,13,5,CHRIS,CHRIS,true,2080.5499996058643,undefined,undefined,undefined,undefined,undefined,undefined,undefined,undefined,undefined,undefined,undefined,undefined,undefined,undefined,undefined,undefined,undefined,undefined,undefined,undefined,undefined,undefined,undefined,undefined,
zn4tgce594,undefined,undefined,undefined,undefined,94,28,5,LAUREN,LAUREN,true,4273.005000315607,undefined,undefined,undefined,undefined,undefined,undefined,undefined,undefined,undefined,undefined,undefined,undefined,undefined,undefined,undefined,undefined,undefined,undefined,undefined,undefined,undefined,undefined,undefined,undefined,
zn4tgce594,undefined,undefined,undefined,undefined,95,4,5,CARTER,CARTER,true,2225.8549998514354,undefined,undefined,undefined,undefined,undefined,undefined,undefined,undefined,undefined,undefined,undefined,undefined,undefined,undefined,undefined,undefined,undefined,undefined,undefined,undefined,undefined,undefined,undefined,undefined,
zn4tgce594,undefined,undefined,undefined,undefined,96,37,5,JULIE,LAUREN,false,12575.360000133514,undefined,undefined,undefined,undefined,undefined,undefined,undefined,undefined,undefined,undefined,undefined,undefined,undefined,undefined,undefined,undefined,undefined,undefined,undefined,undefined,undefined,undefined,undefined,undefined,
zn4tgce594,undefined,undefined,undefined,undefined,97,22,5,SARAH,SARAH,true,1889.3049997277558,undefined,undefined,undefined,undefined,undefined,undefined,undefined,undefined,undefined,undefined,undefined,undefined,undefined,undefined,undefined,undefined,undefined,undefined,undefined,undefined,undefined,undefined,undefined,undefined,
zn4tgce594,undefined,undefined,undefined,undefined,98,23,5,EVELYN,EVELYN,true,3969.169999938458,undefined,undefined,undefined,undefined,undefined,undefined,undefined,undefined,undefined,undefined,undefined,undefined,undefined,undefined,undefined,undefined,undefined,undefined,undefined,undefined,undefined,undefined,undefined,undefined,
zn4tgce594,undefined,undefined,undefined,undefined,99,39,5,CHLOE,CHLOE,true,1744.3900001235306,undefined,undefined,undefined,undefined,undefined,undefined,undefined,undefined,undefined,undefined,undefined,undefined,undefined,undefined,undefined,undefined,undefined,undefined,undefined,undefined,undefined,undefined,undefined,undefined,
zn4tgce594,undefined,undefined,undefined,undefined,100,15,5,TYLER,TYLER,true,5810.7699998654425,undefined,undefined,undefined,undefined,undefined,undefined,undefined,undefined,undefined,undefined,undefined,undefined,undefined,undefined,undefined,undefined,undefined,undefined,undefined,undefined,undefined,undefined,undefined,undefined,
zn4tgce594,undefined,undefined,undefined,undefined,101,40,4,ASHLEY,ASHLEY,true,4177.060000132769,undefined,undefined,undefined,undefined,undefined,undefined,undefined,undefined,undefined,undefined,undefined,undefined,undefined,undefined,undefined,undefined,undefined,undefined,undefined,undefined,undefined,undefined,undefined,undefined,
zn4tgce594,undefined,undefined,undefined,undefined,102,16,4,RYAN,RYAN,true,21520.655000116676,undefined,undefined,undefined,undefined,undefined,undefined,undefined,undefined,undefined,undefined,undefined,undefined,undefined,undefined,undefined,undefined,undefined,undefined,undefined,undefined,undefined,undefined,undefined,undefined,
zn4tgce594,undefined,undefined,undefined,undefined,103,39,4,CHLOE,CHLOE,true,2369.810000061989,undefined,undefined,undefined,undefined,undefined,undefined,undefined,undefined,undefined,undefined,undefined,undefined,undefined,undefined,undefined,undefined,undefined,undefined,undefined,undefined,undefined,undefined,undefined,undefined,
zn4tgce594,undefined,undefined,undefined,undefined,104,22,4,SARAH,SARAH,true,1568.8299997709692,undefined,undefined,undefined,undefined,undefined,undefined,undefined,undefined,undefined,undefined,undefined,undefined,undefined,undefined,undefined,undefined,undefined,undefined,undefined,undefined,undefined,undefined,undefined,undefined,
zn4tgce594,undefined,undefined,undefined,undefined,105,23,4,EVELYN,EVELYN,true,2434.1599997133017,undefined,undefined,undefined,undefined,undefined,undefined,undefined,undefined,undefined,undefined,undefined,undefined,undefined,undefined,undefined,undefined,undefined,undefined,undefined,undefined,undefined,undefined,undefined,undefined,
zn4tgce594,undefined,undefined,undefined,undefined,106,28,4,LAUREN,FRANCES,false,11696.235000155866,undefined,undefined,undefined,undefined,undefined,undefined,undefined,undefined,undefined,undefined,undefined,undefined,undefined,undefined,undefined,undefined,undefined,undefined,undefined,undefined,undefined,undefined,undefined,undefined,
zn4tgce594,undefined,undefined,undefined,undefined,107,1,4,ALLEN,ALLEN,true,9519.125000108033,undefined,undefined,undefined,undefined,undefined,undefined,undefined,undefined,undefined,undefined,undefined,undefined,undefined,undefined,undefined,undefined,undefined,undefined,undefined,undefined,undefined,undefined,undefined,undefined,
zn4tgce594,undefined,undefined,undefined,undefined,108,26,4,EMILY,EMILY,true,3618.1900002993643,undefined,undefined,undefined,undefined,undefined,undefined,undefined,undefined,undefined,undefined,undefined,undefined,undefined,undefined,undefined,undefined,undefined,undefined,undefined,undefined,undefined,undefined,undefined,undefined,
zn4tgce594,undefined,undefined,undefined,undefined,109,15,4,TYLER,TYLER,true,2832.879999652505,undefined,undefined,undefined,undefined,undefined,undefined,undefined,undefined,undefined,undefined,undefined,undefined,undefined,undefined,undefined,undefined,undefined,undefined,undefined,undefined,undefined,undefined,undefined,undefined,
zn4tgce594,undefined,undefined,undefined,undefined,110,13,4,CHRIS,CHRIS,true,3919.685000088066,undefined,undefined,undefined,undefined,undefined,undefined,undefined,undefined,undefined,undefined,undefined,undefined,undefined,undefined,undefined,undefined,undefined,undefined,undefined,undefined,undefined,undefined,undefined,undefined,
zn4tgce594,undefined,undefined,undefined,undefined,111,17,4,WAYNE,WAYNE,true,3633.410000242293,undefined,undefined,undefined,undefined,undefined,undefined,undefined,undefined,undefined,undefined,undefined,undefined,undefined,undefined,undefined,undefined,undefined,undefined,undefined,undefined,undefined,undefined,undefined,undefined,
zn4tgce594,undefined,undefined,undefined,undefined,112,24,4,NATALIE,LAUREN,false,11217.135000042617,undefined,undefined,undefined,undefined,undefined,undefined,undefined,undefined,undefined,undefined,undefined,undefined,undefined,undefined,undefined,undefined,undefined,undefined,undefined,undefined,undefined,undefined,undefined,undefined,
zn4tgce594,undefined,undefined,undefined,undefined,113,9,4,LARRY,RYAN,false,15680.57500012219,undefined,undefined,undefined,undefined,undefined,undefined,undefined,undefined,undefined,undefined,undefined,undefined,undefined,undefined,undefined,undefined,undefined,undefined,undefined,undefined,undefined,undefined,undefined,undefined,
zn4tgce594,undefined,undefined,undefined,undefined,114,37,4,JULIE,LAUREN,false,5087.330000009388,undefined,undefined,undefined,undefined,undefined,undefined,undefined,undefined,undefined,undefined,undefined,undefined,undefined,undefined,undefined,undefined,undefined,undefined,undefined,undefined,undefined,undefined,undefined,undefined,
zn4tgce594,undefined,undefined,undefined,undefined,115,29,4,DENISE,DENISE,true,2561.524999793619,undefined,undefined,undefined,undefined,undefined,undefined,undefined,undefined,undefined,undefined,undefined,undefined,undefined,undefined,undefined,undefined,undefined,undefined,undefined,undefined,undefined,undefined,undefined,undefined,
zn4tgce594,undefined,undefined,undefined,undefined,116,3,4,KYLE,KYLE,true,2048.145000357181,undefined,undefined,undefined,undefined,undefined,undefined,undefined,undefined,undefined,undefined,undefined,undefined,undefined,undefined,undefined,undefined,undefined,undefined,undefined,undefined,undefined,undefined,undefined,undefined,
zn4tgce594,undefined,undefined,undefined,undefined,117,11,4,ROBERT,CHRIS,false,5744.529999792576,undefined,undefined,undefined,undefined,undefined,undefined,undefined,undefined,undefined,undefined,undefined,undefined,undefined,undefined,undefined,undefined,undefined,undefined,undefined,undefined,undefined,undefined,undefined,undefined,
zn4tgce594,undefined,undefined,undefined,undefined,118,4,4,CARTER,CARTER,true,2737.285000272095,undefined,undefined,undefined,undefined,undefined,undefined,undefined,undefined,undefined,undefined,undefined,undefined,undefined,undefined,undefined,undefined,undefined,undefined,undefined,undefined,undefined,undefined,undefined,undefined,
zn4tgce594,undefined,undefined,undefined,undefined,119,35,4,FRANCES,FRANCES,true,10081.439999863505,undefined,undefined,undefined,undefined,undefined,undefined,undefined,undefined,undefined,undefined,undefined,undefined,undefined,undefined,undefined,undefined,undefined,undefined,undefined,undefined,undefined,undefined,undefined,undefined,
zn4tgce594,undefined,undefined,undefined,undefined,120,20,4,MICHAEL,MICHAEL,true,2704.089999664575,undefined,undefined,undefined,undefined,undefined,undefined,undefined,undefined,undefined,undefined,undefined,undefined,undefined,undefined,undefined,undefined,undefined,undefined,undefined,undefined,undefined,undefined,undefined,undefined,
