SubNum,SubNum_demo,Exp_start_time,Exp_today_date,Exp_today_time,TrialNum,Condition,Face,Name,Response,NameAcc,RespTime,StudyTrialNum,StudyFace,StudyContext,StudyFamCond,TestTrialNum,TestFace,TestContext,TestSDCond,TestFamCond,TestResponse,TestResponseTime,Exp_end_time,Distractor_1_duration,Distractor_2_duration,
2oxkp1ley0,q8kc11col7,Wed Nov 25 2020 13:14:18 GMT-0600 (Central Standard Time),2020-11-25,13:14:18,1,Know,27,SARAH,SARAH,true,2219.7849999647588,1,16,19,1,1,32,30,0,0,0,3371.55999999959,13:35:12,120084.12999997381,61420.42500001844,
2oxkp1ley0,undefined,undefined,undefined,undefined,2,Know,30,SAMANTHA,SAMANTHA,true,2261.845000088215,2,35,6,2,2,21,34,0,2,0,1450.2550000324845,undefined,131969.2550000036,undefined,
2oxkp1ley0,undefined,undefined,undefined,undefined,3,Familiar,29,NA,NA,NA,NA,3,3,24,0,3,10,10,0,0,1,1687.5949999084696,undefined,undefined,undefined,
2oxkp1ley0,undefined,undefined,undefined,undefined,4,Know,16,MEGAN,MEGAN,true,1771.085000014864,4,29,2,0,4,1,15,1,0,0,1342.7199999568984,undefined,undefined,undefined,
2oxkp1ley0,undefined,undefined,undefined,undefined,5,Familiar,32,NA,NA,NA,NA,5,7,31,1,5,16,19,0,1,0,1188.5750000365078,undefined,undefined,undefined,
2oxkp1ley0,undefined,undefined,undefined,undefined,6,Familiar,10,NA,NA,NA,NA,6,21,34,2,6,6,18,1,1,1,1524.8349999310449,undefined,undefined,undefined,
2oxkp1ley0,undefined,undefined,undefined,undefined,7,Know,9,ALYSSA,ALYSSA,true,2004.6500000171363,7,18,3,2,7,12,12,1,1,1,1430.835000006482,undefined,undefined,undefined,
2oxkp1ley0,undefined,undefined,undefined,undefined,8,Familiar,25,NA,NA,NA,NA,8,11,33,0,8,8,8,0,2,0,1508.6400000145659,undefined,undefined,undefined,
2oxkp1ley0,undefined,undefined,undefined,undefined,9,Familiar,11,NA,NA,NA,NA,9,26,27,1,9,24,35,1,0,1,1205.6600000942126,undefined,undefined,undefined,
2oxkp1ley0,undefined,undefined,undefined,undefined,10,Know,2,AUDREY,AUDREY,true,2297.535000019707,10,17,1,1,10,25,32,0,0,0,1506.4100000308827,undefined,undefined,undefined,
2oxkp1ley0,undefined,undefined,undefined,undefined,11,Know,7,REBECCA,REBECCA,true,2198.560000048019,11,34,36,2,11,2,22,0,1,0,890.8599999267608,undefined,undefined,undefined,
2oxkp1ley0,undefined,undefined,undefined,undefined,12,Familiar,19,NA,NA,NA,NA,12,2,22,1,12,22,26,1,2,0,1806.1900000320747,undefined,undefined,undefined,
2oxkp1ley0,undefined,undefined,undefined,undefined,13,Familiar,3,NA,NA,NA,NA,13,6,12,1,13,9,21,0,1,1,1439.3399999244139,undefined,undefined,undefined,
2oxkp1ley0,undefined,undefined,undefined,undefined,14,Know,12,JESSICA,JESSICA,true,2207.9599999124184,14,25,32,0,14,19,4,0,0,0,2187.809999915771,undefined,undefined,undefined,
2oxkp1ley0,undefined,undefined,undefined,undefined,15,Know,36,KAREN,KAREN,true,1287.1599999489263,15,23,26,2,15,4,24,1,0,1,1702.8799999970943,undefined,undefined,undefined,
2oxkp1ley0,undefined,undefined,undefined,undefined,16,Familiar,1,NA,NA,NA,NA,16,9,21,1,16,23,5,1,2,0,1530.2300000330433,undefined,undefined,undefined,
2oxkp1ley0,undefined,undefined,undefined,undefined,17,Familiar,4,NA,NA,NA,NA,17,1,35,0,17,27,9,0,1,0,1584.025000105612,undefined,undefined,undefined,
2oxkp1ley0,undefined,undefined,undefined,undefined,18,Know,6,NICOLE,NICOLE,true,1396.4100000448525,18,12,18,1,18,14,20,1,1,1,1369.1450000042096,undefined,undefined,undefined,
2oxkp1ley0,undefined,undefined,undefined,undefined,19,Know,17,JENNIFER,JENNIFER,true,2836.2349999370053,19,24,15,0,19,11,33,0,0,0,2243.834999972023,undefined,undefined,undefined,
2oxkp1ley0,undefined,undefined,undefined,undefined,20,Familiar,24,NA,NA,NA,NA,20,22,5,2,20,3,28,1,0,1,1420.0000000419095,undefined,undefined,undefined,
2oxkp1ley0,undefined,undefined,undefined,undefined,21,Familiar,5,NA,NA,NA,NA,21,13,17,2,21,30,16,0,1,1,1345.4850000562146,undefined,undefined,undefined,
2oxkp1ley0,undefined,undefined,undefined,undefined,22,Know,26,CHLOE,CHLOE,true,1675.0100000062957,22,5,14,0,22,31,36,1,2,1,2771.1099999723956,undefined,undefined,undefined,
2oxkp1ley0,undefined,undefined,undefined,undefined,23,Know,14,ELIZABETH,ELIZABETH,true,3158.8950000004843,23,20,11,2,23,34,25,1,2,1,967.5199999473989,undefined,undefined,undefined,
2oxkp1ley0,undefined,undefined,undefined,undefined,24,Familiar,15,NA,NA,NA,NA,24,31,25,2,24,15,14,1,0,1,2545.0049999635667,undefined,undefined,undefined,
2oxkp1ley0,undefined,undefined,undefined,undefined,25,Know,6,NICOLE,ELIZABETH,false,8065.699999919161,25,4,28,0,25,7,31,0,1,1,1185.5849999701604,undefined,undefined,undefined,
2oxkp1ley0,undefined,undefined,undefined,undefined,26,Familiar,32,NA,NA,NA,NA,26,36,20,1,26,28,13,0,2,0,2284.5900000538677,undefined,undefined,undefined,
2oxkp1ley0,undefined,undefined,undefined,undefined,27,Familiar,5,NA,NA,NA,NA,27,10,10,0,27,18,3,0,2,1,2623.55999997817,undefined,undefined,undefined,
2oxkp1ley0,undefined,undefined,undefined,undefined,28,Know,16,MEGAN,ELIZABETH,false,7049.319999990985,28,33,23,2,28,5,29,1,0,1,1084.9099999759346,undefined,undefined,undefined,
2oxkp1ley0,undefined,undefined,undefined,undefined,29,Know,9,ALYSSA,SARAH,false,3194.924999959767,29,32,30,0,29,36,7,1,1,0,1712.7099999925122,undefined,undefined,undefined,
2oxkp1ley0,undefined,undefined,undefined,undefined,30,Familiar,11,NA,NA,NA,NA,30,19,4,0,30,13,17,0,2,1,2030.4150000447407,undefined,undefined,undefined,
2oxkp1ley0,undefined,undefined,undefined,undefined,31,Know,26,CHLOE,NICOLE,false,9981.885000015609,31,30,16,1,31,17,27,1,1,0,1987.5949999550357,undefined,undefined,undefined,
2oxkp1ley0,undefined,undefined,undefined,undefined,32,Familiar,3,NA,NA,NA,NA,32,27,9,1,32,33,11,1,2,1,1483.185000019148,undefined,undefined,undefined,
2oxkp1ley0,undefined,undefined,undefined,undefined,33,Know,14,ELIZABETH,NICOLE,false,3133.0999999772757,33,8,8,2,33,29,2,0,0,0,1652.129999944009,undefined,undefined,undefined,
2oxkp1ley0,undefined,undefined,undefined,undefined,34,Know,7,REBECCA,NICOLE,false,5896.9200000865385,34,28,13,2,34,20,23,1,2,1,1235.839999979362,undefined,undefined,undefined,
2oxkp1ley0,undefined,undefined,undefined,undefined,35,Familiar,15,NA,NA,NA,NA,35,14,7,1,35,26,1,1,1,0,1243.324999930337,undefined,undefined,undefined,
2oxkp1ley0,undefined,undefined,undefined,undefined,36,Know,36,KAREN,NICOLE,false,5509.979999973439,36,15,29,0,36,35,6,0,2,0,1300.7099999813363,undefined,undefined,undefined,
2oxkp1ley0,undefined,undefined,undefined,undefined,37,Know,2,AUDREY,SARAH,false,2010.2550000883639,37,30,16,1,undefined,undefined,undefined,undefined,undefined,undefined,undefined,undefined,undefined,undefined,
2oxkp1ley0,undefined,undefined,undefined,undefined,38,Familiar,4,NA,NA,NA,NA,38,33,23,2,undefined,undefined,undefined,undefined,undefined,undefined,undefined,undefined,undefined,undefined,
2oxkp1ley0,undefined,undefined,undefined,undefined,39,Familiar,1,NA,NA,NA,NA,39,27,9,1,undefined,undefined,undefined,undefined,undefined,undefined,undefined,undefined,undefined,undefined,
2oxkp1ley0,undefined,undefined,undefined,undefined,40,Know,30,SAMANTHA,SARAH,false,3684.389999951236,40,25,32,0,undefined,undefined,undefined,undefined,undefined,undefined,undefined,undefined,undefined,undefined,
2oxkp1ley0,undefined,undefined,undefined,undefined,41,Familiar,29,NA,NA,NA,NA,41,12,18,1,undefined,undefined,undefined,undefined,undefined,undefined,undefined,undefined,undefined,undefined,
2oxkp1ley0,undefined,undefined,undefined,undefined,42,Know,17,JENNIFER,ELIZABETH,false,9048.985000001267,42,29,2,0,undefined,undefined,undefined,undefined,undefined,undefined,undefined,undefined,undefined,undefined,
2oxkp1ley0,undefined,undefined,undefined,undefined,43,Know,27,SARAH,ELIZABETH,false,8299.56499999389,43,24,15,0,undefined,undefined,undefined,undefined,undefined,undefined,undefined,undefined,undefined,undefined,
2oxkp1ley0,undefined,undefined,undefined,undefined,44,Familiar,19,NA,NA,NA,NA,44,6,12,1,undefined,undefined,undefined,undefined,undefined,undefined,undefined,undefined,undefined,undefined,
2oxkp1ley0,undefined,undefined,undefined,undefined,45,Familiar,24,NA,NA,NA,NA,45,18,3,2,undefined,undefined,undefined,undefined,undefined,undefined,undefined,undefined,undefined,undefined,
2oxkp1ley0,undefined,undefined,undefined,undefined,46,Know,12,JESSICA,AUDREY,false,3626.9450000254437,46,2,22,1,undefined,undefined,undefined,undefined,undefined,undefined,undefined,undefined,undefined,undefined,
2oxkp1ley0,undefined,undefined,undefined,undefined,47,Familiar,10,NA,NA,NA,NA,47,36,20,1,undefined,undefined,undefined,undefined,undefined,undefined,undefined,undefined,undefined,undefined,
2oxkp1ley0,undefined,undefined,undefined,undefined,48,Familiar,25,NA,NA,NA,NA,48,5,14,0,undefined,undefined,undefined,undefined,undefined,undefined,undefined,undefined,undefined,undefined,
2oxkp1ley0,undefined,undefined,undefined,undefined,49,Know,30,SAMANTHA,AUDREY,false,9289.639999973588,49,26,27,1,undefined,undefined,undefined,undefined,undefined,undefined,undefined,undefined,undefined,undefined,
2oxkp1ley0,undefined,undefined,undefined,undefined,50,Know,14,ELIZABETH,ELIZABETH,true,12635.8299999265,50,17,1,1,undefined,undefined,undefined,undefined,undefined,undefined,undefined,undefined,undefined,undefined,
2oxkp1ley0,undefined,undefined,undefined,undefined,51,Familiar,32,NA,NA,NA,NA,51,11,33,0,undefined,undefined,undefined,undefined,undefined,undefined,undefined,undefined,undefined,undefined,
2oxkp1ley0,undefined,undefined,undefined,undefined,52,Familiar,15,NA,NA,NA,NA,52,28,13,2,undefined,undefined,undefined,undefined,undefined,undefined,undefined,undefined,undefined,undefined,
2oxkp1ley0,undefined,undefined,undefined,undefined,53,Know,6,NICOLE,CHOLE,false,4563.730000052601,53,9,21,1,undefined,undefined,undefined,undefined,undefined,undefined,undefined,undefined,undefined,undefined,
2oxkp1ley0,undefined,undefined,undefined,undefined,54,Familiar,29,NA,NA,NA,NA,54,4,28,0,undefined,undefined,undefined,undefined,undefined,undefined,undefined,undefined,undefined,undefined,
2oxkp1ley0,undefined,undefined,undefined,undefined,55,Know,16,MEGAN,CHOLE,false,6456.4200000604615,55,21,34,2,undefined,undefined,undefined,undefined,undefined,undefined,undefined,undefined,undefined,undefined,
2oxkp1ley0,undefined,undefined,undefined,undefined,56,Know,9,ALYSSA,CHOLE,false,4940.895000007004,56,20,11,2,undefined,undefined,undefined,undefined,undefined,undefined,undefined,undefined,undefined,undefined,
2oxkp1ley0,undefined,undefined,undefined,undefined,57,Familiar,10,NA,NA,NA,NA,57,10,10,0,undefined,undefined,undefined,undefined,undefined,undefined,undefined,undefined,undefined,undefined,
2oxkp1ley0,undefined,undefined,undefined,undefined,58,Know,12,JESSICA,SARAH,false,3370.7350000040606,58,1,35,0,undefined,undefined,undefined,undefined,undefined,undefined,undefined,undefined,undefined,undefined,
2oxkp1ley0,undefined,undefined,undefined,undefined,59,Familiar,19,NA,NA,NA,NA,59,14,7,1,undefined,undefined,undefined,undefined,undefined,undefined,undefined,undefined,undefined,undefined,
2oxkp1ley0,undefined,undefined,undefined,undefined,60,Know,27,SARAH,SARAH,true,3582.0499999681488,60,35,6,2,undefined,undefined,undefined,undefined,undefined,undefined,undefined,undefined,undefined,undefined,
2oxkp1ley0,undefined,undefined,undefined,undefined,61,Know,17,JENNIFER,CHOLE,false,4689.394999993965,61,34,36,2,undefined,undefined,undefined,undefined,undefined,undefined,undefined,undefined,undefined,undefined,
2oxkp1ley0,undefined,undefined,undefined,undefined,62,Familiar,3,NA,NA,NA,NA,62,19,4,0,undefined,undefined,undefined,undefined,undefined,undefined,undefined,undefined,undefined,undefined,
2oxkp1ley0,undefined,undefined,undefined,undefined,63,Know,36,KAREN,KAREN,true,2014.0949999913573,63,13,17,2,undefined,undefined,undefined,undefined,undefined,undefined,undefined,undefined,undefined,undefined,
2oxkp1ley0,undefined,undefined,undefined,undefined,64,Familiar,25,NA,NA,NA,NA,64,3,24,0,undefined,undefined,undefined,undefined,undefined,undefined,undefined,undefined,undefined,undefined,
2oxkp1ley0,undefined,undefined,undefined,undefined,65,Know,2,AUDREY,AUDREY,true,3787.5500000081956,65,31,25,2,undefined,undefined,undefined,undefined,undefined,undefined,undefined,undefined,undefined,undefined,
2oxkp1ley0,undefined,undefined,undefined,undefined,66,Familiar,1,NA,NA,NA,NA,66,15,29,0,undefined,undefined,undefined,undefined,undefined,undefined,undefined,undefined,undefined,undefined,
2oxkp1ley0,undefined,undefined,undefined,undefined,67,Familiar,11,NA,NA,NA,NA,67,32,30,0,undefined,undefined,undefined,undefined,undefined,undefined,undefined,undefined,undefined,undefined,
2oxkp1ley0,undefined,undefined,undefined,undefined,68,Know,26,CHLOE,CHOLE,false,5296.804999932647,68,8,8,2,undefined,undefined,undefined,undefined,undefined,undefined,undefined,undefined,undefined,undefined,
2oxkp1ley0,undefined,undefined,undefined,undefined,69,Familiar,4,NA,NA,NA,NA,69,22,5,2,undefined,undefined,undefined,undefined,undefined,undefined,undefined,undefined,undefined,undefined,
2oxkp1ley0,undefined,undefined,undefined,undefined,70,Familiar,24,NA,NA,NA,NA,70,16,19,1,undefined,undefined,undefined,undefined,undefined,undefined,undefined,undefined,undefined,undefined,
2oxkp1ley0,undefined,undefined,undefined,undefined,71,Know,7,REBECCA,SARAH,false,3708.805000060238,71,7,31,1,undefined,undefined,undefined,undefined,undefined,undefined,undefined,undefined,undefined,undefined,
2oxkp1ley0,undefined,undefined,undefined,undefined,72,Familiar,5,NA,NA,NA,NA,72,23,26,2,undefined,undefined,undefined,undefined,undefined,undefined,undefined,undefined,undefined,undefined,
2oxkp1ley0,undefined,undefined,undefined,undefined,73,Familiar,3,NA,NA,NA,NA,undefined,undefined,undefined,undefined,undefined,undefined,undefined,undefined,undefined,undefined,undefined,undefined,undefined,undefined,
2oxkp1ley0,undefined,undefined,undefined,undefined,74,Know,7,REBECCA,REBECCA,true,2422.3650000058115,undefined,undefined,undefined,undefined,undefined,undefined,undefined,undefined,undefined,undefined,undefined,undefined,undefined,undefined,
2oxkp1ley0,undefined,undefined,undefined,undefined,75,Know,17,JENNIFER,CHLOE,false,3533.8000000920147,undefined,undefined,undefined,undefined,undefined,undefined,undefined,undefined,undefined,undefined,undefined,undefined,undefined,undefined,
2oxkp1ley0,undefined,undefined,undefined,undefined,76,Familiar,32,NA,NA,NA,NA,undefined,undefined,undefined,undefined,undefined,undefined,undefined,undefined,undefined,undefined,undefined,undefined,undefined,undefined,
2oxkp1ley0,undefined,undefined,undefined,undefined,77,Know,2,AUDREY,AUDREY,true,2162.690000026487,undefined,undefined,undefined,undefined,undefined,undefined,undefined,undefined,undefined,undefined,undefined,undefined,undefined,undefined,
2oxkp1ley0,undefined,undefined,undefined,undefined,78,Familiar,29,NA,NA,NA,NA,undefined,undefined,undefined,undefined,undefined,undefined,undefined,undefined,undefined,undefined,undefined,undefined,undefined,undefined,
2oxkp1ley0,undefined,undefined,undefined,undefined,79,Familiar,1,NA,NA,NA,NA,undefined,undefined,undefined,undefined,undefined,undefined,undefined,undefined,undefined,undefined,undefined,undefined,undefined,undefined,
2oxkp1ley0,undefined,undefined,undefined,undefined,80,Know,27,SARAH,ALYSSA,false,7391.305000055581,undefined,undefined,undefined,undefined,undefined,undefined,undefined,undefined,undefined,undefined,undefined,undefined,undefined,undefined,
2oxkp1ley0,undefined,undefined,undefined,undefined,81,Know,14,ELIZABETH,ELIZABETH,true,5242.889999994077,undefined,undefined,undefined,undefined,undefined,undefined,undefined,undefined,undefined,undefined,undefined,undefined,undefined,undefined,
2oxkp1ley0,undefined,undefined,undefined,undefined,82,Familiar,19,NA,NA,NA,NA,undefined,undefined,undefined,undefined,undefined,undefined,undefined,undefined,undefined,undefined,undefined,undefined,undefined,undefined,
2oxkp1ley0,undefined,undefined,undefined,undefined,83,Know,30,SAMANTHA,ELIZABETH,false,4727.674999972805,undefined,undefined,undefined,undefined,undefined,undefined,undefined,undefined,undefined,undefined,undefined,undefined,undefined,undefined,
2oxkp1ley0,undefined,undefined,undefined,undefined,84,Know,6,NICOLE,ELIZABETH,false,8435.564999934286,undefined,undefined,undefined,undefined,undefined,undefined,undefined,undefined,undefined,undefined,undefined,undefined,undefined,undefined,
2oxkp1ley0,undefined,undefined,undefined,undefined,85,Familiar,15,NA,NA,NA,NA,undefined,undefined,undefined,undefined,undefined,undefined,undefined,undefined,undefined,undefined,undefined,undefined,undefined,undefined,
2oxkp1ley0,undefined,undefined,undefined,undefined,86,Familiar,4,NA,NA,NA,NA,undefined,undefined,undefined,undefined,undefined,undefined,undefined,undefined,undefined,undefined,undefined,undefined,undefined,undefined,
2oxkp1ley0,undefined,undefined,undefined,undefined,87,Know,36,KAREN,KAREN,true,2542.2799999359995,undefined,undefined,undefined,undefined,undefined,undefined,undefined,undefined,undefined,undefined,undefined,undefined,undefined,undefined,
2oxkp1ley0,undefined,undefined,undefined,undefined,88,Know,12,JESSICA,ALYSSA,false,6045.990000013262,undefined,undefined,undefined,undefined,undefined,undefined,undefined,undefined,undefined,undefined,undefined,undefined,undefined,undefined,
2oxkp1ley0,undefined,undefined,undefined,undefined,89,Familiar,25,NA,NA,NA,NA,undefined,undefined,undefined,undefined,undefined,undefined,undefined,undefined,undefined,undefined,undefined,undefined,undefined,undefined,
2oxkp1ley0,undefined,undefined,undefined,undefined,90,Know,9,ALYSSA,ELIZABETH,false,4466.2549999775365,undefined,undefined,undefined,undefined,undefined,undefined,undefined,undefined,undefined,undefined,undefined,undefined,undefined,undefined,
2oxkp1ley0,undefined,undefined,undefined,undefined,91,Know,16,MEGAN,ELIZABETH,false,3126.730000018142,undefined,undefined,undefined,undefined,undefined,undefined,undefined,undefined,undefined,undefined,undefined,undefined,undefined,undefined,
2oxkp1ley0,undefined,undefined,undefined,undefined,92,Familiar,5,NA,NA,NA,NA,undefined,undefined,undefined,undefined,undefined,undefined,undefined,undefined,undefined,undefined,undefined,undefined,undefined,undefined,
2oxkp1ley0,undefined,undefined,undefined,undefined,93,Familiar,10,NA,NA,NA,NA,undefined,undefined,undefined,undefined,undefined,undefined,undefined,undefined,undefined,undefined,undefined,undefined,undefined,undefined,
2oxkp1ley0,undefined,undefined,undefined,undefined,94,Know,26,CHLOE,MEGAN,false,3177.694999962114,undefined,undefined,undefined,undefined,undefined,undefined,undefined,undefined,undefined,undefined,undefined,undefined,undefined,undefined,
2oxkp1ley0,undefined,undefined,undefined,undefined,95,Familiar,24,NA,NA,NA,NA,undefined,undefined,undefined,undefined,undefined,undefined,undefined,undefined,undefined,undefined,undefined,undefined,undefined,undefined,
2oxkp1ley0,undefined,undefined,undefined,undefined,96,Familiar,11,NA,NA,NA,NA,undefined,undefined,undefined,undefined,undefined,undefined,undefined,undefined,undefined,undefined,undefined,undefined,undefined,undefined,
