SubNum,SubNum_demo,Exp_start_time,Exp_today_date,Exp_today_time,TrialNum,Condition,Face,Name,Response,NameAcc,RespTime,StudyTrialNum,StudyFace,StudyContext,StudyFamCond,TestTrialNum,TestFace,TestContext,TestSDCond,TestFamCond,TestResponse,TestResponseTime,Exp_end_time,Distractor_1_duration,Distractor_2_duration,
azwkshy9c9,1w6e0cjjcg,Mon Oct 19 2020 23:24:22 GMT-0500 (Central Daylight Time),2020-10-19,23:24:22,1,Familiar,34,NA,NA,NA,NA,1,17,4,1,1,33,19,1,1,1,6081.165000330657,23:50:18,123287.06999961287,61386.28999982029,
azwkshy9c9,undefined,undefined,undefined,undefined,2,Familiar,29,NA,NA,NA,NA,2,11,11,1,2,6,30,1,0,1,4351.714999880642,undefined,undefined,undefined,
azwkshy9c9,undefined,undefined,undefined,undefined,3,Know,13,REBECCA,REBECCA,true,7696.32999971509,3,21,22,2,3,35,12,0,2,0,2006.3099996186793,undefined,undefined,undefined,
azwkshy9c9,undefined,undefined,undefined,undefined,4,Familiar,27,NA,NA,NA,NA,4,19,32,2,4,1,14,0,2,0,1926.6599998809397,undefined,undefined,undefined,
azwkshy9c9,undefined,undefined,undefined,undefined,5,Familiar,10,NA,NA,NA,NA,5,25,19,1,5,8,23,0,1,0,1776.049999985844,undefined,undefined,undefined,
azwkshy9c9,undefined,undefined,undefined,undefined,6,Know,15,LISA,LISA,true,3938.3350000716746,6,15,33,1,6,19,17,1,2,0,3044.6500000543892,undefined,undefined,undefined,
azwkshy9c9,undefined,undefined,undefined,undefined,7,Know,8,MARY,MARY,true,3737.7050002105534,7,3,2,2,7,11,11,0,1,0,2296.9999997876585,undefined,undefined,undefined,
azwkshy9c9,undefined,undefined,undefined,undefined,8,Familiar,28,NA,NA,NA,NA,8,22,28,1,8,14,9,1,0,0,5046.934999991208,undefined,undefined,undefined,
azwkshy9c9,undefined,undefined,undefined,undefined,9,Familiar,9,NA,NA,NA,NA,9,28,31,0,9,7,15,1,0,1,2024.4800001382828,undefined,undefined,undefined,
azwkshy9c9,undefined,undefined,undefined,undefined,10,Know,11,JESSICA,JESSICA,true,5678.139999974519,10,8,23,1,10,2,34,0,2,0,5313.459999859333,undefined,undefined,undefined,
azwkshy9c9,undefined,undefined,undefined,undefined,11,Know,16,STEPHANIE,STEPHANIE,true,5388.375000096858,11,30,20,0,11,12,26,0,2,0,1666.3000001572073,undefined,undefined,undefined,
azwkshy9c9,undefined,undefined,undefined,undefined,12,Familiar,31,NA,NA,NA,NA,12,18,5,2,12,25,35,1,1,1,5039.965000003576,undefined,undefined,undefined,
azwkshy9c9,undefined,undefined,undefined,undefined,13,Know,5,SOFIA,SOFIA,true,3971.2550002150238,13,5,10,1,13,36,32,1,2,1,2524.560000281781,undefined,undefined,undefined,
azwkshy9c9,undefined,undefined,undefined,undefined,14,Familiar,7,NA,NA,NA,NA,14,10,27,0,14,20,25,1,1,1,3305.180000141263,undefined,undefined,undefined,
azwkshy9c9,undefined,undefined,undefined,undefined,15,Know,22,EMILY,EMILY,true,3355.5600000545382,15,36,17,2,15,21,5,1,2,0,3468.400000128895,undefined,undefined,undefined,
azwkshy9c9,undefined,undefined,undefined,undefined,16,Know,20,MEGAN,MEGAN,true,3352.4400000460446,16,34,36,0,16,18,22,1,2,1,4317.090000025928,undefined,undefined,undefined,
azwkshy9c9,undefined,undefined,undefined,undefined,17,Familiar,24,NA,NA,NA,NA,17,6,9,0,17,34,36,0,0,0,1897.504999767989,undefined,undefined,undefined,
azwkshy9c9,undefined,undefined,undefined,undefined,18,Know,26,ALYSSA,ALYSSA,true,3681.1049999669194,18,23,24,2,18,24,8,1,0,1,2209.109999705106,undefined,undefined,undefined,
azwkshy9c9,undefined,undefined,undefined,undefined,19,Know,25,COURTNEY,COURTNEY,true,4850.710000377148,19,13,13,1,19,10,27,0,0,0,3658.635000232607,undefined,undefined,undefined,
azwkshy9c9,undefined,undefined,undefined,undefined,20,Familiar,30,NA,NA,NA,NA,20,35,12,2,20,26,7,1,1,1,2228.1550001353025,undefined,undefined,undefined,
azwkshy9c9,undefined,undefined,undefined,undefined,21,Familiar,14,NA,NA,NA,NA,21,26,25,1,21,16,1,0,1,0,4115.789999719709,undefined,undefined,undefined,
azwkshy9c9,undefined,undefined,undefined,undefined,22,Know,17,KAREN,KAREN,true,3286.4400004036725,22,7,8,0,22,22,4,1,1,1,4031.085000373423,undefined,undefined,undefined,
azwkshy9c9,undefined,undefined,undefined,undefined,23,Know,33,PATRICIA,PATRICIA,true,4803.760000038892,23,9,3,0,23,17,28,1,1,1,1516.234999988228,undefined,undefined,undefined,
azwkshy9c9,undefined,undefined,undefined,undefined,24,Familiar,6,NA,NA,NA,NA,24,16,1,1,24,5,10,0,1,0,2110.1200003176928,undefined,undefined,undefined,
azwkshy9c9,undefined,undefined,undefined,undefined,25,Familiar,24,NA,NA,NA,NA,25,4,16,2,25,13,13,0,1,0,10809.009999968112,undefined,undefined,undefined,
azwkshy9c9,undefined,undefined,undefined,undefined,26,Know,17,KAREN,KAREN,true,5496.344999875873,26,31,21,0,26,3,29,1,2,1,1827.4600002914667,undefined,undefined,undefined,
azwkshy9c9,undefined,undefined,undefined,undefined,27,Know,5,SOFIA,EMILY,false,10515.39000030607,27,32,29,2,27,4,16,0,2,0,2942.275000270456,undefined,undefined,undefined,
azwkshy9c9,undefined,undefined,undefined,undefined,28,Familiar,7,NA,NA,NA,NA,28,33,35,1,28,28,31,0,0,0,2829.604999627918,undefined,undefined,undefined,
azwkshy9c9,undefined,undefined,undefined,undefined,29,Familiar,27,NA,NA,NA,NA,29,29,18,0,29,27,6,0,0,0,1856.0100002214313,undefined,undefined,undefined,
azwkshy9c9,undefined,undefined,undefined,undefined,30,Know,13,REBECCA,COURTNEY,false,13547.5949998945,30,14,30,0,30,31,20,1,0,0,2166.6650003753603,undefined,undefined,undefined,
azwkshy9c9,undefined,undefined,undefined,undefined,31,Familiar,14,NA,NA,NA,NA,31,12,26,2,31,15,33,0,1,0,1404.6799996867776,undefined,undefined,undefined,
azwkshy9c9,undefined,undefined,undefined,undefined,32,Know,25,COURTNEY,EMILY,false,5557.994999922812,32,24,15,0,32,9,3,0,0,0,2619.429999962449,undefined,undefined,undefined,
azwkshy9c9,undefined,undefined,undefined,undefined,33,Know,16,STEPHANIE,EMILY,false,5962.815000209957,33,2,34,2,33,32,2,1,2,1,1629.1249999776483,undefined,undefined,undefined,
azwkshy9c9,undefined,undefined,undefined,undefined,34,Familiar,34,NA,NA,NA,NA,34,27,6,0,34,30,21,1,0,0,3092.7349999547005,undefined,undefined,undefined,
azwkshy9c9,undefined,undefined,undefined,undefined,35,Know,8,MARY,ALYSSA,false,17615.06999982521,35,1,14,2,35,29,18,0,0,0,1881.9149998016655,undefined,undefined,undefined,
azwkshy9c9,undefined,undefined,undefined,undefined,36,Familiar,31,NA,NA,NA,NA,36,20,7,1,36,23,24,0,2,0,1528.775000013411,undefined,undefined,undefined,
azwkshy9c9,undefined,undefined,undefined,undefined,37,Familiar,6,NA,NA,NA,NA,37,16,1,1,undefined,undefined,undefined,undefined,undefined,undefined,undefined,undefined,undefined,undefined,
azwkshy9c9,undefined,undefined,undefined,undefined,38,Know,11,JESSICA,EMILY,false,9322.035000193864,38,6,9,0,undefined,undefined,undefined,undefined,undefined,undefined,undefined,undefined,undefined,undefined,
azwkshy9c9,undefined,undefined,undefined,undefined,39,Know,15,LISA,ALYSSA,false,17106.500000227243,39,10,27,0,undefined,undefined,undefined,undefined,undefined,undefined,undefined,undefined,undefined,undefined,
azwkshy9c9,undefined,undefined,undefined,undefined,40,Familiar,28,NA,NA,NA,NA,40,35,12,2,undefined,undefined,undefined,undefined,undefined,undefined,undefined,undefined,undefined,undefined,
azwkshy9c9,undefined,undefined,undefined,undefined,41,Know,33,PATRICIA,EMILY,false,9285.510000307113,41,14,30,0,undefined,undefined,undefined,undefined,undefined,undefined,undefined,undefined,undefined,undefined,
azwkshy9c9,undefined,undefined,undefined,undefined,42,Familiar,30,NA,NA,NA,NA,42,18,5,2,undefined,undefined,undefined,undefined,undefined,undefined,undefined,undefined,undefined,undefined,
azwkshy9c9,undefined,undefined,undefined,undefined,43,Know,20,MEGAN,EMILY,false,5800.674999598414,43,4,16,2,undefined,undefined,undefined,undefined,undefined,undefined,undefined,undefined,undefined,undefined,
azwkshy9c9,undefined,undefined,undefined,undefined,44,Know,26,ALYSSA,EMILY,false,12770.424999762326,44,22,28,1,undefined,undefined,undefined,undefined,undefined,undefined,undefined,undefined,undefined,undefined,
azwkshy9c9,undefined,undefined,undefined,undefined,45,Familiar,10,NA,NA,NA,NA,45,26,25,1,undefined,undefined,undefined,undefined,undefined,undefined,undefined,undefined,undefined,undefined,
azwkshy9c9,undefined,undefined,undefined,undefined,46,Familiar,9,NA,NA,NA,NA,46,36,17,2,undefined,undefined,undefined,undefined,undefined,undefined,undefined,undefined,undefined,undefined,
azwkshy9c9,undefined,undefined,undefined,undefined,47,Know,22,EMILY,EMILY,true,6140.134999994189,47,9,3,0,undefined,undefined,undefined,undefined,undefined,undefined,undefined,undefined,undefined,undefined,
azwkshy9c9,undefined,undefined,undefined,undefined,48,Familiar,29,NA,NA,NA,NA,48,7,8,0,undefined,undefined,undefined,undefined,undefined,undefined,undefined,undefined,undefined,undefined,
azwkshy9c9,undefined,undefined,undefined,undefined,49,Know,17,KAREN,KAREN,true,3849.8799996450543,49,33,35,1,undefined,undefined,undefined,undefined,undefined,undefined,undefined,undefined,undefined,undefined,
azwkshy9c9,undefined,undefined,undefined,undefined,50,Know,16,STEPHANIE,STEPHANIE,true,11998.249999713153,50,12,26,2,undefined,undefined,undefined,undefined,undefined,undefined,undefined,undefined,undefined,undefined,
azwkshy9c9,undefined,undefined,undefined,undefined,51,Familiar,28,NA,NA,NA,NA,51,20,7,1,undefined,undefined,undefined,undefined,undefined,undefined,undefined,undefined,undefined,undefined,
azwkshy9c9,undefined,undefined,undefined,undefined,52,Familiar,29,NA,NA,NA,NA,52,8,23,1,undefined,undefined,undefined,undefined,undefined,undefined,undefined,undefined,undefined,undefined,
azwkshy9c9,undefined,undefined,undefined,undefined,53,Know,33,PATRICIA,PATRICIA,true,4727.885000407696,53,31,21,0,undefined,undefined,undefined,undefined,undefined,undefined,undefined,undefined,undefined,undefined,
azwkshy9c9,undefined,undefined,undefined,undefined,54,Know,5,SOFIA,ALYSSA,false,16765.170000027865,54,25,19,1,undefined,undefined,undefined,undefined,undefined,undefined,undefined,undefined,undefined,undefined,
azwkshy9c9,undefined,undefined,undefined,undefined,55,Familiar,14,NA,NA,NA,NA,55,28,31,0,undefined,undefined,undefined,undefined,undefined,undefined,undefined,undefined,undefined,undefined,
azwkshy9c9,undefined,undefined,undefined,undefined,56,Know,11,JESSICA,ALYSSA,false,8015.610000118613,56,23,24,2,undefined,undefined,undefined,undefined,undefined,undefined,undefined,undefined,undefined,undefined,
azwkshy9c9,undefined,undefined,undefined,undefined,57,Familiar,30,NA,NA,NA,NA,57,29,18,0,undefined,undefined,undefined,undefined,undefined,undefined,undefined,undefined,undefined,undefined,
azwkshy9c9,undefined,undefined,undefined,undefined,58,Familiar,9,NA,NA,NA,NA,58,27,6,0,undefined,undefined,undefined,undefined,undefined,undefined,undefined,undefined,undefined,undefined,
azwkshy9c9,undefined,undefined,undefined,undefined,59,Know,26,ALYSSA,ALYSSA,true,5163.524999748915,59,19,32,2,undefined,undefined,undefined,undefined,undefined,undefined,undefined,undefined,undefined,undefined,
azwkshy9c9,undefined,undefined,undefined,undefined,60,Familiar,27,NA,NA,NA,NA,60,32,29,2,undefined,undefined,undefined,undefined,undefined,undefined,undefined,undefined,undefined,undefined,
azwkshy9c9,undefined,undefined,undefined,undefined,61,Know,25,COURTNEY,COURTNEY,true,17547.0900000073,61,17,4,1,undefined,undefined,undefined,undefined,undefined,undefined,undefined,undefined,undefined,undefined,
azwkshy9c9,undefined,undefined,undefined,undefined,62,Familiar,24,NA,NA,NA,NA,62,13,13,1,undefined,undefined,undefined,undefined,undefined,undefined,undefined,undefined,undefined,undefined,
azwkshy9c9,undefined,undefined,undefined,undefined,63,Familiar,31,NA,NA,NA,NA,63,24,15,0,undefined,undefined,undefined,undefined,undefined,undefined,undefined,undefined,undefined,undefined,
azwkshy9c9,undefined,undefined,undefined,undefined,64,Know,13,REBECCA,SOFIA,false,17105.94499995932,64,1,14,2,undefined,undefined,undefined,undefined,undefined,undefined,undefined,undefined,undefined,undefined,
azwkshy9c9,undefined,undefined,undefined,undefined,65,Know,8,MARY,MARY,true,3126.339999958873,65,11,11,1,undefined,undefined,undefined,undefined,undefined,undefined,undefined,undefined,undefined,undefined,
azwkshy9c9,undefined,undefined,undefined,undefined,66,Familiar,34,NA,NA,NA,NA,66,30,20,0,undefined,undefined,undefined,undefined,undefined,undefined,undefined,undefined,undefined,undefined,
azwkshy9c9,undefined,undefined,undefined,undefined,67,Know,15,LISA,SOFIA,false,4391.390000004321,67,2,34,2,undefined,undefined,undefined,undefined,undefined,undefined,undefined,undefined,undefined,undefined,
azwkshy9c9,undefined,undefined,undefined,undefined,68,Familiar,10,NA,NA,NA,NA,68,3,2,2,undefined,undefined,undefined,undefined,undefined,undefined,undefined,undefined,undefined,undefined,
azwkshy9c9,undefined,undefined,undefined,undefined,69,Familiar,7,NA,NA,NA,NA,69,15,33,1,undefined,undefined,undefined,undefined,undefined,undefined,undefined,undefined,undefined,undefined,
azwkshy9c9,undefined,undefined,undefined,undefined,70,Know,20,MEGAN,LISA,false,19996.71500036493,70,5,10,1,undefined,undefined,undefined,undefined,undefined,undefined,undefined,undefined,undefined,undefined,
azwkshy9c9,undefined,undefined,undefined,undefined,71,Familiar,6,NA,NA,NA,NA,71,34,36,0,undefined,undefined,undefined,undefined,undefined,undefined,undefined,undefined,undefined,undefined,
azwkshy9c9,undefined,undefined,undefined,undefined,72,Know,22,EMILY,EMILY,true,3070.444999728352,72,21,22,2,undefined,undefined,undefined,undefined,undefined,undefined,undefined,undefined,undefined,undefined,
azwkshy9c9,undefined,undefined,undefined,undefined,73,Familiar,30,NA,NA,NA,NA,undefined,undefined,undefined,undefined,undefined,undefined,undefined,undefined,undefined,undefined,undefined,undefined,undefined,undefined,
azwkshy9c9,undefined,undefined,undefined,undefined,74,Know,5,SOFIA,JESSICA,false,22312.229999806732,undefined,undefined,undefined,undefined,undefined,undefined,undefined,undefined,undefined,undefined,undefined,undefined,undefined,undefined,
azwkshy9c9,undefined,undefined,undefined,undefined,75,Familiar,24,NA,NA,NA,NA,undefined,undefined,undefined,undefined,undefined,undefined,undefined,undefined,undefined,undefined,undefined,undefined,undefined,undefined,
azwkshy9c9,undefined,undefined,undefined,undefined,76,Know,13,REBECCA,REBECCA,true,4904.875000007451,undefined,undefined,undefined,undefined,undefined,undefined,undefined,undefined,undefined,undefined,undefined,undefined,undefined,undefined,
azwkshy9c9,undefined,undefined,undefined,undefined,77,Familiar,7,NA,NA,NA,NA,undefined,undefined,undefined,undefined,undefined,undefined,undefined,undefined,undefined,undefined,undefined,undefined,undefined,undefined,
azwkshy9c9,undefined,undefined,undefined,undefined,78,Familiar,31,NA,NA,NA,NA,undefined,undefined,undefined,undefined,undefined,undefined,undefined,undefined,undefined,undefined,undefined,undefined,undefined,undefined,
azwkshy9c9,undefined,undefined,undefined,undefined,79,Know,11,JESSICA,MEGAN,false,16735.164999961853,undefined,undefined,undefined,undefined,undefined,undefined,undefined,undefined,undefined,undefined,undefined,undefined,undefined,undefined,
azwkshy9c9,undefined,undefined,undefined,undefined,80,Familiar,6,NA,NA,NA,NA,undefined,undefined,undefined,undefined,undefined,undefined,undefined,undefined,undefined,undefined,undefined,undefined,undefined,undefined,
azwkshy9c9,undefined,undefined,undefined,undefined,81,Know,8,MARY,MARY,true,2814.655000343919,undefined,undefined,undefined,undefined,undefined,undefined,undefined,undefined,undefined,undefined,undefined,undefined,undefined,undefined,
azwkshy9c9,undefined,undefined,undefined,undefined,82,Know,15,LISA,STEPHANIE,false,24294.920000247657,undefined,undefined,undefined,undefined,undefined,undefined,undefined,undefined,undefined,undefined,undefined,undefined,undefined,undefined,
azwkshy9c9,undefined,undefined,undefined,undefined,83,Familiar,27,NA,NA,NA,NA,undefined,undefined,undefined,undefined,undefined,undefined,undefined,undefined,undefined,undefined,undefined,undefined,undefined,undefined,
azwkshy9c9,undefined,undefined,undefined,undefined,84,Familiar,34,NA,NA,NA,NA,undefined,undefined,undefined,undefined,undefined,undefined,undefined,undefined,undefined,undefined,undefined,undefined,undefined,undefined,
azwkshy9c9,undefined,undefined,undefined,undefined,85,Know,26,ALYSSA,STEPHANIE,false,14131.67000003159,undefined,undefined,undefined,undefined,undefined,undefined,undefined,undefined,undefined,undefined,undefined,undefined,undefined,undefined,
azwkshy9c9,undefined,undefined,undefined,undefined,86,Know,33,PATRICIA,PATRICIA,true,5011.6449999623,undefined,undefined,undefined,undefined,undefined,undefined,undefined,undefined,undefined,undefined,undefined,undefined,undefined,undefined,
azwkshy9c9,undefined,undefined,undefined,undefined,87,Familiar,10,NA,NA,NA,NA,undefined,undefined,undefined,undefined,undefined,undefined,undefined,undefined,undefined,undefined,undefined,undefined,undefined,undefined,
azwkshy9c9,undefined,undefined,undefined,undefined,88,Know,22,EMILY,EMILY,true,5690.309999976307,undefined,undefined,undefined,undefined,undefined,undefined,undefined,undefined,undefined,undefined,undefined,undefined,undefined,undefined,
azwkshy9c9,undefined,undefined,undefined,undefined,89,Know,17,KAREN,KAREN,true,3278.404999990016,undefined,undefined,undefined,undefined,undefined,undefined,undefined,undefined,undefined,undefined,undefined,undefined,undefined,undefined,
azwkshy9c9,undefined,undefined,undefined,undefined,90,Familiar,29,NA,NA,NA,NA,undefined,undefined,undefined,undefined,undefined,undefined,undefined,undefined,undefined,undefined,undefined,undefined,undefined,undefined,
azwkshy9c9,undefined,undefined,undefined,undefined,91,Familiar,9,NA,NA,NA,NA,undefined,undefined,undefined,undefined,undefined,undefined,undefined,undefined,undefined,undefined,undefined,undefined,undefined,undefined,
azwkshy9c9,undefined,undefined,undefined,undefined,92,Know,16,STEPHANIE,COURTNEY,false,20919.485000427812,undefined,undefined,undefined,undefined,undefined,undefined,undefined,undefined,undefined,undefined,undefined,undefined,undefined,undefined,
azwkshy9c9,undefined,undefined,undefined,undefined,93,Know,20,MEGAN,STEPHANIE,false,26240.189999807626,undefined,undefined,undefined,undefined,undefined,undefined,undefined,undefined,undefined,undefined,undefined,undefined,undefined,undefined,
azwkshy9c9,undefined,undefined,undefined,undefined,94,Familiar,14,NA,NA,NA,NA,undefined,undefined,undefined,undefined,undefined,undefined,undefined,undefined,undefined,undefined,undefined,undefined,undefined,undefined,
azwkshy9c9,undefined,undefined,undefined,undefined,95,Familiar,28,NA,NA,NA,NA,undefined,undefined,undefined,undefined,undefined,undefined,undefined,undefined,undefined,undefined,undefined,undefined,undefined,undefined,
azwkshy9c9,undefined,undefined,undefined,undefined,96,Know,25,COURTNEY,LISA,false,15940.579999703914,undefined,undefined,undefined,undefined,undefined,undefined,undefined,undefined,undefined,undefined,undefined,undefined,undefined,undefined,
