SubNum,SubNum_demo,Exp_start_time,Exp_today_date,Exp_today_time,TrialNum,Condition,Face,Name,Response,NameAcc,RespTime,StudyTrialNum,StudyFace,StudyContext,StudyFamCond,TestTrialNum,TestFace,TestContext,TestSDCond,TestFamCond,TestResponse,TestResponseTime,Exp_end_time,Distractor_1_duration,Distractor_2_duration,
v1wddjw9xg,sav8n93j1t,Tue Oct 06 2020 18:45:04 GMT-0500 (Central Daylight Time),2020-10-6,18:45:4,1,Know,9,REBECCA,REBECCA,true,4376,1,25,29,2,undefined,undefined,undefined,undefined,undefined,undefined,undefined,undefined,4251838,undefined,
v1wddjw9xg,undefined,undefined,undefined,undefined,2,Know,30,KAYLA,KAYLA,true,3392,2,5,30,2,undefined,undefined,undefined,undefined,undefined,undefined,undefined,undefined,undefined,undefined,
v1wddjw9xg,undefined,undefined,undefined,undefined,3,Familiar,24,NA,NA,NA,NA,3,2,5,0,undefined,undefined,undefined,undefined,undefined,undefined,undefined,undefined,undefined,undefined,
v1wddjw9xg,undefined,undefined,undefined,undefined,4,Familiar,21,NA,NA,NA,NA,4,36,25,1,undefined,undefined,undefined,undefined,undefined,undefined,undefined,undefined,undefined,undefined,
v1wddjw9xg,undefined,undefined,undefined,undefined,5,Know,17,SAMANTHA,SAMANTHA,true,3121,5,28,26,2,undefined,undefined,undefined,undefined,undefined,undefined,undefined,undefined,undefined,undefined,
v1wddjw9xg,undefined,undefined,undefined,undefined,6,Familiar,32,NA,NA,NA,NA,6,30,11,1,undefined,undefined,undefined,undefined,undefined,undefined,undefined,undefined,undefined,undefined,
v1wddjw9xg,undefined,undefined,undefined,undefined,7,Know,34,MADISON,MADISON,true,2356,7,10,2,2,undefined,undefined,undefined,undefined,undefined,undefined,undefined,undefined,undefined,undefined,
v1wddjw9xg,undefined,undefined,undefined,undefined,8,Familiar,2,NA,NA,NA,NA,8,22,34,2,undefined,undefined,undefined,undefined,undefined,undefined,undefined,undefined,undefined,undefined,
v1wddjw9xg,undefined,undefined,undefined,undefined,9,Familiar,12,NA,NA,NA,NA,9,27,19,1,undefined,undefined,undefined,undefined,undefined,undefined,undefined,undefined,undefined,undefined,
v1wddjw9xg,undefined,undefined,undefined,undefined,10,Know,7,AMANDA,AMANDA,true,2290,10,29,17,0,undefined,undefined,undefined,undefined,undefined,undefined,undefined,undefined,undefined,undefined,
v1wddjw9xg,undefined,undefined,undefined,undefined,11,Familiar,19,NA,NA,NA,NA,11,24,9,0,undefined,undefined,undefined,undefined,undefined,undefined,undefined,undefined,undefined,undefined,
v1wddjw9xg,undefined,undefined,undefined,undefined,12,Familiar,14,NA,NA,NA,NA,12,26,31,2,undefined,undefined,undefined,undefined,undefined,undefined,undefined,undefined,undefined,undefined,
v1wddjw9xg,undefined,undefined,undefined,undefined,13,Know,36,BRIANNA,BRIANNA,true,2162,13,19,4,0,undefined,undefined,undefined,undefined,undefined,undefined,undefined,undefined,undefined,undefined,
v1wddjw9xg,undefined,undefined,undefined,undefined,14,Know,33,SOFIA,SOFIA,true,3169,14,15,35,1,undefined,undefined,undefined,undefined,undefined,undefined,undefined,undefined,undefined,undefined,
v1wddjw9xg,undefined,undefined,undefined,undefined,15,Familiar,8,NA,NA,NA,NA,15,31,16,2,undefined,undefined,undefined,undefined,undefined,undefined,undefined,undefined,undefined,undefined,
v1wddjw9xg,undefined,undefined,undefined,undefined,16,Familiar,16,NA,NA,NA,NA,16,4,6,2,undefined,undefined,undefined,undefined,undefined,undefined,undefined,undefined,undefined,undefined,
v1wddjw9xg,undefined,undefined,undefined,undefined,17,Know,15,ASHLEY,ASHLEY,true,2436,17,7,1,1,undefined,undefined,undefined,undefined,undefined,undefined,undefined,undefined,undefined,undefined,
v1wddjw9xg,undefined,undefined,undefined,undefined,18,Know,11,SARAH,SARAH,true,2674,18,12,27,0,undefined,undefined,undefined,undefined,undefined,undefined,undefined,undefined,undefined,undefined,
v1wddjw9xg,undefined,undefined,undefined,undefined,19,Familiar,29,NA,NA,NA,NA,19,18,18,2,undefined,undefined,undefined,undefined,undefined,undefined,undefined,undefined,undefined,undefined,
v1wddjw9xg,undefined,undefined,undefined,undefined,20,Know,27,BETTY,BETTY,true,2175,20,20,12,2,undefined,undefined,undefined,undefined,undefined,undefined,undefined,undefined,undefined,undefined,
v1wddjw9xg,undefined,undefined,undefined,undefined,21,Familiar,1,NA,NA,NA,NA,21,11,22,1,undefined,undefined,undefined,undefined,undefined,undefined,undefined,undefined,undefined,undefined,
v1wddjw9xg,undefined,undefined,undefined,undefined,22,Familiar,6,NA,NA,NA,NA,22,14,20,0,undefined,undefined,undefined,undefined,undefined,undefined,undefined,undefined,undefined,undefined,
v1wddjw9xg,undefined,undefined,undefined,undefined,23,Know,13,ZOEY,ZOEY,true,1999,23,8,21,0,undefined,undefined,undefined,undefined,undefined,undefined,undefined,undefined,undefined,undefined,
v1wddjw9xg,undefined,undefined,undefined,undefined,24,Know,3,MEGAN,MEGAN,true,1753,24,17,32,1,undefined,undefined,undefined,undefined,undefined,undefined,undefined,undefined,undefined,undefined,
v1wddjw9xg,undefined,undefined,undefined,undefined,25,Familiar,29,NA,NA,NA,NA,25,21,7,0,undefined,undefined,undefined,undefined,undefined,undefined,undefined,undefined,undefined,undefined,
v1wddjw9xg,undefined,undefined,undefined,undefined,26,Know,34,MADISON,KAYLA,false,2948,26,35,3,2,undefined,undefined,undefined,undefined,undefined,undefined,undefined,undefined,undefined,undefined,
v1wddjw9xg,undefined,undefined,undefined,undefined,27,Know,7,AMANDA,SOFIA,false,5508,27,16,33,0,undefined,undefined,undefined,undefined,undefined,undefined,undefined,undefined,undefined,undefined,
v1wddjw9xg,undefined,undefined,undefined,undefined,28,Familiar,12,NA,NA,NA,NA,28,1,15,0,undefined,undefined,undefined,undefined,undefined,undefined,undefined,undefined,undefined,undefined,
v1wddjw9xg,undefined,undefined,undefined,undefined,29,Familiar,1,NA,NA,NA,NA,29,3,24,1,undefined,undefined,undefined,undefined,undefined,undefined,undefined,undefined,undefined,undefined,
v1wddjw9xg,undefined,undefined,undefined,undefined,30,Know,3,MEGAN,SOFIA,false,5007,30,34,10,1,undefined,undefined,undefined,undefined,undefined,undefined,undefined,undefined,undefined,undefined,
v1wddjw9xg,undefined,undefined,undefined,undefined,31,Familiar,21,NA,NA,NA,NA,31,23,36,2,undefined,undefined,undefined,undefined,undefined,undefined,undefined,undefined,undefined,undefined,
v1wddjw9xg,undefined,undefined,undefined,undefined,32,Familiar,19,NA,NA,NA,NA,32,6,23,0,undefined,undefined,undefined,undefined,undefined,undefined,undefined,undefined,undefined,undefined,
v1wddjw9xg,undefined,undefined,undefined,undefined,33,Know,30,KAYLA,KAYLA,true,7185,33,13,13,1,undefined,undefined,undefined,undefined,undefined,undefined,undefined,undefined,undefined,undefined,
v1wddjw9xg,undefined,undefined,undefined,undefined,34,Familiar,8,NA,NA,NA,NA,34,33,28,1,undefined,undefined,undefined,undefined,undefined,undefined,undefined,undefined,undefined,undefined,
v1wddjw9xg,undefined,undefined,undefined,undefined,35,Know,27,BETTY,BETTY,true,4909,35,32,14,0,undefined,undefined,undefined,undefined,undefined,undefined,undefined,undefined,undefined,undefined,
v1wddjw9xg,undefined,undefined,undefined,undefined,36,Know,15,ASHLEY,BECKY,false,4520,36,9,8,1,undefined,undefined,undefined,undefined,undefined,undefined,undefined,undefined,undefined,undefined,
v1wddjw9xg,undefined,undefined,undefined,undefined,37,Familiar,16,NA,NA,NA,NA,undefined,undefined,undefined,undefined,undefined,undefined,undefined,undefined,undefined,undefined,undefined,undefined,undefined,undefined,
v1wddjw9xg,undefined,undefined,undefined,undefined,38,Familiar,24,NA,NA,NA,NA,undefined,undefined,undefined,undefined,undefined,undefined,undefined,undefined,undefined,undefined,undefined,undefined,undefined,undefined,
v1wddjw9xg,undefined,undefined,undefined,undefined,39,Know,17,SAMANTHA,SAMANTHA,true,10509,undefined,undefined,undefined,undefined,undefined,undefined,undefined,undefined,undefined,undefined,undefined,undefined,undefined,undefined,
v1wddjw9xg,undefined,undefined,undefined,undefined,40,Know,13,ZOEY,MADISON,false,17077,undefined,undefined,undefined,undefined,undefined,undefined,undefined,undefined,undefined,undefined,undefined,undefined,undefined,undefined,
v1wddjw9xg,undefined,undefined,undefined,undefined,41,Familiar,2,NA,NA,NA,NA,undefined,undefined,undefined,undefined,undefined,undefined,undefined,undefined,undefined,undefined,undefined,undefined,undefined,undefined,
v1wddjw9xg,undefined,undefined,undefined,undefined,42,Know,9,REBECCA,REBECCA,true,4358,undefined,undefined,undefined,undefined,undefined,undefined,undefined,undefined,undefined,undefined,undefined,undefined,undefined,undefined,
v1wddjw9xg,undefined,undefined,undefined,undefined,43,Know,33,SOFIA,MADISON,false,4091,undefined,undefined,undefined,undefined,undefined,undefined,undefined,undefined,undefined,undefined,undefined,undefined,undefined,undefined,
v1wddjw9xg,undefined,undefined,undefined,undefined,44,Familiar,14,NA,NA,NA,NA,undefined,undefined,undefined,undefined,undefined,undefined,undefined,undefined,undefined,undefined,undefined,undefined,undefined,undefined,
v1wddjw9xg,undefined,undefined,undefined,undefined,45,Familiar,32,NA,NA,NA,NA,undefined,undefined,undefined,undefined,undefined,undefined,undefined,undefined,undefined,undefined,undefined,undefined,undefined,undefined,
v1wddjw9xg,undefined,undefined,undefined,undefined,46,Know,36,BRIANNA,SARAH,false,9185,undefined,undefined,undefined,undefined,undefined,undefined,undefined,undefined,undefined,undefined,undefined,undefined,undefined,undefined,
v1wddjw9xg,undefined,undefined,undefined,undefined,47,Familiar,6,NA,NA,NA,NA,undefined,undefined,undefined,undefined,undefined,undefined,undefined,undefined,undefined,undefined,undefined,undefined,undefined,undefined,
v1wddjw9xg,undefined,undefined,undefined,undefined,48,Know,11,SARAH,ASHLEY,false,16228,undefined,undefined,undefined,undefined,undefined,undefined,undefined,undefined,undefined,undefined,undefined,undefined,undefined,undefined,
v1wddjw9xg,undefined,undefined,undefined,undefined,49,Know,17,SAMANTHA,SAMANTHA,true,5800,undefined,undefined,undefined,undefined,undefined,undefined,undefined,undefined,undefined,undefined,undefined,undefined,undefined,undefined,
v1wddjw9xg,undefined,undefined,undefined,undefined,50,Familiar,29,NA,NA,NA,NA,undefined,undefined,undefined,undefined,undefined,undefined,undefined,undefined,undefined,undefined,undefined,undefined,undefined,undefined,
v1wddjw9xg,undefined,undefined,undefined,undefined,51,Know,7,AMANDA,SARAH,false,3396,undefined,undefined,undefined,undefined,undefined,undefined,undefined,undefined,undefined,undefined,undefined,undefined,undefined,undefined,
v1wddjw9xg,undefined,undefined,undefined,undefined,52,Familiar,2,NA,NA,NA,NA,undefined,undefined,undefined,undefined,undefined,undefined,undefined,undefined,undefined,undefined,undefined,undefined,undefined,undefined,
v1wddjw9xg,undefined,undefined,undefined,undefined,53,Know,33,SOFIA,SOFIA,true,3397,undefined,undefined,undefined,undefined,undefined,undefined,undefined,undefined,undefined,undefined,undefined,undefined,undefined,undefined,
v1wddjw9xg,undefined,undefined,undefined,undefined,54,Familiar,24,NA,NA,NA,NA,undefined,undefined,undefined,undefined,undefined,undefined,undefined,undefined,undefined,undefined,undefined,undefined,undefined,undefined,
v1wddjw9xg,undefined,undefined,undefined,undefined,55,Familiar,12,NA,NA,NA,NA,undefined,undefined,undefined,undefined,undefined,undefined,undefined,undefined,undefined,undefined,undefined,undefined,undefined,undefined,
v1wddjw9xg,undefined,undefined,undefined,undefined,56,Know,34,MADISON,KAYLA,false,2286,undefined,undefined,undefined,undefined,undefined,undefined,undefined,undefined,undefined,undefined,undefined,undefined,undefined,undefined,
v1wddjw9xg,undefined,undefined,undefined,undefined,57,Know,30,KAYLA,KAYLA,true,2190,undefined,undefined,undefined,undefined,undefined,undefined,undefined,undefined,undefined,undefined,undefined,undefined,undefined,undefined,
v1wddjw9xg,undefined,undefined,undefined,undefined,58,Familiar,14,NA,NA,NA,NA,undefined,undefined,undefined,undefined,undefined,undefined,undefined,undefined,undefined,undefined,undefined,undefined,undefined,undefined,
v1wddjw9xg,undefined,undefined,undefined,undefined,59,Familiar,19,NA,NA,NA,NA,undefined,undefined,undefined,undefined,undefined,undefined,undefined,undefined,undefined,undefined,undefined,undefined,undefined,undefined,
v1wddjw9xg,undefined,undefined,undefined,undefined,60,Know,11,SARAH,AMANDA,false,3082,undefined,undefined,undefined,undefined,undefined,undefined,undefined,undefined,undefined,undefined,undefined,undefined,undefined,undefined,
v1wddjw9xg,undefined,undefined,undefined,undefined,61,Know,15,ASHLEY,ASHLEY,true,4056,undefined,undefined,undefined,undefined,undefined,undefined,undefined,undefined,undefined,undefined,undefined,undefined,undefined,undefined,
v1wddjw9xg,undefined,undefined,undefined,undefined,62,Familiar,1,NA,NA,NA,NA,undefined,undefined,undefined,undefined,undefined,undefined,undefined,undefined,undefined,undefined,undefined,undefined,undefined,undefined,
v1wddjw9xg,undefined,undefined,undefined,undefined,63,Familiar,16,NA,NA,NA,NA,undefined,undefined,undefined,undefined,undefined,undefined,undefined,undefined,undefined,undefined,undefined,undefined,undefined,undefined,
v1wddjw9xg,undefined,undefined,undefined,undefined,64,Know,3,MEGAN,BRIANNA,false,4906,undefined,undefined,undefined,undefined,undefined,undefined,undefined,undefined,undefined,undefined,undefined,undefined,undefined,undefined,
v1wddjw9xg,undefined,undefined,undefined,undefined,65,Know,9,REBECCA,REBECCA,true,3328,undefined,undefined,undefined,undefined,undefined,undefined,undefined,undefined,undefined,undefined,undefined,undefined,undefined,undefined,
v1wddjw9xg,undefined,undefined,undefined,undefined,66,Familiar,32,NA,NA,NA,NA,undefined,undefined,undefined,undefined,undefined,undefined,undefined,undefined,undefined,undefined,undefined,undefined,undefined,undefined,
v1wddjw9xg,undefined,undefined,undefined,undefined,67,Familiar,8,NA,NA,NA,NA,undefined,undefined,undefined,undefined,undefined,undefined,undefined,undefined,undefined,undefined,undefined,undefined,undefined,undefined,
v1wddjw9xg,undefined,undefined,undefined,undefined,68,Know,13,ZOEY,BRIANNA,false,4173,undefined,undefined,undefined,undefined,undefined,undefined,undefined,undefined,undefined,undefined,undefined,undefined,undefined,undefined,
v1wddjw9xg,undefined,undefined,undefined,undefined,69,Know,27,BETTY,SARAH,false,6287,undefined,undefined,undefined,undefined,undefined,undefined,undefined,undefined,undefined,undefined,undefined,undefined,undefined,undefined,
v1wddjw9xg,undefined,undefined,undefined,undefined,70,Familiar,6,NA,NA,NA,NA,undefined,undefined,undefined,undefined,undefined,undefined,undefined,undefined,undefined,undefined,undefined,undefined,undefined,undefined,
v1wddjw9xg,undefined,undefined,undefined,undefined,71,Familiar,21,NA,NA,NA,NA,undefined,undefined,undefined,undefined,undefined,undefined,undefined,undefined,undefined,undefined,undefined,undefined,undefined,undefined,
v1wddjw9xg,undefined,undefined,undefined,undefined,72,Know,36,BRIANNA,BRIANNA,true,2739,undefined,undefined,undefined,undefined,undefined,undefined,undefined,undefined,undefined,undefined,undefined,undefined,undefined,undefined,
v1wddjw9xg,undefined,undefined,undefined,undefined,73,Familiar,12,NA,NA,NA,NA,undefined,undefined,undefined,undefined,undefined,undefined,undefined,undefined,undefined,undefined,undefined,undefined,undefined,undefined,
v1wddjw9xg,undefined,undefined,undefined,undefined,74,Familiar,16,NA,NA,NA,NA,undefined,undefined,undefined,undefined,undefined,undefined,undefined,undefined,undefined,undefined,undefined,undefined,undefined,undefined,
v1wddjw9xg,undefined,undefined,undefined,undefined,75,Know,9,REBECCA,REBECCA,true,2564,undefined,undefined,undefined,undefined,undefined,undefined,undefined,undefined,undefined,undefined,undefined,undefined,undefined,undefined,
v1wddjw9xg,undefined,undefined,undefined,undefined,76,Familiar,14,NA,NA,NA,NA,undefined,undefined,undefined,undefined,undefined,undefined,undefined,undefined,undefined,undefined,undefined,undefined,undefined,undefined,
v1wddjw9xg,undefined,undefined,undefined,undefined,77,Familiar,19,NA,NA,NA,NA,undefined,undefined,undefined,undefined,undefined,undefined,undefined,undefined,undefined,undefined,undefined,undefined,undefined,undefined,
v1wddjw9xg,undefined,undefined,undefined,undefined,78,Know,13,ZOEY,ZOEY,true,12043,undefined,undefined,undefined,undefined,undefined,undefined,undefined,undefined,undefined,undefined,undefined,undefined,undefined,undefined,
v1wddjw9xg,undefined,undefined,undefined,undefined,79,Know,15,ASHLEY,ASHLEY,true,4923,undefined,undefined,undefined,undefined,undefined,undefined,undefined,undefined,undefined,undefined,undefined,undefined,undefined,undefined,
v1wddjw9xg,undefined,undefined,undefined,undefined,80,Familiar,8,NA,NA,NA,NA,undefined,undefined,undefined,undefined,undefined,undefined,undefined,undefined,undefined,undefined,undefined,undefined,undefined,undefined,
v1wddjw9xg,undefined,undefined,undefined,undefined,81,Know,30,KAYLA,KAYLA,true,9497,undefined,undefined,undefined,undefined,undefined,undefined,undefined,undefined,undefined,undefined,undefined,undefined,undefined,undefined,
v1wddjw9xg,undefined,undefined,undefined,undefined,82,Familiar,32,NA,NA,NA,NA,undefined,undefined,undefined,undefined,undefined,undefined,undefined,undefined,undefined,undefined,undefined,undefined,undefined,undefined,
v1wddjw9xg,undefined,undefined,undefined,undefined,83,Know,11,SARAH,AMANDA,false,6277,undefined,undefined,undefined,undefined,undefined,undefined,undefined,undefined,undefined,undefined,undefined,undefined,undefined,undefined,
v1wddjw9xg,undefined,undefined,undefined,undefined,84,Know,33,SOFIA,AMANDA,false,4699,undefined,undefined,undefined,undefined,undefined,undefined,undefined,undefined,undefined,undefined,undefined,undefined,undefined,undefined,
v1wddjw9xg,undefined,undefined,undefined,undefined,85,Familiar,1,NA,NA,NA,NA,undefined,undefined,undefined,undefined,undefined,undefined,undefined,undefined,undefined,undefined,undefined,undefined,undefined,undefined,
v1wddjw9xg,undefined,undefined,undefined,undefined,86,Know,36,BRIANNA,BRIANNA,true,2662,undefined,undefined,undefined,undefined,undefined,undefined,undefined,undefined,undefined,undefined,undefined,undefined,undefined,undefined,
v1wddjw9xg,undefined,undefined,undefined,undefined,87,Familiar,29,NA,NA,NA,NA,undefined,undefined,undefined,undefined,undefined,undefined,undefined,undefined,undefined,undefined,undefined,undefined,undefined,undefined,
v1wddjw9xg,undefined,undefined,undefined,undefined,88,Familiar,21,NA,NA,NA,NA,undefined,undefined,undefined,undefined,undefined,undefined,undefined,undefined,undefined,undefined,undefined,undefined,undefined,undefined,
v1wddjw9xg,undefined,undefined,undefined,undefined,89,Know,17,SAMANTHA,SAMANTHA,true,5060,undefined,undefined,undefined,undefined,undefined,undefined,undefined,undefined,undefined,undefined,undefined,undefined,undefined,undefined,
v1wddjw9xg,undefined,undefined,undefined,undefined,90,Familiar,6,NA,NA,NA,NA,undefined,undefined,undefined,undefined,undefined,undefined,undefined,undefined,undefined,undefined,undefined,undefined,undefined,undefined,
v1wddjw9xg,undefined,undefined,undefined,undefined,91,Know,34,MADISON,MADISON,true,3265,undefined,undefined,undefined,undefined,undefined,undefined,undefined,undefined,undefined,undefined,undefined,undefined,undefined,undefined,
v1wddjw9xg,undefined,undefined,undefined,undefined,92,Familiar,24,NA,NA,NA,NA,undefined,undefined,undefined,undefined,undefined,undefined,undefined,undefined,undefined,undefined,undefined,undefined,undefined,undefined,
v1wddjw9xg,undefined,undefined,undefined,undefined,93,Know,27,BETTY,BETTY,true,2311,undefined,undefined,undefined,undefined,undefined,undefined,undefined,undefined,undefined,undefined,undefined,undefined,undefined,undefined,
v1wddjw9xg,undefined,undefined,undefined,undefined,94,Know,7,AMANDA,AMANDA,true,3246,undefined,undefined,undefined,undefined,undefined,undefined,undefined,undefined,undefined,undefined,undefined,undefined,undefined,undefined,
v1wddjw9xg,undefined,undefined,undefined,undefined,95,Familiar,2,NA,NA,NA,NA,undefined,undefined,undefined,undefined,undefined,undefined,undefined,undefined,undefined,undefined,undefined,undefined,undefined,undefined,
v1wddjw9xg,undefined,undefined,undefined,undefined,96,Know,3,MEGAN,MEGAN,true,2689,undefined,undefined,undefined,undefined,undefined,undefined,undefined,undefined,undefined,undefined,undefined,undefined,undefined,undefined,
