SubNum,SubNum_demo,Exp_start_time,Exp_today_date,Exp_today_time,TrialNum,Condition,Face,Name,Response,NameAcc,RespTime,StudyTrialNum,StudyFace,StudyContext,StudyFamCond,TestTrialNum,TestFace,TestContext,TestSDCond,TestFamCond,TestResponse,TestResponseTime,Exp_end_time,Distractor_1_duration,Distractor_2_duration,
fje6gglque,9l6rmfbl5j,Mon Oct 05 2020 18:03:27 GMT+0800 (China Standard Time),2020-10-5,18:3:27,1,Familiar,24,NA,NA,NA,NA,undefined,undefined,undefined,undefined,undefined,undefined,undefined,undefined,undefined,undefined,undefined,undefined,undefined,undefined,
fje6gglque,undefined,undefined,undefined,undefined,2,Know,8,MEGAN,AMY,false,9994.950000022072,undefined,undefined,undefined,undefined,undefined,undefined,undefined,undefined,undefined,undefined,undefined,undefined,undefined,undefined,
fje6gglque,undefined,undefined,undefined,undefined,3,Know,6,SAMANTHA,SAMTHMA,false,4471.6850000259,undefined,undefined,undefined,undefined,undefined,undefined,undefined,undefined,undefined,undefined,undefined,undefined,undefined,undefined,
fje6gglque,undefined,undefined,undefined,undefined,4,Familiar,26,NA,NA,NA,NA,undefined,undefined,undefined,undefined,undefined,undefined,undefined,undefined,undefined,undefined,undefined,undefined,undefined,undefined,
fje6gglque,undefined,undefined,undefined,undefined,5,Familiar,3,NA,NA,NA,NA,undefined,undefined,undefined,undefined,undefined,undefined,undefined,undefined,undefined,undefined,undefined,undefined,undefined,undefined,
fje6gglque,undefined,undefined,undefined,undefined,6,Know,36,AUDREY,AUDREY,true,4378.094999992754,undefined,undefined,undefined,undefined,undefined,undefined,undefined,undefined,undefined,undefined,undefined,undefined,undefined,undefined,
fje6gglque,undefined,undefined,undefined,undefined,7,Know,31,HANNAH,HANNAH,true,3051.9599999825004,undefined,undefined,undefined,undefined,undefined,undefined,undefined,undefined,undefined,undefined,undefined,undefined,undefined,undefined,
fje6gglque,undefined,undefined,undefined,undefined,8,Familiar,4,NA,NA,NA,NA,undefined,undefined,undefined,undefined,undefined,undefined,undefined,undefined,undefined,undefined,undefined,undefined,undefined,undefined,
fje6gglque,undefined,undefined,undefined,undefined,9,Familiar,29,NA,NA,NA,NA,undefined,undefined,undefined,undefined,undefined,undefined,undefined,undefined,undefined,undefined,undefined,undefined,undefined,undefined,
fje6gglque,undefined,undefined,undefined,undefined,10,Know,32,NICOLE,NICOLE,true,3037.75499999756,undefined,undefined,undefined,undefined,undefined,undefined,undefined,undefined,undefined,undefined,undefined,undefined,undefined,undefined,
fje6gglque,undefined,undefined,undefined,undefined,11,Know,18,BRIANNA,BRINNA,false,3651.000000012573,undefined,undefined,undefined,undefined,undefined,undefined,undefined,undefined,undefined,undefined,undefined,undefined,undefined,undefined,
fje6gglque,undefined,undefined,undefined,undefined,12,Familiar,33,NA,NA,NA,NA,undefined,undefined,undefined,undefined,undefined,undefined,undefined,undefined,undefined,undefined,undefined,undefined,undefined,undefined,
fje6gglque,undefined,undefined,undefined,undefined,13,Familiar,5,NA,NA,NA,NA,undefined,undefined,undefined,undefined,undefined,undefined,undefined,undefined,undefined,undefined,undefined,undefined,undefined,undefined,
fje6gglque,undefined,undefined,undefined,undefined,14,Know,20,BRITTANY,BRIANTTY,false,3768.5849999834318,undefined,undefined,undefined,undefined,undefined,undefined,undefined,undefined,undefined,undefined,undefined,undefined,undefined,undefined,
fje6gglque,undefined,undefined,undefined,undefined,15,Know,35,MARGARET,MARGANT,false,4840.265000006184,undefined,undefined,undefined,undefined,undefined,undefined,undefined,undefined,undefined,undefined,undefined,undefined,undefined,undefined,
fje6gglque,undefined,undefined,undefined,undefined,16,Familiar,2,NA,NA,NA,NA,undefined,undefined,undefined,undefined,undefined,undefined,undefined,undefined,undefined,undefined,undefined,undefined,undefined,undefined,
fje6gglque,undefined,undefined,undefined,undefined,17,Familiar,10,NA,NA,NA,NA,undefined,undefined,undefined,undefined,undefined,undefined,undefined,undefined,undefined,undefined,undefined,undefined,undefined,undefined,
fje6gglque,undefined,undefined,undefined,undefined,18,Know,12,ASHLEY,ASHLEY,true,3765.399999974761,undefined,undefined,undefined,undefined,undefined,undefined,undefined,undefined,undefined,undefined,undefined,undefined,undefined,undefined,
fje6gglque,undefined,undefined,undefined,undefined,19,Familiar,25,NA,NA,NA,NA,undefined,undefined,undefined,undefined,undefined,undefined,undefined,undefined,undefined,undefined,undefined,undefined,undefined,undefined,
fje6gglque,undefined,undefined,undefined,undefined,20,Know,27,MARY,MARY,true,2927.83000000054,undefined,undefined,undefined,undefined,undefined,undefined,undefined,undefined,undefined,undefined,undefined,undefined,undefined,undefined,
fje6gglque,undefined,undefined,undefined,undefined,21,Familiar,14,NA,NA,NA,NA,undefined,undefined,undefined,undefined,undefined,undefined,undefined,undefined,undefined,undefined,undefined,undefined,undefined,undefined,
fje6gglque,undefined,undefined,undefined,undefined,22,Familiar,15,NA,NA,NA,NA,undefined,undefined,undefined,undefined,undefined,undefined,undefined,undefined,undefined,undefined,undefined,undefined,undefined,undefined,
fje6gglque,undefined,undefined,undefined,undefined,23,Know,28,BETTY,BETTY,true,2856.449999992037,undefined,undefined,undefined,undefined,undefined,undefined,undefined,undefined,undefined,undefined,undefined,undefined,undefined,undefined,
fje6gglque,undefined,undefined,undefined,undefined,24,Know,21,ALYSSA,ALYSSA,true,3053.184999997029,undefined,undefined,undefined,undefined,undefined,undefined,undefined,undefined,undefined,undefined,undefined,undefined,undefined,undefined,
fje6gglque,undefined,undefined,undefined,undefined,25,Familiar,29,NA,NA,NA,NA,undefined,undefined,undefined,undefined,undefined,undefined,undefined,undefined,undefined,undefined,undefined,undefined,undefined,undefined,
fje6gglque,undefined,undefined,undefined,undefined,26,Know,12,ASHLEY,AMY,false,5636.824999994133,undefined,undefined,undefined,undefined,undefined,undefined,undefined,undefined,undefined,undefined,undefined,undefined,undefined,undefined,
fje6gglque,undefined,undefined,undefined,undefined,27,Know,32,NICOLE,MASSAH,false,5660.75500001898,undefined,undefined,undefined,undefined,undefined,undefined,undefined,undefined,undefined,undefined,undefined,undefined,undefined,undefined,
fje6gglque,undefined,undefined,undefined,undefined,28,Familiar,5,NA,NA,NA,NA,undefined,undefined,undefined,undefined,undefined,undefined,undefined,undefined,undefined,undefined,undefined,undefined,undefined,undefined,
fje6gglque,undefined,undefined,undefined,undefined,29,Know,8,MEGAN,NIACHER,false,5384.970000013709,undefined,undefined,undefined,undefined,undefined,undefined,undefined,undefined,undefined,undefined,undefined,undefined,undefined,undefined,
fje6gglque,undefined,undefined,undefined,undefined,30,Familiar,14,NA,NA,NA,NA,undefined,undefined,undefined,undefined,undefined,undefined,undefined,undefined,undefined,undefined,undefined,undefined,undefined,undefined,
fje6gglque,undefined,undefined,undefined,undefined,31,Familiar,2,NA,NA,NA,NA,undefined,undefined,undefined,undefined,undefined,undefined,undefined,undefined,undefined,undefined,undefined,undefined,undefined,undefined,
fje6gglque,undefined,undefined,undefined,undefined,32,Know,36,AUDREY,MAGGEY,false,3644.7950000001583,undefined,undefined,undefined,undefined,undefined,undefined,undefined,undefined,undefined,undefined,undefined,undefined,undefined,undefined,
fje6gglque,undefined,undefined,undefined,undefined,33,Know,18,BRIANNA,MANGET,false,8782.615000003716,undefined,undefined,undefined,undefined,undefined,undefined,undefined,undefined,undefined,undefined,undefined,undefined,undefined,undefined,
fje6gglque,undefined,undefined,undefined,undefined,34,Familiar,3,NA,NA,NA,NA,undefined,undefined,undefined,undefined,undefined,undefined,undefined,undefined,undefined,undefined,undefined,undefined,undefined,undefined,
fje6gglque,undefined,undefined,undefined,undefined,35,Familiar,10,NA,NA,NA,NA,undefined,undefined,undefined,undefined,undefined,undefined,undefined,undefined,undefined,undefined,undefined,undefined,undefined,undefined,
fje6gglque,undefined,undefined,undefined,undefined,36,Know,21,ALYSSA,BIGGENT,false,5136.230000003707,undefined,undefined,undefined,undefined,undefined,undefined,undefined,undefined,undefined,undefined,undefined,undefined,undefined,undefined,
fje6gglque,undefined,undefined,undefined,undefined,37,Familiar,25,NA,NA,NA,NA,undefined,undefined,undefined,undefined,undefined,undefined,undefined,undefined,undefined,undefined,undefined,undefined,undefined,undefined,
fje6gglque,undefined,undefined,undefined,undefined,38,Know,31,HANNAH,MARGET,false,4855.270000000019,undefined,undefined,undefined,undefined,undefined,undefined,undefined,undefined,undefined,undefined,undefined,undefined,undefined,undefined,
fje6gglque,undefined,undefined,undefined,undefined,39,Know,28,BETTY,NICHEL,false,5064.520000014454,undefined,undefined,undefined,undefined,undefined,undefined,undefined,undefined,undefined,undefined,undefined,undefined,undefined,undefined,
fje6gglque,undefined,undefined,undefined,undefined,40,Familiar,4,NA,NA,NA,NA,undefined,undefined,undefined,undefined,undefined,undefined,undefined,undefined,undefined,undefined,undefined,undefined,undefined,undefined,
fje6gglque,undefined,undefined,undefined,undefined,41,Familiar,26,NA,NA,NA,NA,undefined,undefined,undefined,undefined,undefined,undefined,undefined,undefined,undefined,undefined,undefined,undefined,undefined,undefined,
fje6gglque,undefined,undefined,undefined,undefined,42,Know,6,SAMANTHA,BETTT,false,3211.4399999845773,undefined,undefined,undefined,undefined,undefined,undefined,undefined,undefined,undefined,undefined,undefined,undefined,undefined,undefined,
fje6gglque,undefined,undefined,undefined,undefined,43,Know,35,MARGARET,BETTY,false,5857.764999993378,undefined,undefined,undefined,undefined,undefined,undefined,undefined,undefined,undefined,undefined,undefined,undefined,undefined,undefined,
fje6gglque,undefined,undefined,undefined,undefined,44,Familiar,15,NA,NA,NA,NA,undefined,undefined,undefined,undefined,undefined,undefined,undefined,undefined,undefined,undefined,undefined,undefined,undefined,undefined,
fje6gglque,undefined,undefined,undefined,undefined,45,Familiar,24,NA,NA,NA,NA,undefined,undefined,undefined,undefined,undefined,undefined,undefined,undefined,undefined,undefined,undefined,undefined,undefined,undefined,
fje6gglque,undefined,undefined,undefined,undefined,46,Know,27,MARY,GAMENT ,false,4865.194999991218,undefined,undefined,undefined,undefined,undefined,undefined,undefined,undefined,undefined,undefined,undefined,undefined,undefined,undefined,
fje6gglque,undefined,undefined,undefined,undefined,47,Know,20,BRITTANY,NATTY,false,4849.469999986468,undefined,undefined,undefined,undefined,undefined,undefined,undefined,undefined,undefined,undefined,undefined,undefined,undefined,undefined,
fje6gglque,undefined,undefined,undefined,undefined,48,Familiar,33,NA,NA,NA,NA,undefined,undefined,undefined,undefined,undefined,undefined,undefined,undefined,undefined,undefined,undefined,undefined,undefined,undefined,
fje6gglque,undefined,undefined,undefined,undefined,49,Know,28,BETTY,IDK,false,12386.919999989914,undefined,undefined,undefined,undefined,undefined,undefined,undefined,undefined,undefined,undefined,undefined,undefined,undefined,undefined,
fje6gglque,undefined,undefined,undefined,undefined,50,Know,32,NICOLE,NICHE,false,9552.670000004582,undefined,undefined,undefined,undefined,undefined,undefined,undefined,undefined,undefined,undefined,undefined,undefined,undefined,undefined,
fje6gglque,undefined,undefined,undefined,undefined,51,Familiar,5,NA,NA,NA,NA,undefined,undefined,undefined,undefined,undefined,undefined,undefined,undefined,undefined,undefined,undefined,undefined,undefined,undefined,
fje6gglque,undefined,undefined,undefined,undefined,52,Familiar,26,NA,NA,NA,NA,undefined,undefined,undefined,undefined,undefined,undefined,undefined,undefined,undefined,undefined,undefined,undefined,undefined,undefined,
fje6gglque,undefined,undefined,undefined,undefined,53,Know,27,MARY,MANGET,false,4951.789999991888,undefined,undefined,undefined,undefined,undefined,undefined,undefined,undefined,undefined,undefined,undefined,undefined,undefined,undefined,
fje6gglque,undefined,undefined,undefined,undefined,54,Familiar,10,NA,NA,NA,NA,undefined,undefined,undefined,undefined,undefined,undefined,undefined,undefined,undefined,undefined,undefined,undefined,undefined,undefined,
fje6gglque,undefined,undefined,undefined,undefined,55,Familiar,29,NA,NA,NA,NA,undefined,undefined,undefined,undefined,undefined,undefined,undefined,undefined,undefined,undefined,undefined,undefined,undefined,undefined,
fje6gglque,undefined,undefined,undefined,undefined,56,Know,18,BRIANNA,NICHE ,false,2609.7700000100303,undefined,undefined,undefined,undefined,undefined,undefined,undefined,undefined,undefined,undefined,undefined,undefined,undefined,undefined,
fje6gglque,undefined,undefined,undefined,undefined,57,Know,31,HANNAH,MARY,false,59753.28000000445,undefined,undefined,undefined,undefined,undefined,undefined,undefined,undefined,undefined,undefined,undefined,undefined,undefined,undefined,
fje6gglque,undefined,undefined,undefined,undefined,58,Familiar,3,NA,NA,NA,NA,undefined,undefined,undefined,undefined,undefined,undefined,undefined,undefined,undefined,undefined,undefined,undefined,undefined,undefined,
fje6gglque,undefined,undefined,undefined,undefined,59,Know,8,MEGAN,HANNAN,false,4305.075000011129,undefined,undefined,undefined,undefined,undefined,undefined,undefined,undefined,undefined,undefined,undefined,undefined,undefined,undefined,
fje6gglque,undefined,undefined,undefined,undefined,60,Familiar,15,NA,NA,NA,NA,undefined,undefined,undefined,undefined,undefined,undefined,undefined,undefined,undefined,undefined,undefined,undefined,undefined,undefined,
fje6gglque,undefined,undefined,undefined,undefined,61,Know,6,SAMANTHA,MANGET,false,2960.4099999996834,undefined,undefined,undefined,undefined,undefined,undefined,undefined,undefined,undefined,undefined,undefined,undefined,undefined,undefined,
fje6gglque,undefined,undefined,undefined,undefined,62,Familiar,14,NA,NA,NA,NA,undefined,undefined,undefined,undefined,undefined,undefined,undefined,undefined,undefined,undefined,undefined,undefined,undefined,undefined,
fje6gglque,undefined,undefined,undefined,undefined,63,Familiar,24,NA,NA,NA,NA,undefined,undefined,undefined,undefined,undefined,undefined,undefined,undefined,undefined,undefined,undefined,undefined,undefined,undefined,
fje6gglque,undefined,undefined,undefined,undefined,64,Know,36,AUDREY,MANGET,false,3059.4900000141934,undefined,undefined,undefined,undefined,undefined,undefined,undefined,undefined,undefined,undefined,undefined,undefined,undefined,undefined,
fje6gglque,undefined,undefined,undefined,undefined,65,Know,35,MARGARET,MAGENT,false,11880.925000004936,undefined,undefined,undefined,undefined,undefined,undefined,undefined,undefined,undefined,undefined,undefined,undefined,undefined,undefined,
fje6gglque,undefined,undefined,undefined,undefined,66,Familiar,33,NA,NA,NA,NA,undefined,undefined,undefined,undefined,undefined,undefined,undefined,undefined,undefined,undefined,undefined,undefined,undefined,undefined,
