SubNum,SubNum_demo,Exp_start_time,Exp_today_date,Exp_today_time,TrialNum,Condition,Face,Name,Response,NameAcc,RespTime,StudyTrialNum,StudyFace,StudyContext,StudyFamCond,TestTrialNum,TestFace,TestContext,TestSDCond,TestFamCond,TestResponse,TestResponseTime,Exp_end_time,Distractor_1_duration,Distractor_2_duration,
pv8a29jvup,47woxszdwt,Fri Oct 23 2020 19:30:51 GMT-0500 (Central Daylight Time),2020-10-23,19:30:51,1,Familiar,23,NA,NA,NA,NA,1,10,7,1,1,28,26,0,2,0,3106.545000000624,19:51:57,122585.32999999984,60054.28000000049,
pv8a29jvup,undefined,undefined,undefined,undefined,2,Familiar,17,NA,NA,NA,NA,2,20,13,1,2,5,19,0,1,0,1160.7949999999255,undefined,undefined,undefined,
pv8a29jvup,undefined,undefined,undefined,undefined,3,Know,29,SAMANTHA,SAMANTHA,true,3676.099999998769,3,22,22,0,3,19,9,1,1,1,1373.3049999992363,undefined,undefined,undefined,
pv8a29jvup,undefined,undefined,undefined,undefined,4,Familiar,1,NA,NA,NA,NA,4,11,23,1,4,23,36,0,0,0,1090.5250000015367,undefined,undefined,undefined,
pv8a29jvup,undefined,undefined,undefined,undefined,5,Familiar,33,NA,NA,NA,NA,5,4,14,1,5,7,10,1,2,1,1188.680000001099,undefined,undefined,undefined,
pv8a29jvup,undefined,undefined,undefined,undefined,6,Know,5,EMILY,EMILY,true,2481.304999999338,6,26,12,2,6,2,34,0,1,0,738.9999999995343,undefined,undefined,undefined,
pv8a29jvup,undefined,undefined,undefined,undefined,7,Know,13,ASHLEY,ASHLEY,true,2403.9250000005122,7,9,5,1,7,26,12,0,2,0,934.0049999991897,undefined,undefined,undefined,
pv8a29jvup,undefined,undefined,undefined,undefined,8,Familiar,30,NA,NA,NA,NA,8,31,17,2,8,32,28,1,0,1,960.5749999992549,undefined,undefined,undefined,
pv8a29jvup,undefined,undefined,undefined,undefined,9,Familiar,22,NA,NA,NA,NA,9,18,27,2,9,6,3,1,2,1,1760.1150000011548,undefined,undefined,undefined,
pv8a29jvup,undefined,undefined,undefined,undefined,10,Know,11,MADISON,MADISON,true,2757.050000000163,10,21,9,1,10,15,1,1,0,0,1523.320000000298,undefined,undefined,undefined,
pv8a29jvup,undefined,undefined,undefined,undefined,11,Know,9,HANNAH,HANNAH,true,2020.5800000003073,11,27,33,1,11,11,23,0,1,0,806.0299999995623,undefined,undefined,undefined,
pv8a29jvup,undefined,undefined,undefined,undefined,12,Familiar,15,NA,NA,NA,NA,12,35,24,2,12,8,18,1,0,1,3788.3250000013504,undefined,undefined,undefined,
pv8a29jvup,undefined,undefined,undefined,undefined,13,Know,2,VICTORIA,VICTORIA,true,2123.1950000001234,13,25,18,0,13,30,20,0,0,0,1716.3600000003353,undefined,undefined,undefined,
pv8a29jvup,undefined,undefined,undefined,undefined,14,Know,27,MEGAN,MEGAN,true,1648.909999999887,14,29,4,1,14,21,2,1,1,1,1039.9600000001956,undefined,undefined,undefined,
pv8a29jvup,undefined,undefined,undefined,undefined,15,Familiar,24,NA,NA,NA,NA,15,8,25,0,15,13,29,0,1,0,932.2200000006706,undefined,undefined,undefined,
pv8a29jvup,undefined,undefined,undefined,undefined,16,Know,10,GRACE,GRACE,true,1584.9149999994552,16,2,34,1,16,12,31,1,2,1,1137.4300000006333,undefined,undefined,undefined,
pv8a29jvup,undefined,undefined,undefined,undefined,17,Familiar,32,NA,NA,NA,NA,17,23,36,0,17,34,21,1,2,1,1025.5699999998324,undefined,undefined,undefined,
pv8a29jvup,undefined,undefined,undefined,undefined,18,Know,21,LISA,LISA,true,1559.1700000004494,18,5,19,1,18,31,27,1,2,1,936.4949999998789,undefined,undefined,undefined,
pv8a29jvup,undefined,undefined,undefined,undefined,19,Know,20,JESSICA,JESSICA,true,1830.9150000004738,19,19,2,1,19,9,5,0,1,0,1781.9849999996368,undefined,undefined,undefined,
pv8a29jvup,undefined,undefined,undefined,undefined,20,Familiar,8,NA,NA,NA,NA,20,36,6,2,20,29,4,0,1,0,1459.049999999348,undefined,undefined,undefined,
pv8a29jvup,undefined,undefined,undefined,undefined,21,Familiar,3,NA,NA,NA,NA,21,15,28,0,21,25,25,1,0,1,2845.1400000012945,undefined,undefined,undefined,
pv8a29jvup,undefined,undefined,undefined,undefined,22,Know,4,BRITTANY,BRITTNAY,false,3090.239999999554,22,3,35,0,22,24,35,1,0,1,787.5999999996275,undefined,undefined,undefined,
pv8a29jvup,undefined,undefined,undefined,undefined,23,Know,19,BRIANNA,BRIANNA,true,2536.710000000312,23,7,3,2,23,10,14,1,1,1,1805.6150000011548,undefined,undefined,undefined,
pv8a29jvup,undefined,undefined,undefined,undefined,24,Familiar,25,NA,NA,NA,NA,24,32,1,0,24,4,7,1,1,1,1040.315000000177,undefined,undefined,undefined,
pv8a29jvup,undefined,undefined,undefined,undefined,25,Familiar,33,NA,NA,NA,NA,25,30,20,0,25,36,6,0,2,0,1550.6549999990966,undefined,undefined,undefined,
pv8a29jvup,undefined,undefined,undefined,undefined,26,Know,29,SAMANTHA,SAMANTHA,true,8901.664999999397,26,34,31,2,26,33,30,0,0,0,1255.1800000001676,undefined,undefined,undefined,
pv8a29jvup,undefined,undefined,undefined,undefined,27,Familiar,15,NA,NA,NA,NA,27,24,32,0,27,18,17,1,2,1,911.2800000002608,undefined,undefined,undefined,
pv8a29jvup,undefined,undefined,undefined,undefined,28,Familiar,23,NA,NA,NA,NA,28,14,15,2,28,1,11,0,0,0,1293.9449999995995,undefined,undefined,undefined,
pv8a29jvup,undefined,undefined,undefined,undefined,29,Know,20,JESSICA,JESSICA,true,8700.614999999758,29,1,11,0,29,16,8,0,2,0,862.7450000005774,undefined,undefined,undefined,
pv8a29jvup,undefined,undefined,undefined,undefined,30,Know,9,HANNAH,GRACE,false,10752.679999999644,30,6,10,2,30,17,16,0,0,0,1874.4899999999907,undefined,undefined,undefined,
pv8a29jvup,undefined,undefined,undefined,undefined,31,Familiar,25,NA,NA,NA,NA,31,12,21,2,31,14,15,0,2,0,823.7200000002049,undefined,undefined,undefined,
pv8a29jvup,undefined,undefined,undefined,undefined,32,Familiar,8,NA,NA,NA,NA,32,17,16,0,32,35,24,0,2,0,891.884999999078,undefined,undefined,undefined,
pv8a29jvup,undefined,undefined,undefined,undefined,33,Know,4,BRITTANY,GRACE,false,4994.995000000927,33,16,8,2,33,27,13,1,1,1,2150.69000000041,undefined,undefined,undefined,
pv8a29jvup,undefined,undefined,undefined,undefined,34,Know,11,MADISON,MADISON,true,2931.7550000014016,34,33,30,0,34,22,22,0,0,0,836.4799999999814,undefined,undefined,undefined,
pv8a29jvup,undefined,undefined,undefined,undefined,35,Familiar,17,NA,NA,NA,NA,35,13,29,1,35,20,33,1,1,1,1351.7499999997672,undefined,undefined,undefined,
pv8a29jvup,undefined,undefined,undefined,undefined,36,Know,13,ASHLEY,ASHLEY,true,2382.2199999995064,36,28,26,2,36,3,32,1,0,1,799.7950000008568,undefined,undefined,undefined,
pv8a29jvup,undefined,undefined,undefined,undefined,37,Know,21,LISA,GRACE,false,9284.7649999985,37,30,20,0,undefined,undefined,undefined,undefined,undefined,undefined,undefined,undefined,undefined,undefined,
pv8a29jvup,undefined,undefined,undefined,undefined,38,Familiar,1,NA,NA,NA,NA,38,22,22,0,undefined,undefined,undefined,undefined,undefined,undefined,undefined,undefined,undefined,undefined,
pv8a29jvup,undefined,undefined,undefined,undefined,39,Familiar,24,NA,NA,NA,NA,39,21,9,1,undefined,undefined,undefined,undefined,undefined,undefined,undefined,undefined,undefined,undefined,
pv8a29jvup,undefined,undefined,undefined,undefined,40,Know,27,MEGAN,MEGAN,true,4435.445000000938,40,20,13,1,undefined,undefined,undefined,undefined,undefined,undefined,undefined,undefined,undefined,undefined,
pv8a29jvup,undefined,undefined,undefined,undefined,41,Familiar,32,NA,NA,NA,NA,41,24,32,0,undefined,undefined,undefined,undefined,undefined,undefined,undefined,undefined,undefined,undefined,
pv8a29jvup,undefined,undefined,undefined,undefined,42,Know,19,BRIANNA,GRACE,false,1933.3449999994482,42,25,18,0,undefined,undefined,undefined,undefined,undefined,undefined,undefined,undefined,undefined,undefined,
pv8a29jvup,undefined,undefined,undefined,undefined,43,Know,2,VICTORIA,GRACE,false,5503.774999999208,43,10,7,1,undefined,undefined,undefined,undefined,undefined,undefined,undefined,undefined,undefined,undefined,
pv8a29jvup,undefined,undefined,undefined,undefined,44,Familiar,3,NA,NA,NA,NA,44,3,35,0,undefined,undefined,undefined,undefined,undefined,undefined,undefined,undefined,undefined,undefined,
pv8a29jvup,undefined,undefined,undefined,undefined,45,Know,5,EMILY,GRACE,false,2679.71000000037,45,26,12,2,undefined,undefined,undefined,undefined,undefined,undefined,undefined,undefined,undefined,undefined,
pv8a29jvup,undefined,undefined,undefined,undefined,46,Familiar,30,NA,NA,NA,NA,46,23,36,0,undefined,undefined,undefined,undefined,undefined,undefined,undefined,undefined,undefined,undefined,
pv8a29jvup,undefined,undefined,undefined,undefined,47,Familiar,22,NA,NA,NA,NA,47,32,1,0,undefined,undefined,undefined,undefined,undefined,undefined,undefined,undefined,undefined,undefined,
pv8a29jvup,undefined,undefined,undefined,undefined,48,Know,10,GRACE,GRACE,true,2287.005000000121,48,12,21,2,undefined,undefined,undefined,undefined,undefined,undefined,undefined,undefined,undefined,undefined,
pv8a29jvup,undefined,undefined,undefined,undefined,49,Know,29,SAMANTHA,SAMANTHA,true,4343.840000001364,49,16,8,2,undefined,undefined,undefined,undefined,undefined,undefined,undefined,undefined,undefined,undefined,
pv8a29jvup,undefined,undefined,undefined,undefined,50,Familiar,33,NA,NA,NA,NA,50,17,16,0,undefined,undefined,undefined,undefined,undefined,undefined,undefined,undefined,undefined,undefined,
pv8a29jvup,undefined,undefined,undefined,undefined,51,Familiar,15,NA,NA,NA,NA,51,4,14,1,undefined,undefined,undefined,undefined,undefined,undefined,undefined,undefined,undefined,undefined,
pv8a29jvup,undefined,undefined,undefined,undefined,52,Know,9,HANNAH,HANNAH,true,8977.885000000242,52,35,24,2,undefined,undefined,undefined,undefined,undefined,undefined,undefined,undefined,undefined,undefined,
pv8a29jvup,undefined,undefined,undefined,undefined,53,Know,5,EMILY,EMILY,true,3088.714999999909,53,14,15,2,undefined,undefined,undefined,undefined,undefined,undefined,undefined,undefined,undefined,undefined,
pv8a29jvup,undefined,undefined,undefined,undefined,54,Familiar,22,NA,NA,NA,NA,54,15,28,0,undefined,undefined,undefined,undefined,undefined,undefined,undefined,undefined,undefined,undefined,
pv8a29jvup,undefined,undefined,undefined,undefined,55,Familiar,3,NA,NA,NA,NA,55,19,2,1,undefined,undefined,undefined,undefined,undefined,undefined,undefined,undefined,undefined,undefined,
pv8a29jvup,undefined,undefined,undefined,undefined,56,Know,2,VICTORIA,VICTORIA,true,4158.185000000289,56,27,33,1,undefined,undefined,undefined,undefined,undefined,undefined,undefined,undefined,undefined,undefined,
pv8a29jvup,undefined,undefined,undefined,undefined,57,Familiar,23,NA,NA,NA,NA,57,1,11,0,undefined,undefined,undefined,undefined,undefined,undefined,undefined,undefined,undefined,undefined,
pv8a29jvup,undefined,undefined,undefined,undefined,58,Familiar,1,NA,NA,NA,NA,58,11,23,1,undefined,undefined,undefined,undefined,undefined,undefined,undefined,undefined,undefined,undefined,
pv8a29jvup,undefined,undefined,undefined,undefined,59,Know,27,MEGAN,MEGAN,true,1756.465000000433,59,31,17,2,undefined,undefined,undefined,undefined,undefined,undefined,undefined,undefined,undefined,undefined,
pv8a29jvup,undefined,undefined,undefined,undefined,60,Know,13,ASHLEY,ASHLEU,false,3656.1000000001513,60,34,31,2,undefined,undefined,undefined,undefined,undefined,undefined,undefined,undefined,undefined,undefined,
pv8a29jvup,undefined,undefined,undefined,undefined,61,Familiar,8,NA,NA,NA,NA,61,2,34,1,undefined,undefined,undefined,undefined,undefined,undefined,undefined,undefined,undefined,undefined,
pv8a29jvup,undefined,undefined,undefined,undefined,62,Know,10,GRACE,GRACE,true,2487.4149999995716,62,36,6,2,undefined,undefined,undefined,undefined,undefined,undefined,undefined,undefined,undefined,undefined,
pv8a29jvup,undefined,undefined,undefined,undefined,63,Know,20,JESSICA,BRITTNAY,false,7871.030000000261,63,5,19,1,undefined,undefined,undefined,undefined,undefined,undefined,undefined,undefined,undefined,undefined,
pv8a29jvup,undefined,undefined,undefined,undefined,64,Familiar,17,NA,NA,NA,NA,64,13,29,1,undefined,undefined,undefined,undefined,undefined,undefined,undefined,undefined,undefined,undefined,
pv8a29jvup,undefined,undefined,undefined,undefined,65,Know,11,MADISON,MADISON,true,3904.475000001141,65,8,25,0,undefined,undefined,undefined,undefined,undefined,undefined,undefined,undefined,undefined,undefined,
pv8a29jvup,undefined,undefined,undefined,undefined,66,Familiar,24,NA,NA,NA,NA,66,18,27,2,undefined,undefined,undefined,undefined,undefined,undefined,undefined,undefined,undefined,undefined,
pv8a29jvup,undefined,undefined,undefined,undefined,67,Know,21,LISA,BRITTNAY,false,7401.6399999982095,67,9,5,1,undefined,undefined,undefined,undefined,undefined,undefined,undefined,undefined,undefined,undefined,
pv8a29jvup,undefined,undefined,undefined,undefined,68,Familiar,30,NA,NA,NA,NA,68,28,26,2,undefined,undefined,undefined,undefined,undefined,undefined,undefined,undefined,undefined,undefined,
pv8a29jvup,undefined,undefined,undefined,undefined,69,Know,19,BRIANNA,BRITTNAY,false,4065.0699999987264,69,33,30,0,undefined,undefined,undefined,undefined,undefined,undefined,undefined,undefined,undefined,undefined,
pv8a29jvup,undefined,undefined,undefined,undefined,70,Familiar,32,NA,NA,NA,NA,70,7,3,2,undefined,undefined,undefined,undefined,undefined,undefined,undefined,undefined,undefined,undefined,
pv8a29jvup,undefined,undefined,undefined,undefined,71,Familiar,25,NA,NA,NA,NA,71,6,10,2,undefined,undefined,undefined,undefined,undefined,undefined,undefined,undefined,undefined,undefined,
pv8a29jvup,undefined,undefined,undefined,undefined,72,Know,4,BRITTANY,BRITTNAY,false,3700.319999999949,72,29,4,1,undefined,undefined,undefined,undefined,undefined,undefined,undefined,undefined,undefined,undefined,
pv8a29jvup,undefined,undefined,undefined,undefined,73,Know,11,MADISON,MADISON,true,4317.829999999958,undefined,undefined,undefined,undefined,undefined,undefined,undefined,undefined,undefined,undefined,undefined,undefined,undefined,undefined,
pv8a29jvup,undefined,undefined,undefined,undefined,74,Familiar,33,NA,NA,NA,NA,undefined,undefined,undefined,undefined,undefined,undefined,undefined,undefined,undefined,undefined,undefined,undefined,undefined,undefined,
pv8a29jvup,undefined,undefined,undefined,undefined,75,Familiar,15,NA,NA,NA,NA,undefined,undefined,undefined,undefined,undefined,undefined,undefined,undefined,undefined,undefined,undefined,undefined,undefined,undefined,
pv8a29jvup,undefined,undefined,undefined,undefined,76,Know,27,MEGAN,MEGAN,true,5088.289999999688,undefined,undefined,undefined,undefined,undefined,undefined,undefined,undefined,undefined,undefined,undefined,undefined,undefined,undefined,
pv8a29jvup,undefined,undefined,undefined,undefined,77,Know,4,BRITTANY,BRITTNAY,false,11059.785000001313,undefined,undefined,undefined,undefined,undefined,undefined,undefined,undefined,undefined,undefined,undefined,undefined,undefined,undefined,
pv8a29jvup,undefined,undefined,undefined,undefined,78,Familiar,25,NA,NA,NA,NA,undefined,undefined,undefined,undefined,undefined,undefined,undefined,undefined,undefined,undefined,undefined,undefined,undefined,undefined,
pv8a29jvup,undefined,undefined,undefined,undefined,79,Know,13,ASHLEY,ASHLEY,true,2488.1350000014063,undefined,undefined,undefined,undefined,undefined,undefined,undefined,undefined,undefined,undefined,undefined,undefined,undefined,undefined,
pv8a29jvup,undefined,undefined,undefined,undefined,80,Know,21,LISA,LISA,true,1886.6450000004843,undefined,undefined,undefined,undefined,undefined,undefined,undefined,undefined,undefined,undefined,undefined,undefined,undefined,undefined,
pv8a29jvup,undefined,undefined,undefined,undefined,81,Familiar,3,NA,NA,NA,NA,undefined,undefined,undefined,undefined,undefined,undefined,undefined,undefined,undefined,undefined,undefined,undefined,undefined,undefined,
pv8a29jvup,undefined,undefined,undefined,undefined,82,Familiar,17,NA,NA,NA,NA,undefined,undefined,undefined,undefined,undefined,undefined,undefined,undefined,undefined,undefined,undefined,undefined,undefined,undefined,
pv8a29jvup,undefined,undefined,undefined,undefined,83,Know,2,VICTORIA,VICTORIA,true,2723.2399999994086,undefined,undefined,undefined,undefined,undefined,undefined,undefined,undefined,undefined,undefined,undefined,undefined,undefined,undefined,
pv8a29jvup,undefined,undefined,undefined,undefined,84,Know,10,GRACE,GRACE,true,2535.4749999988126,undefined,undefined,undefined,undefined,undefined,undefined,undefined,undefined,undefined,undefined,undefined,undefined,undefined,undefined,
pv8a29jvup,undefined,undefined,undefined,undefined,85,Familiar,1,NA,NA,NA,NA,undefined,undefined,undefined,undefined,undefined,undefined,undefined,undefined,undefined,undefined,undefined,undefined,undefined,undefined,
pv8a29jvup,undefined,undefined,undefined,undefined,86,Familiar,22,NA,NA,NA,NA,undefined,undefined,undefined,undefined,undefined,undefined,undefined,undefined,undefined,undefined,undefined,undefined,undefined,undefined,
pv8a29jvup,undefined,undefined,undefined,undefined,87,Know,5,EMILY,HANNAH,false,7292.279999999679,undefined,undefined,undefined,undefined,undefined,undefined,undefined,undefined,undefined,undefined,undefined,undefined,undefined,undefined,
pv8a29jvup,undefined,undefined,undefined,undefined,88,Familiar,24,NA,NA,NA,NA,undefined,undefined,undefined,undefined,undefined,undefined,undefined,undefined,undefined,undefined,undefined,undefined,undefined,undefined,
pv8a29jvup,undefined,undefined,undefined,undefined,89,Know,20,JESSICA,JESSICA,true,3897.0300000001444,undefined,undefined,undefined,undefined,undefined,undefined,undefined,undefined,undefined,undefined,undefined,undefined,undefined,undefined,
pv8a29jvup,undefined,undefined,undefined,undefined,90,Familiar,32,NA,NA,NA,NA,undefined,undefined,undefined,undefined,undefined,undefined,undefined,undefined,undefined,undefined,undefined,undefined,undefined,undefined,
pv8a29jvup,undefined,undefined,undefined,undefined,91,Know,9,HANNAH,HANNAH,true,22800.905000000028,undefined,undefined,undefined,undefined,undefined,undefined,undefined,undefined,undefined,undefined,undefined,undefined,undefined,undefined,
pv8a29jvup,undefined,undefined,undefined,undefined,92,Familiar,30,NA,NA,NA,NA,undefined,undefined,undefined,undefined,undefined,undefined,undefined,undefined,undefined,undefined,undefined,undefined,undefined,undefined,
pv8a29jvup,undefined,undefined,undefined,undefined,93,Know,29,SAMANTHA,SAMANTHA,true,3179.199999998673,undefined,undefined,undefined,undefined,undefined,undefined,undefined,undefined,undefined,undefined,undefined,undefined,undefined,undefined,
pv8a29jvup,undefined,undefined,undefined,undefined,94,Familiar,8,NA,NA,NA,NA,undefined,undefined,undefined,undefined,undefined,undefined,undefined,undefined,undefined,undefined,undefined,undefined,undefined,undefined,
pv8a29jvup,undefined,undefined,undefined,undefined,95,Familiar,23,NA,NA,NA,NA,undefined,undefined,undefined,undefined,undefined,undefined,undefined,undefined,undefined,undefined,undefined,undefined,undefined,undefined,
pv8a29jvup,undefined,undefined,undefined,undefined,96,Know,19,BRIANNA,LISA,false,14177.794999999576,undefined,undefined,undefined,undefined,undefined,undefined,undefined,undefined,undefined,undefined,undefined,undefined,undefined,undefined,
