SubNum,SubNum_demo,Exp_start_time,Exp_today_date,Exp_today_time,TrialNum,Condition,Face,Name,Response,NameAcc,RespTime,StudyTrialNum,StudyFace,StudyContext,StudyFamCond,TestTrialNum,TestFace,TestContext,TestSDCond,TestFamCond,TestResponse,TestResponseTime,Exp_end_time,Distractor_1_duration,Distractor_2_duration,
y4fhmc6wgb,xvs32weplk,Mon Nov 02 2020 23:19:03 GMT-0600 (Central Standard Time),2020-11-2,23:19:3,1,Familiar,36,NA,NA,NA,NA,1,6,15,0,1,25,32,0,2,1,1465.3149999212474,23:40:3,125305.50499993842,60845.994999981485,
y4fhmc6wgb,undefined,undefined,undefined,undefined,2,Familiar,32,NA,NA,NA,NA,2,35,21,2,2,10,4,0,0,0,1593.8150000292808,undefined,undefined,undefined,
y4fhmc6wgb,undefined,undefined,undefined,undefined,3,Know,33,HANNAH,HANNAH,true,4400.390000082552,3,22,7,1,3,4,2,1,2,1,2126.520000048913,undefined,undefined,undefined,
y4fhmc6wgb,undefined,undefined,undefined,undefined,4,Know,12,HAZEL,HAZEL,true,2843.929999973625,4,13,10,1,4,36,14,0,0,0,1258.8250000262633,undefined,undefined,undefined,
y4fhmc6wgb,undefined,undefined,undefined,undefined,5,Familiar,10,NA,NA,NA,NA,5,26,16,0,5,6,15,0,0,0,1795.0950000667945,undefined,undefined,undefined,
y4fhmc6wgb,undefined,undefined,undefined,undefined,6,Know,11,ASHLEY,ASHLEY,true,3194.5449999766424,6,34,24,2,6,20,36,1,0,1,1209.7549999598414,undefined,undefined,undefined,
y4fhmc6wgb,undefined,undefined,undefined,undefined,7,Know,13,PATRICIA,PATRICIA,true,3210.484999930486,7,28,34,1,7,9,26,0,2,1,1507.785000023432,undefined,undefined,undefined,
y4fhmc6wgb,undefined,undefined,undefined,undefined,8,Familiar,5,NA,NA,NA,NA,8,33,18,1,8,19,6,1,0,1,1235.1999999955297,undefined,undefined,undefined,
y4fhmc6wgb,undefined,undefined,undefined,undefined,9,Familiar,6,NA,NA,NA,NA,9,25,32,2,9,22,28,1,1,0,1388.5149999987334,undefined,undefined,undefined,
y4fhmc6wgb,undefined,undefined,undefined,undefined,10,Know,16,SARAH,SARAH,true,2233.2300000125542,10,16,22,1,10,18,3,1,2,1,2068.580000079237,undefined,undefined,undefined,
y4fhmc6wgb,undefined,undefined,undefined,undefined,11,Know,31,NANCY,NANCY,true,1862.2749999631196,11,18,2,2,11,5,19,0,0,1,1377.284999936819,undefined,undefined,undefined,
y4fhmc6wgb,undefined,undefined,undefined,undefined,12,Familiar,24,NA,NA,NA,NA,12,17,25,2,12,11,29,0,1,0,1174.8749999096617,undefined,undefined,undefined,
y4fhmc6wgb,undefined,undefined,undefined,undefined,13,Familiar,26,NA,NA,NA,NA,13,12,20,1,13,7,7,1,1,1,1716.4450000273064,undefined,undefined,undefined,
y4fhmc6wgb,undefined,undefined,undefined,undefined,14,Know,8,MADISON,MADISON,true,2278.8500000024214,14,2,12,2,14,17,12,1,2,1,1407.4699999764562,undefined,undefined,undefined,
y4fhmc6wgb,undefined,undefined,undefined,undefined,15,Know,14,ALYSSA,ALYSSA,true,2203.470000065863,15,21,27,2,15,2,25,1,2,0,1352.8199999127537,undefined,undefined,undefined,
y4fhmc6wgb,undefined,undefined,undefined,undefined,16,Familiar,23,NA,NA,NA,NA,16,30,23,0,16,3,34,1,1,1,1632.8250000951812,undefined,undefined,undefined,
y4fhmc6wgb,undefined,undefined,undefined,undefined,17,Familiar,20,NA,NA,NA,NA,17,23,17,0,17,15,17,1,0,1,1301.534999976866,undefined,undefined,undefined,
y4fhmc6wgb,undefined,undefined,undefined,undefined,18,Know,28,CHLOE,CHLOE,true,4028.1299999915063,18,14,9,1,18,29,8,0,2,0,2190.669999923557,undefined,undefined,undefined,
y4fhmc6wgb,undefined,undefined,undefined,undefined,19,Know,3,MARGARET,MARGARET,true,2066.6249999776483,19,5,19,0,19,28,30,1,1,1,958.405000041239,undefined,undefined,undefined,
y4fhmc6wgb,undefined,undefined,undefined,undefined,20,Familiar,30,NA,NA,NA,NA,20,15,13,0,20,33,18,0,1,0,1486.4400000078604,undefined,undefined,undefined,
y4fhmc6wgb,undefined,undefined,undefined,undefined,21,Know,22,MEGAN,MEGAN,true,1906.1099999817088,21,7,28,1,21,27,11,0,2,1,1443.5799999628216,undefined,undefined,undefined,
y4fhmc6wgb,undefined,undefined,undefined,undefined,22,Know,7,ALEXIS,ALEXIS,true,2191.8499999446794,22,24,31,0,22,13,10,0,1,0,1519.8099999688566,undefined,undefined,undefined,
y4fhmc6wgb,undefined,undefined,undefined,undefined,23,Familiar,15,NA,NA,NA,NA,23,4,3,2,23,34,21,1,2,1,1431.63500004448,undefined,undefined,undefined,
y4fhmc6wgb,undefined,undefined,undefined,undefined,24,Familiar,19,NA,NA,NA,NA,24,27,11,2,24,35,24,1,2,1,2847.2550000296906,undefined,undefined,undefined,
y4fhmc6wgb,undefined,undefined,undefined,undefined,25,Know,28,CHLOE,MEGAN,false,7472.54999994766,25,36,14,0,25,32,5,0,0,0,1566.8199999490753,undefined,undefined,undefined,
y4fhmc6wgb,undefined,undefined,undefined,undefined,26,Familiar,10,NA,NA,NA,NA,26,32,5,0,26,8,9,1,1,1,2189.544999971986,undefined,undefined,undefined,
y4fhmc6wgb,undefined,undefined,undefined,undefined,27,Familiar,36,NA,NA,NA,NA,27,11,29,1,27,12,20,0,1,0,1353.815000038594,undefined,undefined,undefined,
y4fhmc6wgb,undefined,undefined,undefined,undefined,28,Know,22,MEGAN,MEGAN,true,3088.4599999990314,28,10,4,0,28,14,33,1,1,1,2406.510000000708,undefined,undefined,undefined,
y4fhmc6wgb,undefined,undefined,undefined,undefined,29,Know,8,MADISON,MADISON,true,3372.444999986328,29,31,35,1,29,23,13,1,0,1,1137.749999994412,undefined,undefined,undefined,
y4fhmc6wgb,undefined,undefined,undefined,undefined,30,Familiar,5,NA,NA,NA,NA,30,29,8,2,30,21,27,0,2,0,1926.7649999819696,undefined,undefined,undefined,
y4fhmc6wgb,undefined,undefined,undefined,undefined,31,Familiar,26,NA,NA,NA,NA,31,19,36,0,31,26,23,1,0,1,2053.0799999833107,undefined,undefined,undefined,
y4fhmc6wgb,undefined,undefined,undefined,undefined,32,Know,11,ASHLEY,ALYSSA,false,14505.195000092499,32,9,26,2,32,31,35,0,1,1,1061.4700000733137,undefined,undefined,undefined,
y4fhmc6wgb,undefined,undefined,undefined,undefined,33,Familiar,6,NA,NA,NA,NA,33,1,1,2,33,1,1,0,2,0,1041.7799999704584,undefined,undefined,undefined,
y4fhmc6wgb,undefined,undefined,undefined,undefined,34,Familiar,24,NA,NA,NA,NA,34,8,33,1,34,30,16,1,0,1,957.494999980554,undefined,undefined,undefined,
y4fhmc6wgb,undefined,undefined,undefined,undefined,35,Know,12,HAZEL,ALYSSA,false,11365.095000015572,35,3,30,1,35,24,31,0,0,0,1278.7999999709427,undefined,undefined,undefined,
y4fhmc6wgb,undefined,undefined,undefined,undefined,36,Familiar,20,NA,NA,NA,NA,36,20,6,0,36,16,22,0,1,0,925.4250000230968,undefined,undefined,undefined,
y4fhmc6wgb,undefined,undefined,undefined,undefined,37,Know,13,PATRICIA,PATRICIA,true,7080.010000034235,37,22,7,1,undefined,undefined,undefined,undefined,undefined,undefined,undefined,undefined,undefined,undefined,
y4fhmc6wgb,undefined,undefined,undefined,undefined,38,Familiar,32,NA,NA,NA,NA,38,2,12,2,undefined,undefined,undefined,undefined,undefined,undefined,undefined,undefined,undefined,undefined,
y4fhmc6wgb,undefined,undefined,undefined,undefined,39,Know,14,ALYSSA,ALYSSA,true,3357.0150000741705,39,7,28,1,undefined,undefined,undefined,undefined,undefined,undefined,undefined,undefined,undefined,undefined,
y4fhmc6wgb,undefined,undefined,undefined,undefined,40,Know,31,NANCY,ASHLEY,false,5710.794999962673,40,24,31,0,undefined,undefined,undefined,undefined,undefined,undefined,undefined,undefined,undefined,undefined,
y4fhmc6wgb,undefined,undefined,undefined,undefined,41,Familiar,19,NA,NA,NA,NA,41,33,18,1,undefined,undefined,undefined,undefined,undefined,undefined,undefined,undefined,undefined,undefined,
y4fhmc6wgb,undefined,undefined,undefined,undefined,42,Know,16,SARAH,SARAH,true,7491.769999964163,42,14,9,1,undefined,undefined,undefined,undefined,undefined,undefined,undefined,undefined,undefined,undefined,
y4fhmc6wgb,undefined,undefined,undefined,undefined,43,Know,7,ALEXIS,ASHLEY,false,7472.399999969639,43,10,4,0,undefined,undefined,undefined,undefined,undefined,undefined,undefined,undefined,undefined,undefined,
y4fhmc6wgb,undefined,undefined,undefined,undefined,44,Familiar,30,NA,NA,NA,NA,44,4,3,2,undefined,undefined,undefined,undefined,undefined,undefined,undefined,undefined,undefined,undefined,
y4fhmc6wgb,undefined,undefined,undefined,undefined,45,Know,33,HANNAH,NANCY,false,2957.3249999666587,45,11,29,1,undefined,undefined,undefined,undefined,undefined,undefined,undefined,undefined,undefined,undefined,
y4fhmc6wgb,undefined,undefined,undefined,undefined,46,Familiar,23,NA,NA,NA,NA,46,15,13,0,undefined,undefined,undefined,undefined,undefined,undefined,undefined,undefined,undefined,undefined,
y4fhmc6wgb,undefined,undefined,undefined,undefined,47,Familiar,15,NA,NA,NA,NA,47,19,36,0,undefined,undefined,undefined,undefined,undefined,undefined,undefined,undefined,undefined,undefined,
y4fhmc6wgb,undefined,undefined,undefined,undefined,48,Know,3,MARGARET,MARGARET,true,4325.620000017807,48,35,21,2,undefined,undefined,undefined,undefined,undefined,undefined,undefined,undefined,undefined,undefined,
y4fhmc6wgb,undefined,undefined,undefined,undefined,49,Familiar,19,NA,NA,NA,NA,49,29,8,2,undefined,undefined,undefined,undefined,undefined,undefined,undefined,undefined,undefined,undefined,
y4fhmc6wgb,undefined,undefined,undefined,undefined,50,Know,14,ALYSSA,ALYSSA,true,4063.48499993328,50,28,34,1,undefined,undefined,undefined,undefined,undefined,undefined,undefined,undefined,undefined,undefined,
y4fhmc6wgb,undefined,undefined,undefined,undefined,51,Familiar,24,NA,NA,NA,NA,51,13,10,1,undefined,undefined,undefined,undefined,undefined,undefined,undefined,undefined,undefined,undefined,
y4fhmc6wgb,undefined,undefined,undefined,undefined,52,Familiar,5,NA,NA,NA,NA,52,1,1,2,undefined,undefined,undefined,undefined,undefined,undefined,undefined,undefined,undefined,undefined,
y4fhmc6wgb,undefined,undefined,undefined,undefined,53,Know,31,NANCY,NANCY,true,3677.2349999519065,53,27,11,2,undefined,undefined,undefined,undefined,undefined,undefined,undefined,undefined,undefined,undefined,
y4fhmc6wgb,undefined,undefined,undefined,undefined,54,Familiar,30,NA,NA,NA,NA,54,26,16,0,undefined,undefined,undefined,undefined,undefined,undefined,undefined,undefined,undefined,undefined,
y4fhmc6wgb,undefined,undefined,undefined,undefined,55,Familiar,26,NA,NA,NA,NA,55,8,33,1,undefined,undefined,undefined,undefined,undefined,undefined,undefined,undefined,undefined,undefined,
y4fhmc6wgb,undefined,undefined,undefined,undefined,56,Know,28,CHLOE,HANNAH,false,9862.39000002388,56,21,27,2,undefined,undefined,undefined,undefined,undefined,undefined,undefined,undefined,undefined,undefined,
y4fhmc6wgb,undefined,undefined,undefined,undefined,57,Know,8,MADISON,MADISON,true,3299.4099999777973,57,23,17,0,undefined,undefined,undefined,undefined,undefined,undefined,undefined,undefined,undefined,undefined,
y4fhmc6wgb,undefined,undefined,undefined,undefined,58,Familiar,36,NA,NA,NA,NA,58,6,15,0,undefined,undefined,undefined,undefined,undefined,undefined,undefined,undefined,undefined,undefined,
y4fhmc6wgb,undefined,undefined,undefined,undefined,59,Know,11,ASHLEY,ASHLEY,true,10962.159999995492,59,18,2,2,undefined,undefined,undefined,undefined,undefined,undefined,undefined,undefined,undefined,undefined,
y4fhmc6wgb,undefined,undefined,undefined,undefined,60,Know,13,PATRICIA,PATRICIA,true,5366.634999983944,60,34,24,2,undefined,undefined,undefined,undefined,undefined,undefined,undefined,undefined,undefined,undefined,
y4fhmc6wgb,undefined,undefined,undefined,undefined,61,Familiar,6,NA,NA,NA,NA,61,36,14,0,undefined,undefined,undefined,undefined,undefined,undefined,undefined,undefined,undefined,undefined,
y4fhmc6wgb,undefined,undefined,undefined,undefined,62,Familiar,32,NA,NA,NA,NA,62,20,6,0,undefined,undefined,undefined,undefined,undefined,undefined,undefined,undefined,undefined,undefined,
y4fhmc6wgb,undefined,undefined,undefined,undefined,63,Know,16,SARAH,SARAH,true,2390.5249999370426,63,16,22,1,undefined,undefined,undefined,undefined,undefined,undefined,undefined,undefined,undefined,undefined,
y4fhmc6wgb,undefined,undefined,undefined,undefined,64,Familiar,10,NA,NA,NA,NA,64,5,19,0,undefined,undefined,undefined,undefined,undefined,undefined,undefined,undefined,undefined,undefined,
y4fhmc6wgb,undefined,undefined,undefined,undefined,65,Know,33,HANNAH,HANNAH,true,3247.719999984838,65,25,32,2,undefined,undefined,undefined,undefined,undefined,undefined,undefined,undefined,undefined,undefined,
y4fhmc6wgb,undefined,undefined,undefined,undefined,66,Familiar,23,NA,NA,NA,NA,66,12,20,1,undefined,undefined,undefined,undefined,undefined,undefined,undefined,undefined,undefined,undefined,
y4fhmc6wgb,undefined,undefined,undefined,undefined,67,Familiar,15,NA,NA,NA,NA,67,9,26,2,undefined,undefined,undefined,undefined,undefined,undefined,undefined,undefined,undefined,undefined,
y4fhmc6wgb,undefined,undefined,undefined,undefined,68,Know,7,ALEXIS,ALEXIS,true,3226.4000000432134,68,32,5,0,undefined,undefined,undefined,undefined,undefined,undefined,undefined,undefined,undefined,undefined,
y4fhmc6wgb,undefined,undefined,undefined,undefined,69,Know,3,MARGARET,MARGARET,true,4386.934999958612,69,30,23,0,undefined,undefined,undefined,undefined,undefined,undefined,undefined,undefined,undefined,undefined,
y4fhmc6wgb,undefined,undefined,undefined,undefined,70,Familiar,20,NA,NA,NA,NA,70,31,35,1,undefined,undefined,undefined,undefined,undefined,undefined,undefined,undefined,undefined,undefined,
y4fhmc6wgb,undefined,undefined,undefined,undefined,71,Know,22,MEGAN,MEGAN,true,9645.665000076406,71,17,25,2,undefined,undefined,undefined,undefined,undefined,undefined,undefined,undefined,undefined,undefined,
y4fhmc6wgb,undefined,undefined,undefined,undefined,72,Know,12,HAZEL,NANCY,false,7472.09500009194,72,3,30,1,undefined,undefined,undefined,undefined,undefined,undefined,undefined,undefined,undefined,undefined,
y4fhmc6wgb,undefined,undefined,undefined,undefined,73,Familiar,26,NA,NA,NA,NA,undefined,undefined,undefined,undefined,undefined,undefined,undefined,undefined,undefined,undefined,undefined,undefined,undefined,undefined,
y4fhmc6wgb,undefined,undefined,undefined,undefined,74,Know,33,HANNAH,HANNAH,true,2380.180000094697,undefined,undefined,undefined,undefined,undefined,undefined,undefined,undefined,undefined,undefined,undefined,undefined,undefined,undefined,
y4fhmc6wgb,undefined,undefined,undefined,undefined,75,Know,31,NANCY,ASHLEY,false,14151.874999981374,undefined,undefined,undefined,undefined,undefined,undefined,undefined,undefined,undefined,undefined,undefined,undefined,undefined,undefined,
y4fhmc6wgb,undefined,undefined,undefined,undefined,76,Familiar,10,NA,NA,NA,NA,undefined,undefined,undefined,undefined,undefined,undefined,undefined,undefined,undefined,undefined,undefined,undefined,undefined,undefined,
y4fhmc6wgb,undefined,undefined,undefined,undefined,77,Know,3,MARGARET,MARGARET,true,2265.8250000094995,undefined,undefined,undefined,undefined,undefined,undefined,undefined,undefined,undefined,undefined,undefined,undefined,undefined,undefined,
y4fhmc6wgb,undefined,undefined,undefined,undefined,78,Know,11,ASHLEY,CHLOE,false,3281.660000095144,undefined,undefined,undefined,undefined,undefined,undefined,undefined,undefined,undefined,undefined,undefined,undefined,undefined,undefined,
y4fhmc6wgb,undefined,undefined,undefined,undefined,79,Familiar,23,NA,NA,NA,NA,undefined,undefined,undefined,undefined,undefined,undefined,undefined,undefined,undefined,undefined,undefined,undefined,undefined,undefined,
y4fhmc6wgb,undefined,undefined,undefined,undefined,80,Familiar,15,NA,NA,NA,NA,undefined,undefined,undefined,undefined,undefined,undefined,undefined,undefined,undefined,undefined,undefined,undefined,undefined,undefined,
y4fhmc6wgb,undefined,undefined,undefined,undefined,81,Know,28,CHLOE,ASHLE,false,5906.51500003878,undefined,undefined,undefined,undefined,undefined,undefined,undefined,undefined,undefined,undefined,undefined,undefined,undefined,undefined,
y4fhmc6wgb,undefined,undefined,undefined,undefined,82,Familiar,19,NA,NA,NA,NA,undefined,undefined,undefined,undefined,undefined,undefined,undefined,undefined,undefined,undefined,undefined,undefined,undefined,undefined,
y4fhmc6wgb,undefined,undefined,undefined,undefined,83,Familiar,30,NA,NA,NA,NA,undefined,undefined,undefined,undefined,undefined,undefined,undefined,undefined,undefined,undefined,undefined,undefined,undefined,undefined,
y4fhmc6wgb,undefined,undefined,undefined,undefined,84,Know,12,HAZEL,HAZEL,true,4032.554999925196,undefined,undefined,undefined,undefined,undefined,undefined,undefined,undefined,undefined,undefined,undefined,undefined,undefined,undefined,
y4fhmc6wgb,undefined,undefined,undefined,undefined,85,Familiar,36,NA,NA,NA,NA,undefined,undefined,undefined,undefined,undefined,undefined,undefined,undefined,undefined,undefined,undefined,undefined,undefined,undefined,
y4fhmc6wgb,undefined,undefined,undefined,undefined,86,Know,16,SARAH,SARAH,true,2616.7399999685585,undefined,undefined,undefined,undefined,undefined,undefined,undefined,undefined,undefined,undefined,undefined,undefined,undefined,undefined,
y4fhmc6wgb,undefined,undefined,undefined,undefined,87,Know,7,ALEXIS,ALEXIS,true,5344.890000065789,undefined,undefined,undefined,undefined,undefined,undefined,undefined,undefined,undefined,undefined,undefined,undefined,undefined,undefined,
y4fhmc6wgb,undefined,undefined,undefined,undefined,88,Familiar,5,NA,NA,NA,NA,undefined,undefined,undefined,undefined,undefined,undefined,undefined,undefined,undefined,undefined,undefined,undefined,undefined,undefined,
y4fhmc6wgb,undefined,undefined,undefined,undefined,89,Know,22,MEGAN,MEGAN,true,2362.5350000802428,undefined,undefined,undefined,undefined,undefined,undefined,undefined,undefined,undefined,undefined,undefined,undefined,undefined,undefined,
y4fhmc6wgb,undefined,undefined,undefined,undefined,90,Know,14,ALYSSA,ALYSSA,true,4642.4999999580905,undefined,undefined,undefined,undefined,undefined,undefined,undefined,undefined,undefined,undefined,undefined,undefined,undefined,undefined,
y4fhmc6wgb,undefined,undefined,undefined,undefined,91,Familiar,20,NA,NA,NA,NA,undefined,undefined,undefined,undefined,undefined,undefined,undefined,undefined,undefined,undefined,undefined,undefined,undefined,undefined,
y4fhmc6wgb,undefined,undefined,undefined,undefined,92,Know,13,PATRICIA,PATRICIA,true,2507.519999984652,undefined,undefined,undefined,undefined,undefined,undefined,undefined,undefined,undefined,undefined,undefined,undefined,undefined,undefined,
y4fhmc6wgb,undefined,undefined,undefined,undefined,93,Familiar,32,NA,NA,NA,NA,undefined,undefined,undefined,undefined,undefined,undefined,undefined,undefined,undefined,undefined,undefined,undefined,undefined,undefined,
y4fhmc6wgb,undefined,undefined,undefined,undefined,94,Familiar,24,NA,NA,NA,NA,undefined,undefined,undefined,undefined,undefined,undefined,undefined,undefined,undefined,undefined,undefined,undefined,undefined,undefined,
y4fhmc6wgb,undefined,undefined,undefined,undefined,95,Know,8,MADISON,MADISON,true,2533.5050000576302,undefined,undefined,undefined,undefined,undefined,undefined,undefined,undefined,undefined,undefined,undefined,undefined,undefined,undefined,
y4fhmc6wgb,undefined,undefined,undefined,undefined,96,Familiar,6,NA,NA,NA,NA,undefined,undefined,undefined,undefined,undefined,undefined,undefined,undefined,undefined,undefined,undefined,undefined,undefined,undefined,
