SubNum,SubNum_demo,Exp_start_time,Exp_today_date,Exp_today_time,TrialNum,Condition,Face,Name,Response,NameAcc,RespTime,StudyTrialNum,StudyFace,StudyContext,StudyFamCond,TestTrialNum,TestFace,TestContext,TestSDCond,TestFamCond,TestResponse,TestResponseTime,Exp_end_time,Distractor_1_duration,Distractor_2_duration,
vvv479cd73,5zbwu7v2hx,Wed Nov 04 2020 11:22:09 GMT-0600 (Central Standard Time),2020-11-4,11:22:9,1,Familiar,14,NA,NA,NA,NA,1,27,26,0,1,36,24,0,2,0,1966.240000212565,11:47:59,122476.50999994949,63572.715000016615,
vvv479cd73,undefined,undefined,undefined,undefined,2,Familiar,11,NA,NA,NA,NA,2,30,19,1,2,7,23,1,2,1,1304.770000046119,undefined,undefined,undefined,
vvv479cd73,undefined,undefined,undefined,undefined,3,Know,34,AMANDA,AMANDA,true,4377.635000040755,3,31,34,2,3,2,8,0,1,0,1540.159999858588,undefined,undefined,undefined,
vvv479cd73,undefined,undefined,undefined,undefined,4,Familiar,1,NA,NA,NA,NA,4,4,10,2,4,25,18,1,2,1,1659.7049999982119,undefined,undefined,undefined,
vvv479cd73,undefined,undefined,undefined,undefined,5,Familiar,16,NA,NA,NA,NA,5,15,14,1,5,27,26,0,0,0,1613.5399998165667,undefined,undefined,undefined,
vvv479cd73,undefined,undefined,undefined,undefined,6,Know,30,REBECCA,REBECCA,true,3847.2700000274926,6,20,6,0,6,24,3,0,2,0,1568.44999990426,undefined,undefined,undefined,
vvv479cd73,undefined,undefined,undefined,undefined,7,Know,2,STEPHANIE,STEPHANIE,true,3562.3450002167374,7,24,3,2,7,23,15,0,2,0,2322.470000013709,undefined,undefined,undefined,
vvv479cd73,undefined,undefined,undefined,undefined,8,Familiar,20,NA,NA,NA,NA,8,6,29,1,8,10,31,0,1,0,1359.3499998096377,undefined,undefined,undefined,
vvv479cd73,undefined,undefined,undefined,undefined,9,Know,10,PATRICIA,PATRICIA,true,3353.0850000679493,9,19,12,2,9,4,17,1,2,1,1743.6049999669194,undefined,undefined,undefined,
vvv479cd73,undefined,undefined,undefined,undefined,10,Know,17,COURTNEY,COURTNEY,true,3058.915000176057,10,17,4,1,10,17,4,0,1,0,1815.5700000934303,undefined,undefined,undefined,
vvv479cd73,undefined,undefined,undefined,undefined,11,Familiar,27,NA,NA,NA,NA,11,21,2,1,11,1,25,0,0,0,1401.0149999521673,undefined,undefined,undefined,
vvv479cd73,undefined,undefined,undefined,undefined,12,Familiar,32,NA,NA,NA,NA,12,3,9,0,12,22,11,0,1,0,1493.9749999903142,undefined,undefined,undefined,
vvv479cd73,undefined,undefined,undefined,undefined,13,Know,22,LAUREN,LAUREN,true,3086.009999969974,13,36,24,2,13,32,9,1,0,1,1950.9199999738485,undefined,undefined,undefined,
vvv479cd73,undefined,undefined,undefined,undefined,14,Know,21,VICTORIA,VICTORIA,true,2930.3000001236796,14,14,30,0,14,5,2,1,1,1,1800.2800000831485,undefined,undefined,undefined,
vvv479cd73,undefined,undefined,undefined,undefined,15,Familiar,29,NA,NA,NA,NA,15,7,18,2,15,13,10,1,2,1,1714.4700000062585,undefined,undefined,undefined,
vvv479cd73,undefined,undefined,undefined,undefined,16,Familiar,28,NA,NA,NA,NA,16,25,23,2,16,31,34,0,2,0,7959.174999967217,undefined,undefined,undefined,
vvv479cd73,undefined,undefined,undefined,undefined,17,Know,35,SOFIA,SOFIA,true,2213.6550000868738,17,29,16,0,17,8,5,0,2,0,3336.9649997912347,undefined,undefined,undefined,
vvv479cd73,undefined,undefined,undefined,undefined,18,Know,5,ASHLEY,ASHLEY,true,2327.610000036657,18,16,32,0,18,33,36,0,2,0,2512.6099998597056,undefined,undefined,undefined,
vvv479cd73,undefined,undefined,undefined,undefined,19,Familiar,9,NA,NA,NA,NA,19,22,11,1,19,21,35,1,1,1,1548.8400000613183,undefined,undefined,undefined,
vvv479cd73,undefined,undefined,undefined,undefined,20,Familiar,3,NA,NA,NA,NA,20,33,36,2,20,30,19,0,1,0,1547.4600000306964,undefined,undefined,undefined,
vvv479cd73,undefined,undefined,undefined,undefined,21,Know,15,ALYSSA,ALYSSA,true,3413.0450000520796,21,34,13,1,21,26,12,1,2,1,1506.13999995403,undefined,undefined,undefined,
vvv479cd73,undefined,undefined,undefined,undefined,22,Know,6,GRACE,GRACE,true,1876.685000024736,22,5,35,1,22,20,6,0,0,0,1883.295000065118,undefined,undefined,undefined,
vvv479cd73,undefined,undefined,undefined,undefined,23,Familiar,18,NA,NA,NA,NA,23,9,28,0,23,16,32,0,0,0,1860.6199999339879,undefined,undefined,undefined,
vvv479cd73,undefined,undefined,undefined,undefined,24,Know,12,SARAH,SARAH,true,1905.5699999444187,24,1,25,0,24,15,29,1,1,0,2002.4550000671297,undefined,undefined,undefined,
vvv479cd73,undefined,undefined,undefined,undefined,25,Know,30,REBECCA,LAUREN,false,6877.81500001438,25,10,31,1,25,3,1,1,0,1,2340.6550001818687,undefined,undefined,undefined,
vvv479cd73,undefined,undefined,undefined,undefined,26,Familiar,28,NA,NA,NA,NA,26,2,8,1,26,6,14,1,1,1,4576.524999924004,undefined,undefined,undefined,
vvv479cd73,undefined,undefined,undefined,undefined,27,Know,10,PATRICIA,PATRICIA,true,35393.35500006564,27,23,15,2,27,18,16,1,0,1,1369.8599999770522,undefined,undefined,undefined,
vvv479cd73,undefined,undefined,undefined,undefined,28,Familiar,29,NA,NA,NA,NA,28,28,27,0,28,14,30,0,0,0,2624.695000005886,undefined,undefined,undefined,
vvv479cd73,undefined,undefined,undefined,undefined,29,Know,22,LAUREN,LAUREN,true,4700.664999894798,29,8,5,2,29,29,21,1,0,1,1360.5600001756102,undefined,undefined,undefined,
vvv479cd73,undefined,undefined,undefined,undefined,30,Familiar,20,NA,NA,NA,NA,30,32,1,0,30,28,28,1,0,0,1755.8800000697374,undefined,undefined,undefined,
vvv479cd73,undefined,undefined,undefined,undefined,31,Know,15,ALYSSA,SOFIA,false,26011.255000019446,31,26,33,2,31,34,13,0,1,0,1218.9749998506159,undefined,undefined,undefined,
vvv479cd73,undefined,undefined,undefined,undefined,32,Familiar,32,NA,NA,NA,NA,32,13,17,2,32,35,7,1,1,1,1246.6700000222772,undefined,undefined,undefined,
vvv479cd73,undefined,undefined,undefined,undefined,33,Know,35,SOFIA,REBECCA,false,7617.920000106096,33,11,22,0,33,9,27,1,0,1,1395.825000014156,undefined,undefined,undefined,
vvv479cd73,undefined,undefined,undefined,undefined,34,Familiar,18,NA,NA,NA,NA,34,18,21,0,34,19,33,1,2,0,6203.465000027791,undefined,undefined,undefined,
vvv479cd73,undefined,undefined,undefined,undefined,35,Know,2,STEPHANIE,AMANDA,false,86304.77000004612,35,35,20,1,35,11,22,0,0,0,1821.595000103116,undefined,undefined,undefined,
vvv479cd73,undefined,undefined,undefined,undefined,36,Familiar,9,NA,NA,NA,NA,36,12,7,1,36,12,20,1,1,1,1453.7700000219047,undefined,undefined,undefined,
vvv479cd73,undefined,undefined,undefined,undefined,37,Know,21,VICTORIA,AMANDA,false,5123.479999834672,37,31,34,2,undefined,undefined,undefined,undefined,undefined,undefined,undefined,undefined,undefined,undefined,
vvv479cd73,undefined,undefined,undefined,undefined,38,Familiar,11,NA,NA,NA,NA,38,3,9,0,undefined,undefined,undefined,undefined,undefined,undefined,undefined,undefined,undefined,undefined,
vvv479cd73,undefined,undefined,undefined,undefined,39,Familiar,14,NA,NA,NA,NA,39,26,33,2,undefined,undefined,undefined,undefined,undefined,undefined,undefined,undefined,undefined,undefined,
vvv479cd73,undefined,undefined,undefined,undefined,40,Know,5,ASHLEY,SARAH,false,7043.955000117421,40,15,14,1,undefined,undefined,undefined,undefined,undefined,undefined,undefined,undefined,undefined,undefined,
vvv479cd73,undefined,undefined,undefined,undefined,41,Familiar,16,NA,NA,NA,NA,41,2,8,1,undefined,undefined,undefined,undefined,undefined,undefined,undefined,undefined,undefined,undefined,
vvv479cd73,undefined,undefined,undefined,undefined,42,Know,17,COURTNEY,AMANDA,false,4970.609999960288,42,11,22,0,undefined,undefined,undefined,undefined,undefined,undefined,undefined,undefined,undefined,undefined,
vvv479cd73,undefined,undefined,undefined,undefined,43,Know,34,AMANDA,COURTNEY,false,24788.87499985285,43,29,16,0,undefined,undefined,undefined,undefined,undefined,undefined,undefined,undefined,undefined,undefined,
vvv479cd73,undefined,undefined,undefined,undefined,44,Familiar,3,NA,NA,NA,NA,44,6,29,1,undefined,undefined,undefined,undefined,undefined,undefined,undefined,undefined,undefined,undefined,
vvv479cd73,undefined,undefined,undefined,undefined,45,Familiar,27,NA,NA,NA,NA,45,17,4,1,undefined,undefined,undefined,undefined,undefined,undefined,undefined,undefined,undefined,undefined,
vvv479cd73,undefined,undefined,undefined,undefined,46,Know,6,GRACE,SARAH,false,3738.8750000391155,46,13,17,2,undefined,undefined,undefined,undefined,undefined,undefined,undefined,undefined,undefined,undefined,
vvv479cd73,undefined,undefined,undefined,undefined,47,Know,12,SARAH,SARAH,true,2755.009999964386,47,25,23,2,undefined,undefined,undefined,undefined,undefined,undefined,undefined,undefined,undefined,undefined,
vvv479cd73,undefined,undefined,undefined,undefined,48,Familiar,1,NA,NA,NA,NA,48,35,20,1,undefined,undefined,undefined,undefined,undefined,undefined,undefined,undefined,undefined,undefined,
vvv479cd73,undefined,undefined,undefined,undefined,49,Know,34,AMANDA,AMANDA,true,3173.5100001096725,49,28,27,0,undefined,undefined,undefined,undefined,undefined,undefined,undefined,undefined,undefined,undefined,
vvv479cd73,undefined,undefined,undefined,undefined,50,Familiar,18,NA,NA,NA,NA,50,18,21,0,undefined,undefined,undefined,undefined,undefined,undefined,undefined,undefined,undefined,undefined,
vvv479cd73,undefined,undefined,undefined,undefined,51,Know,35,SOFIA,VICTORIA,false,7326.30499987863,51,23,15,2,undefined,undefined,undefined,undefined,undefined,undefined,undefined,undefined,undefined,undefined,
vvv479cd73,undefined,undefined,undefined,undefined,52,Familiar,1,NA,NA,NA,NA,52,12,7,1,undefined,undefined,undefined,undefined,undefined,undefined,undefined,undefined,undefined,undefined,
vvv479cd73,undefined,undefined,undefined,undefined,53,Know,22,LAUREN,COURTNEY,false,14996.645000064746,53,5,35,1,undefined,undefined,undefined,undefined,undefined,undefined,undefined,undefined,undefined,undefined,
vvv479cd73,undefined,undefined,undefined,undefined,54,Familiar,3,NA,NA,NA,NA,54,16,32,0,undefined,undefined,undefined,undefined,undefined,undefined,undefined,undefined,undefined,undefined,
vvv479cd73,undefined,undefined,undefined,undefined,55,Know,12,SARAH,SARAH,true,4412.449999945238,55,4,10,2,undefined,undefined,undefined,undefined,undefined,undefined,undefined,undefined,undefined,undefined,
vvv479cd73,undefined,undefined,undefined,undefined,56,Familiar,16,NA,NA,NA,NA,56,1,25,0,undefined,undefined,undefined,undefined,undefined,undefined,undefined,undefined,undefined,undefined,
vvv479cd73,undefined,undefined,undefined,undefined,57,Familiar,32,NA,NA,NA,NA,57,21,2,1,undefined,undefined,undefined,undefined,undefined,undefined,undefined,undefined,undefined,undefined,
vvv479cd73,undefined,undefined,undefined,undefined,58,Know,30,REBECCA,GRACE,false,8008.015000028536,58,20,6,0,undefined,undefined,undefined,undefined,undefined,undefined,undefined,undefined,undefined,undefined,
vvv479cd73,undefined,undefined,undefined,undefined,59,Know,5,ASHLEY,AMANDA,false,5384.76000004448,59,19,12,2,undefined,undefined,undefined,undefined,undefined,undefined,undefined,undefined,undefined,undefined,
vvv479cd73,undefined,undefined,undefined,undefined,60,Familiar,11,NA,NA,NA,NA,60,27,26,0,undefined,undefined,undefined,undefined,undefined,undefined,undefined,undefined,undefined,undefined,
vvv479cd73,undefined,undefined,undefined,undefined,61,Familiar,27,NA,NA,NA,NA,61,22,11,1,undefined,undefined,undefined,undefined,undefined,undefined,undefined,undefined,undefined,undefined,
vvv479cd73,undefined,undefined,undefined,undefined,62,Know,2,STEPHANIE,PATRICIA,false,40903.11000007205,62,7,18,2,undefined,undefined,undefined,undefined,undefined,undefined,undefined,undefined,undefined,undefined,
vvv479cd73,undefined,undefined,undefined,undefined,63,Know,15,ALYSSA,ASHLEY,false,56285.95000016503,63,24,3,2,undefined,undefined,undefined,undefined,undefined,undefined,undefined,undefined,undefined,undefined,
vvv479cd73,undefined,undefined,undefined,undefined,64,Familiar,29,NA,NA,NA,NA,64,14,30,0,undefined,undefined,undefined,undefined,undefined,undefined,undefined,undefined,undefined,undefined,
vvv479cd73,undefined,undefined,undefined,undefined,65,Familiar,28,NA,NA,NA,NA,65,32,1,0,undefined,undefined,undefined,undefined,undefined,undefined,undefined,undefined,undefined,undefined,
vvv479cd73,undefined,undefined,undefined,undefined,66,Know,10,PATRICIA,GRACE,false,10475.514999823645,66,33,36,2,undefined,undefined,undefined,undefined,undefined,undefined,undefined,undefined,undefined,undefined,
vvv479cd73,undefined,undefined,undefined,undefined,67,Know,6,GRACE,ASHLEY,false,4747.070000041276,67,36,24,2,undefined,undefined,undefined,undefined,undefined,undefined,undefined,undefined,undefined,undefined,
vvv479cd73,undefined,undefined,undefined,undefined,68,Familiar,14,NA,NA,NA,NA,68,10,31,1,undefined,undefined,undefined,undefined,undefined,undefined,undefined,undefined,undefined,undefined,
vvv479cd73,undefined,undefined,undefined,undefined,69,Familiar,9,NA,NA,NA,NA,69,34,13,1,undefined,undefined,undefined,undefined,undefined,undefined,undefined,undefined,undefined,undefined,
vvv479cd73,undefined,undefined,undefined,undefined,70,Know,21,VICTORIA,VICTORIA,true,4848.699999973178,70,8,5,2,undefined,undefined,undefined,undefined,undefined,undefined,undefined,undefined,undefined,undefined,
vvv479cd73,undefined,undefined,undefined,undefined,71,Familiar,20,NA,NA,NA,NA,71,9,28,0,undefined,undefined,undefined,undefined,undefined,undefined,undefined,undefined,undefined,undefined,
vvv479cd73,undefined,undefined,undefined,undefined,72,Know,17,COURTNEY,AMANDA,false,6188.66500002332,72,30,19,1,undefined,undefined,undefined,undefined,undefined,undefined,undefined,undefined,undefined,undefined,
vvv479cd73,undefined,undefined,undefined,undefined,73,Know,15,ALYSSA,ALYSSA,true,3163.165000034496,undefined,undefined,undefined,undefined,undefined,undefined,undefined,undefined,undefined,undefined,undefined,undefined,undefined,undefined,
vvv479cd73,undefined,undefined,undefined,undefined,74,Familiar,18,NA,NA,NA,NA,undefined,undefined,undefined,undefined,undefined,undefined,undefined,undefined,undefined,undefined,undefined,undefined,undefined,undefined,
vvv479cd73,undefined,undefined,undefined,undefined,75,Familiar,11,NA,NA,NA,NA,undefined,undefined,undefined,undefined,undefined,undefined,undefined,undefined,undefined,undefined,undefined,undefined,undefined,undefined,
vvv479cd73,undefined,undefined,undefined,undefined,76,Know,35,SOFIA,SOFIA,true,9988.20500005968,undefined,undefined,undefined,undefined,undefined,undefined,undefined,undefined,undefined,undefined,undefined,undefined,undefined,undefined,
vvv479cd73,undefined,undefined,undefined,undefined,77,Familiar,29,NA,NA,NA,NA,undefined,undefined,undefined,undefined,undefined,undefined,undefined,undefined,undefined,undefined,undefined,undefined,undefined,undefined,
vvv479cd73,undefined,undefined,undefined,undefined,78,Familiar,32,NA,NA,NA,NA,undefined,undefined,undefined,undefined,undefined,undefined,undefined,undefined,undefined,undefined,undefined,undefined,undefined,undefined,
vvv479cd73,undefined,undefined,undefined,undefined,79,Know,6,GRACE,GRACE,true,2771.4200001209974,undefined,undefined,undefined,undefined,undefined,undefined,undefined,undefined,undefined,undefined,undefined,undefined,undefined,undefined,
vvv479cd73,undefined,undefined,undefined,undefined,80,Know,5,ASHLEY,ASHLEY,true,5402.135000098497,undefined,undefined,undefined,undefined,undefined,undefined,undefined,undefined,undefined,undefined,undefined,undefined,undefined,undefined,
vvv479cd73,undefined,undefined,undefined,undefined,81,Familiar,28,NA,NA,NA,NA,undefined,undefined,undefined,undefined,undefined,undefined,undefined,undefined,undefined,undefined,undefined,undefined,undefined,undefined,
vvv479cd73,undefined,undefined,undefined,undefined,82,Know,22,LAUREN,LAUREN,true,4124.0350001025945,undefined,undefined,undefined,undefined,undefined,undefined,undefined,undefined,undefined,undefined,undefined,undefined,undefined,undefined,
vvv479cd73,undefined,undefined,undefined,undefined,83,Know,12,SARAH,SARAH,true,2449.6750000398606,undefined,undefined,undefined,undefined,undefined,undefined,undefined,undefined,undefined,undefined,undefined,undefined,undefined,undefined,
vvv479cd73,undefined,undefined,undefined,undefined,84,Familiar,9,NA,NA,NA,NA,undefined,undefined,undefined,undefined,undefined,undefined,undefined,undefined,undefined,undefined,undefined,undefined,undefined,undefined,
vvv479cd73,undefined,undefined,undefined,undefined,85,Know,10,PATRICIA,PATRICIA,true,5343.864999944344,undefined,undefined,undefined,undefined,undefined,undefined,undefined,undefined,undefined,undefined,undefined,undefined,undefined,undefined,
vvv479cd73,undefined,undefined,undefined,undefined,86,Know,17,COURTNEY,AMANDA,false,4687.77499999851,undefined,undefined,undefined,undefined,undefined,undefined,undefined,undefined,undefined,undefined,undefined,undefined,undefined,undefined,
vvv479cd73,undefined,undefined,undefined,undefined,87,Familiar,16,NA,NA,NA,NA,undefined,undefined,undefined,undefined,undefined,undefined,undefined,undefined,undefined,undefined,undefined,undefined,undefined,undefined,
vvv479cd73,undefined,undefined,undefined,undefined,88,Familiar,3,NA,NA,NA,NA,undefined,undefined,undefined,undefined,undefined,undefined,undefined,undefined,undefined,undefined,undefined,undefined,undefined,undefined,
vvv479cd73,undefined,undefined,undefined,undefined,89,Know,21,VICTORIA,VICTORIA,true,3956.8899997975677,undefined,undefined,undefined,undefined,undefined,undefined,undefined,undefined,undefined,undefined,undefined,undefined,undefined,undefined,
vvv479cd73,undefined,undefined,undefined,undefined,90,Familiar,1,NA,NA,NA,NA,undefined,undefined,undefined,undefined,undefined,undefined,undefined,undefined,undefined,undefined,undefined,undefined,undefined,undefined,
vvv479cd73,undefined,undefined,undefined,undefined,91,Familiar,20,NA,NA,NA,NA,undefined,undefined,undefined,undefined,undefined,undefined,undefined,undefined,undefined,undefined,undefined,undefined,undefined,undefined,
vvv479cd73,undefined,undefined,undefined,undefined,92,Know,30,REBECCA,LAUREN,false,6427.3449999745935,undefined,undefined,undefined,undefined,undefined,undefined,undefined,undefined,undefined,undefined,undefined,undefined,undefined,undefined,
vvv479cd73,undefined,undefined,undefined,undefined,93,Familiar,27,NA,NA,NA,NA,undefined,undefined,undefined,undefined,undefined,undefined,undefined,undefined,undefined,undefined,undefined,undefined,undefined,undefined,
vvv479cd73,undefined,undefined,undefined,undefined,94,Familiar,14,NA,NA,NA,NA,undefined,undefined,undefined,undefined,undefined,undefined,undefined,undefined,undefined,undefined,undefined,undefined,undefined,undefined,
vvv479cd73,undefined,undefined,undefined,undefined,95,Know,2,STEPHANIE,STEPHANIE,true,4093.529999954626,undefined,undefined,undefined,undefined,undefined,undefined,undefined,undefined,undefined,undefined,undefined,undefined,undefined,undefined,
vvv479cd73,undefined,undefined,undefined,undefined,96,Know,34,AMANDA,AMANDA,true,5440.8449998591095,undefined,undefined,undefined,undefined,undefined,undefined,undefined,undefined,undefined,undefined,undefined,undefined,undefined,undefined,
