subID,trialType,trialNum,cntBalance,correct,rt,rwdType,tgtCol,tgtDir,tgtPos,colPos,colMatch,
tex,VDACtrain,0,g,true,739.1000001430511,2,g,h,3,,,
tex,VDACtrain,0,g,true,802.8999998569489,2,g,v,0,,,
tex,VDACtrain,0,g,null,null,1,r,v,4,,,
tex,VDACtrain,0,g,true,705.7000000476837,2,g,h,5,,,
tex,VDACtrain,0,g,false,489.69999980926514,1,r,h,0,,,
tex,VDACtrain,0,g,false,959.7000000476837,1,r,h,2,,,
tex,VDACtrain,0,g,true,753.7999999523163,2,g,v,2,,,
tex,VDACtrain,0,g,true,770.8999998569489,2,g,v,5,,,
tex,VDACtrain,0,g,true,672.5999999046326,1,r,v,3,,,
tex,VDACtrain,0,g,true,673.3999998569489,1,r,h,1,,,
tex,VDACtest,1,g,true,937.2999999523163,1,r,h,0,,,
tex,VDACtest,2,g,true,577.4000000953674,2,g,v,4,,,
tex,VDACtest,3,g,null,null,2,g,h,2,,,
tex,VDACtest,4,g,true,655.7000000476837,2,g,v,2,,,
tex,VDACtest,5,g,true,761.5999999046326,1,r,h,5,,,
tex,VDACtest,6,g,true,810.0999999046326,1,r,h,2,,,
tex,VDACtest,7,g,true,776.5,1,r,h,5,,,
tex,VDACtest,8,g,true,481.7999999523163,1,r,v,2,,,
tex,VDACtest,9,g,true,545.0999999046326,1,r,h,3,,,
tex,VDACtest,10,g,true,488.2999999523163,2,g,v,1,,,
tex,VDACtest,11,g,true,448.39999985694885,2,g,h,3,,,
tex,VDACtest,12,g,true,561.0999999046326,1,r,v,3,,,
tex,VDACtest,13,g,true,515,2,g,v,3,,,
tex,VDACtest,14,g,true,451.7999999523163,2,g,v,5,,,
tex,VDACtest,15,g,true,762.7999999523163,2,g,v,0,,,
tex,VDACtest,16,g,true,522.9000000953674,2,g,h,2,,,
tex,VDACtest,17,g,null,null,1,r,v,2,,,
tex,VDACtest,18,g,true,605,2,g,v,3,,,
tex,VDACtest,19,g,true,649.5,2,g,h,4,,,
tex,VDACtest,20,g,true,778.6999998092651,2,g,v,4,,,
tex,VDACtest,21,g,true,522.0999999046326,1,r,h,3,,,
tex,VDACtest,22,g,true,930,1,r,h,1,,,
tex,VDACtest,23,g,true,787.8999998569489,2,g,v,2,,,
tex,VDACtest,24,g,true,520.7999999523163,2,g,v,2,,,
tex,VDACtest,25,g,true,618,2,g,h,2,,,
tex,VDACtest,26,g,true,787.2000000476837,1,r,v,0,,,
tex,VDACtest,27,g,true,659.6000001430511,1,r,v,2,,,
tex,VDACtest,28,g,true,651,2,g,h,4,,,
tex,VDACtest,29,g,true,723.3000001907349,2,g,v,3,,,
tex,VDACtest,30,g,true,530.9000000953674,2,g,v,5,,,
tex,VDACtest,31,g,true,954,1,r,h,3,,,
tex,VDACtest,32,g,true,739.7000000476837,2,g,h,3,,,
tex,VDACtest,33,g,false,571.6999998092651,1,r,h,4,,,
tex,VDACtest,34,g,true,650.8000001907349,1,r,v,5,,,
tex,VDACtest,35,g,true,724.4000000953674,1,r,v,2,,,
tex,VDACtest,36,g,true,801.4000000953674,2,g,h,0,,,
tex,VDACtest,37,g,true,668,2,g,h,5,,,
tex,VDACtest,38,g,true,947.0999999046326,1,r,h,1,,,
tex,VDACtest,39,g,true,618.7000000476837,2,g,v,3,,,
tex,VDACtest,40,g,true,689,1,r,h,1,,,
tex,VDACtest,41,g,true,640.9000000953674,2,g,v,3,,,
tex,VDACtest,42,g,null,null,1,r,v,0,,,
tex,VDACtest,43,g,true,701.3999998569489,1,r,h,5,,,
tex,VDACtest,44,g,false,827.6000001430511,2,g,h,0,,,
tex,VDACtest,45,g,true,801.5,1,r,v,3,,,
tex,VDACtest,46,g,true,618.7000000476837,2,g,h,3,,,
tex,VDACtest,47,g,true,547.5999999046326,2,g,v,4,,,
tex,VDACtest,48,g,true,801.1000001430511,1,r,v,5,,,
tex,VDACtest,49,g,true,456.60000014305115,1,r,h,4,,,
tex,VDACtest,50,g,true,435.89999985694885,1,r,v,4,,,
brk,brk,brk,brk,brk,brk,brk,brk,brk,brk,brk,brk,
tex,VDACtest,51,g,true,804.8000001907349,1,r,v,3,,,
tex,VDACtest,52,g,true,584.2999999523163,2,g,h,0,,,
tex,VDACtest,53,g,true,530.6000001430511,2,g,v,5,,,
tex,VDACtest,54,g,true,425.7999999523163,1,r,h,3,,,
tex,VDACtest,55,g,true,871.8999998569489,1,r,h,1,,,
tex,VDACtest,56,g,true,842.2000000476837,1,r,h,4,,,
tex,VDACtest,57,g,true,586.6000001430511,1,r,v,3,,,
tex,VDACtest,58,g,true,713.9000000953674,2,g,h,4,,,
tex,VDACtest,59,g,true,752.8000001907349,1,r,v,2,,,
tex,VDACtest,60,g,true,699.2999999523163,1,r,h,0,,,
tex,VDACtest,61,g,true,664.2000000476837,1,r,v,3,,,
tex,VDACtest,62,g,true,649,2,g,h,4,,,
tex,VDACtest,63,g,true,658.6999998092651,2,g,v,5,,,
tex,VDACtest,64,g,true,530.2000000476837,1,r,v,5,,,
tex,VDACtest,65,g,true,624.2999999523163,1,r,v,1,,,
tex,VDACtest,66,g,true,618.2000000476837,2,g,v,0,,,
tex,VDACtest,67,g,true,728.8999998569489,2,g,h,4,,,
tex,VDACtest,68,g,true,584,1,r,v,0,,,
tex,VDACtest,69,g,true,745.9000000953674,2,g,v,1,,,
tex,VDACtest,70,g,true,553.7000000476837,2,g,h,1,,,
tex,VDACtest,71,g,true,585.2999999523163,1,r,h,4,,,
tex,VDACtest,72,g,true,522.2000000476837,2,g,v,1,,,
tex,VDACtest,73,g,true,513.6999998092651,2,g,h,5,,,
tex,VDACtest,74,g,null,null,1,r,h,3,,,
tex,VDACtest,75,g,true,500.60000014305115,1,r,v,1,,,
tex,VDACtest,76,g,true,599.2000000476837,2,g,v,1,,,
tex,VDACtest,77,g,true,514.0999999046326,2,g,h,5,,,
tex,VDACtest,78,g,true,601.1000001430511,1,r,v,4,,,
tex,VDACtest,79,g,true,657.2000000476837,1,r,v,4,,,
tex,VDACtest,80,g,true,577.2999999523163,2,g,h,3,,,
tex,VDACtest,81,g,true,858.4000000953674,2,g,h,2,,,
tex,VDACtest,82,g,true,695.4000000953674,2,g,v,3,,,
tex,VDACtest,83,g,null,null,1,r,h,2,,,
tex,VDACtest,84,g,true,825.6000001430511,1,r,h,0,,,
tex,VDACtest,85,g,true,545.4000000953674,1,r,v,5,,,
tex,VDACtest,86,g,true,521.8000001907349,1,r,v,0,,,
tex,VDACtest,87,g,false,722.2999999523163,2,g,v,0,,,
tex,VDACtest,88,g,true,529.2999999523163,2,g,h,0,,,
tex,VDACtest,89,g,true,705.8000001907349,1,r,h,1,,,
tex,VDACtest,90,g,true,392.89999985694885,1,r,v,0,,,
tex,VDACtest,91,g,true,599.2999999523163,1,r,v,4,,,
tex,VDACtest,92,g,true,970.8999998569489,1,r,h,5,,,
tex,VDACtest,93,g,true,843.6000001430511,2,g,h,3,,,
tex,VDACtest,94,g,true,417.89999985694885,2,g,v,5,,,
tex,VDACtest,95,g,true,546.7999999523163,1,r,h,3,,,
tex,VDACtest,96,g,true,818.1000001430511,2,g,h,1,,,
tex,VDACtest,97,g,true,666,1,r,h,5,,,
tex,VDACtest,98,g,true,819.4000000953674,2,g,v,1,,,
tex,VDACtest,99,g,true,778.8000001907349,1,r,v,2,,,
tex,VDACtest,100,g,true,699.2999999523163,2,g,v,2,,,
brk,brk,brk,brk,brk,brk,brk,brk,brk,brk,brk,brk,
tex,VDACtest,101,g,true,698.5,2,g,h,1,,,
tex,VDACtest,102,g,true,799.9000000953674,2,g,h,1,,,
tex,VDACtest,103,g,true,747,2,g,h,5,,,
tex,VDACtest,104,g,true,697.7000000476837,1,r,h,2,,,
tex,VDACtest,105,g,true,538.7000000476837,2,g,v,4,,,
tex,VDACtest,106,g,true,569,1,r,v,1,,,
tex,VDACtest,107,g,true,498.90000009536743,1,r,v,4,,,
tex,VDACtest,108,g,true,562.3999998569489,2,g,v,4,,,
tex,VDACtest,109,g,true,449.09999990463257,1,r,v,1,,,
tex,VDACtest,110,g,true,698.5999999046326,1,r,v,2,,,
tex,VDACtest,111,g,false,594.8000001907349,1,r,h,0,,,
tex,VDACtest,112,g,true,721.5999999046326,1,r,v,5,,,
tex,VDACtest,113,g,true,505.7999999523163,2,g,h,1,,,
tex,VDACtest,114,g,true,754.1000001430511,2,g,v,4,,,
tex,VDACtest,115,g,true,633.0999999046326,2,g,v,5,,,
tex,VDACtest,116,g,true,552.5999999046326,1,r,v,3,,,
tex,VDACtest,117,g,null,null,2,g,v,3,,,
tex,VDACtest,118,g,true,994.2000000476837,2,g,v,1,,,
tex,VDACtest,119,g,true,595.2000000476837,1,r,v,5,,,
tex,VDACtest,120,g,true,546.7999999523163,1,r,h,0,,,
tex,VDACtest,121,g,null,null,2,g,h,2,,,
tex,VDACtest,122,g,true,596.1000001430511,1,r,h,1,,,
tex,VDACtest,123,g,true,762.2999999523163,1,r,h,5,,,
tex,VDACtest,124,g,true,680.8000001907349,2,g,v,1,,,
tex,VDACtest,125,g,true,568.7999999523163,1,r,v,1,,,
tex,VDACtest,126,g,true,522.9000000953674,2,g,h,3,,,
tex,VDACtest,127,g,true,633.5999999046326,1,r,v,0,,,
tex,VDACtest,128,g,true,514.5,2,g,h,5,,,
tex,VDACtest,129,g,true,865.7000000476837,1,r,h,2,,,
tex,VDACtest,130,g,true,754,1,r,v,1,,,
tex,VDACtest,131,g,true,642.2999999523163,1,r,h,2,,,
tex,VDACtest,132,g,true,448.7999999523163,2,g,v,0,,,
tex,VDACtest,133,g,true,745.9000000953674,1,r,h,1,,,
tex,VDACtest,134,g,true,641.7999999523163,2,g,v,2,,,
tex,VDACtest,135,g,true,632.4000000953674,2,g,v,1,,,
tex,VDACtest,136,g,true,698.1000001430511,2,g,h,3,,,
tex,VDACtest,137,g,true,713.8999998569489,1,r,v,3,,,
tex,VDACtest,138,g,true,600.7000000476837,1,r,h,1,,,
tex,VDACtest,139,g,true,705.8999998569489,2,g,v,0,,,
tex,VDACtest,140,g,true,585.0999999046326,2,g,v,0,,,
tex,VDACtest,141,g,true,602.1000001430511,2,g,h,3,,,
tex,VDACtest,142,g,true,416.90000009536743,1,r,v,0,,,
tex,VDACtest,143,g,true,841.7999999523163,1,r,v,1,,,
tex,VDACtest,144,g,true,481.10000014305115,1,r,h,4,,,
tex,VDACtest,145,g,true,592.4000000953674,1,r,h,3,,,
tex,VDACtest,146,g,true,585.7999999523163,1,r,h,5,,,
tex,VDACtest,147,g,true,514.7000000476837,2,g,v,2,,,
tex,VDACtest,148,g,true,546.3999998569489,2,g,v,2,,,
tex,VDACtest,149,g,true,777.1000001430511,2,g,v,0,,,
tex,VDACtest,150,g,true,561.5,1,r,h,4,,,
brk,brk,brk,brk,brk,brk,brk,brk,brk,brk,brk,brk,
tex,VDACtest,151,g,true,614.7999999523163,1,r,v,4,,,
tex,VDACtest,152,g,true,489.7999999523163,1,r,h,0,,,
tex,VDACtest,153,g,true,442.2000000476837,1,r,v,5,,,
tex,VDACtest,154,g,true,537.2999999523163,2,g,v,1,,,
tex,VDACtest,155,g,true,504.09999990463257,1,r,h,2,,,
tex,VDACtest,156,g,true,554.4000000953674,1,r,v,2,,,
tex,VDACtest,157,g,true,473.40000009536743,2,g,h,0,,,
tex,VDACtest,158,g,true,440.40000009536743,1,r,v,4,,,
tex,VDACtest,159,g,true,529.2000000476837,2,g,h,5,,,
tex,VDACtest,160,g,true,648.7999999523163,1,r,h,4,,,
tex,VDACtest,161,g,true,487.90000009536743,2,g,v,4,,,
tex,VDACtest,162,g,true,650.5,2,g,h,5,,,
tex,VDACtest,163,g,true,530.1000001430511,2,g,h,2,,,
tex,VDACtest,164,g,true,928.5,1,r,h,3,,,
tex,VDACtest,165,g,true,451,2,g,v,3,,,
tex,VDACtest,166,g,true,643.7999999523163,1,r,h,5,,,
tex,VDACtest,167,g,true,553.5999999046326,1,r,h,0,,,
tex,VDACtest,168,g,true,513.1999998092651,2,g,h,0,,,
tex,VDACtest,169,g,true,546,2,g,h,4,,,
tex,VDACtest,170,g,true,626.2999999523163,2,g,h,4,,,
tex,VDACtest,171,g,true,802.6999998092651,1,r,v,1,,,
tex,VDACtest,172,g,true,617.2999999523163,1,r,h,2,,,
tex,VDACtest,173,g,true,560.7000000476837,1,r,h,2,,,
tex,VDACtest,174,g,true,592.7000000476837,2,g,h,4,,,
tex,VDACtest,175,g,true,810.7000000476837,2,g,h,5,,,
tex,VDACtest,176,g,true,594.5,2,g,v,4,,,
tex,VDACtest,177,g,true,514.5,1,r,v,4,,,
tex,VDACtest,178,g,true,537.4000000953674,2,g,v,4,,,
tex,VDACtest,179,g,true,568.2000000476837,2,g,v,0,,,
tex,VDACtest,180,g,true,537.9000000953674,2,g,h,2,,,
tex,VDACtest,181,g,true,515.5999999046326,2,g,h,0,,,
tex,VDACtest,182,g,true,648.8000001907349,2,g,h,0,,,
tex,VDACtest,183,g,true,449.40000009536743,1,r,v,5,,,
tex,VDACtest,184,g,true,627.4000000953674,1,r,h,4,,,
tex,VDACtest,185,g,true,624.7000000476837,2,g,h,2,,,
tex,VDACtest,186,g,true,529,1,r,v,0,,,
tex,VDACtest,187,g,true,809.5999999046326,2,g,h,1,,,
tex,VDACtest,188,g,true,707.0999999046326,2,g,h,4,,,
tex,VDACtest,189,g,true,554.5999999046326,1,r,h,0,,,
tex,VDACtest,190,g,true,474.40000009536743,2,g,v,5,,,
tex,VDACtest,191,g,true,575.7999999523163,1,r,v,1,,,
tex,VDACtest,192,g,true,498.60000014305115,2,g,v,5,,,
tex,VDACtest,193,g,true,473.10000014305115,1,r,h,1,,,
tex,VDACtest,194,g,true,576.8999998569489,2,g,h,1,,,
tex,VDACtest,195,g,true,952.8999998569489,2,g,v,2,,,
tex,VDACtest,196,g,true,682.2000000476837,1,r,v,3,,,
tex,VDACtest,197,g,true,609.1999998092651,1,r,h,4,,,
tex,VDACtest,198,g,true,873.0999999046326,2,g,h,1,,,
tex,VDACtest,199,g,true,578.3999998569489,1,r,v,4,,,
tex,VDACtest,200,g,true,680.7999999523163,2,g,h,1,,,
tex,RSVPtrain,0,g,null,null,2,g,,3,1,1,
tex,RSVPtrain,0,g,true,1521.0999999046326,2,g,,1,0,1,
tex,RSVPtrain,0,g,true,828.5999999046326,0,b,,1,3,0,
tex,RSVPtrain,0,g,false,660.5,1,r,,0,0,2,
tex,RSVPtrain,0,g,true,1616.7999999523163,2,g,,2,2,2,
tex,RSVPtrain,0,g,false,1004.3999998569489,0,b,,3,3,0,
tex,RSVPtrain,0,g,true,1210,2,g,,3,0,1,
tex,RSVPtrain,0,g,false,1188,1,r,,3,2,1,
tex,RSVPtrain,0,g,true,1135.9000000953674,0,b,,0,3,0,
tex,RSVPtrain,0,g,true,1075.5999999046326,1,r,,1,1,2,
tex,RSVPtest,1,g,true,822,2,g,,0,0,2,
tex,RSVPtest,2,g,true,1243.6000001430511,2,g,,2,0,1,
tex,RSVPtest,3,g,true,698,1,r,,2,0,1,
tex,RSVPtest,4,g,true,716,2,g,,0,0,2,
tex,RSVPtest,5,g,true,667,0,b,,1,3,0,
tex,RSVPtest,6,g,true,795.0999999046326,1,r,,3,2,1,
tex,RSVPtest,7,g,true,715.6999998092651,1,r,,2,1,1,
tex,RSVPtest,8,g,true,733.3999998569489,0,b,,0,3,0,
tex,RSVPtest,9,g,true,941.5999999046326,0,b,,0,3,0,
tex,RSVPtest,10,g,true,932.1000001430511,1,r,,0,0,2,
tex,RSVPtest,11,g,true,694.7000000476837,0,b,,3,3,0,
tex,RSVPtest,12,g,true,1155.7999999523163,1,r,,1,0,1,
tex,RSVPtest,13,g,true,800.7000000476837,1,r,,0,0,2,
tex,RSVPtest,14,g,true,739.1999998092651,1,r,,3,0,1,
tex,RSVPtest,15,g,true,901.6000001430511,1,r,,3,2,1,
tex,RSVPtest,16,g,true,796.2999999523163,0,b,,3,3,0,
tex,RSVPtest,17,g,true,708.7000000476837,1,r,,1,2,1,
tex,RSVPtest,18,g,true,1357.0999999046326,1,r,,2,2,2,
tex,RSVPtest,19,g,true,1402.9000000953674,1,r,,0,0,2,
tex,RSVPtest,20,g,true,754.7000000476837,2,g,,0,1,1,
tex,RSVPtest,21,g,true,1004.4000000953674,1,r,,3,2,1,
tex,RSVPtest,22,g,true,1108.4000000953674,1,r,,3,1,1,
tex,RSVPtest,23,g,true,837.7999999523163,2,g,,1,2,1,
tex,RSVPtest,24,g,true,1124.7999999523163,0,b,,3,3,0,
tex,RSVPtest,25,g,true,1123.0999999046326,2,g,,0,2,1,
tex,RSVPtest,26,g,true,1466.7999999523163,1,r,,2,1,1,
tex,RSVPtest,27,g,true,747.5999999046326,1,r,,3,1,1,
tex,RSVPtest,28,g,true,1116.2000000476837,1,r,,2,2,2,
tex,RSVPtest,29,g,true,1076.0999999046326,1,r,,2,2,2,
tex,RSVPtest,30,g,true,697.9000000953674,2,g,,3,0,1,
tex,RSVPtest,31,g,true,1003.9000000953674,1,r,,1,1,2,
tex,RSVPtest,32,g,true,843.9000000953674,1,r,,3,0,1,
tex,RSVPtest,33,g,true,787.1000001430511,2,g,,3,2,1,
tex,RSVPtest,34,g,true,785.9000000953674,2,g,,2,1,1,
tex,RSVPtest,35,g,true,1021.5,2,g,,2,0,1,
tex,RSVPtest,36,g,true,739.7000000476837,0,b,,3,3,0,
tex,RSVPtest,37,g,false,1027.8999998569489,1,r,,3,1,1,
tex,RSVPtest,38,g,true,1146.5,2,g,,3,0,1,
tex,RSVPtest,39,g,true,980.9000000953674,1,r,,2,1,1,
tex,RSVPtest,40,g,true,923.1000001430511,2,g,,3,2,1,
tex,RSVPtest,41,g,true,947.8999998569489,2,g,,2,2,2,
tex,RSVPtest,42,g,true,1170.9000000953674,2,g,,3,1,1,
tex,RSVPtest,43,g,true,883.6999998092651,2,g,,3,2,1,
tex,RSVPtest,44,g,true,660.2999999523163,0,b,,1,3,0,
tex,RSVPtest,45,g,true,1187.8000001907349,2,g,,2,0,1,
tex,RSVPtest,46,g,true,657.5,2,g,,3,2,1,
tex,RSVPtest,47,g,true,1163.5,2,g,,0,2,1,
tex,RSVPtest,48,g,true,1139.7000000476837,2,g,,0,2,1,
tex,RSVPtest,49,g,true,948.1000001430511,0,b,,3,3,0,
tex,RSVPtest,50,g,true,852.2999999523163,2,g,,1,2,1,
tex,RSVPtest,51,g,true,1739.9000000953674,2,g,,3,1,1,
tex,RSVPtest,52,g,false,761.1999998092651,1,r,,3,0,1,
tex,RSVPtest,53,g,true,963,2,g,,1,1,2,
tex,RSVPtest,54,g,true,1435.5999999046326,2,g,,3,0,1,
tex,RSVPtest,55,g,true,1388.2999999523163,2,g,,3,0,1,
tex,RSVPtest,56,g,true,1211.7000000476837,1,r,,3,0,1,
tex,RSVPtest,57,g,true,747.7000000476837,0,b,,0,3,0,
tex,RSVPtest,58,g,false,1653,1,r,,3,1,1,
tex,RSVPtest,59,g,true,1051.0999999046326,2,g,,0,1,1,
tex,RSVPtest,60,g,false,1731.3999998569489,0,b,,1,3,0,
brk,brk,brk,brk,brk,brk,brk,brk,brk,brk,brk,brk,
tex,RSVPtest,61,g,true,883.7999999523163,2,g,,3,0,1,
tex,RSVPtest,62,g,true,1130.5999999046326,0,b,,0,3,0,
tex,RSVPtest,63,g,true,1506.9000000953674,2,g,,1,1,2,
tex,RSVPtest,64,g,false,851.0999999046326,2,g,,3,2,1,
tex,RSVPtest,65,g,true,1389,0,b,,3,3,0,
tex,RSVPtest,66,g,false,962.5,1,r,,3,0,1,
tex,RSVPtest,67,g,true,979.8999998569489,1,r,,0,1,1,
tex,RSVPtest,68,g,true,954.7999999523163,1,r,,3,1,1,
tex,RSVPtest,69,g,true,843.8999998569489,1,r,,3,2,1,
tex,RSVPtest,70,g,true,1034.7000000476837,2,g,,2,0,1,
tex,RSVPtest,71,g,true,802.9000000953674,0,b,,3,3,0,
tex,RSVPtest,72,g,true,570.7000000476837,2,g,,1,0,1,
tex,RSVPtest,73,g,true,940.4000000953674,0,b,,1,3,0,
tex,RSVPtest,74,g,true,921,2,g,,1,1,2,
tex,RSVPtest,75,g,true,1386.5,0,b,,2,3,0,
tex,RSVPtest,76,g,true,850.1999998092651,2,g,,3,2,1,
tex,RSVPtest,77,g,true,1521.5999999046326,2,g,,3,2,1,
tex,RSVPtest,78,g,true,747.1000001430511,2,g,,3,2,1,
tex,RSVPtest,79,g,true,874.5,1,r,,3,2,1,
tex,RSVPtest,80,g,true,1010.4000000953674,2,g,,0,1,1,
tex,RSVPtest,81,g,true,722.0999999046326,0,b,,1,3,0,
tex,RSVPtest,82,g,true,1000.7999999523163,1,r,,1,2,1,
tex,RSVPtest,83,g,true,1058.7999999523163,2,g,,2,1,1,
tex,RSVPtest,84,g,true,778.5,0,b,,0,3,0,
tex,RSVPtest,85,g,true,619.7999999523163,1,r,,3,1,1,
tex,RSVPtest,86,g,true,851.0999999046326,0,b,,0,3,0,
tex,RSVPtest,87,g,true,1106,1,r,,2,1,1,
tex,RSVPtest,88,g,true,769.2000000476837,2,g,,2,2,2,
tex,RSVPtest,89,g,true,906.5999999046326,2,g,,3,1,1,
tex,RSVPtest,90,g,true,1034.2000000476837,1,r,,3,2,1,
tex,RSVPtest,91,g,true,946.2999999523163,2,g,,1,0,1,
tex,RSVPtest,92,g,true,762.2000000476837,0,b,,0,3,0,
tex,RSVPtest,93,g,true,808.4000000953674,1,r,,3,2,1,
tex,RSVPtest,94,g,true,1353,1,r,,1,1,2,
tex,RSVPtest,95,g,true,688.6000001430511,1,r,,1,1,2,
tex,RSVPtest,96,g,true,858.8999998569489,1,r,,0,1,1,
tex,RSVPtest,97,g,true,851.5,1,r,,3,0,1,
tex,RSVPtest,98,g,true,1416.9000000953674,1,r,,2,1,1,
tex,RSVPtest,99,g,true,651,0,b,,3,3,0,
tex,RSVPtest,100,g,true,636.2999999523163,2,g,,3,2,1,
tex,RSVPtest,101,g,true,738.7000000476837,2,g,,1,1,2,
tex,RSVPtest,102,g,true,1148,1,r,,0,2,1,
tex,RSVPtest,103,g,true,700.0999999046326,1,r,,1,2,1,
tex,RSVPtest,104,g,true,859,1,r,,0,0,2,
tex,RSVPtest,105,g,true,988.7000000476837,2,g,,2,1,1,
tex,RSVPtest,106,g,true,946.4000000953674,1,r,,2,0,1,
tex,RSVPtest,107,g,true,700.2999999523163,1,r,,3,1,1,
tex,RSVPtest,108,g,true,752.7000000476837,2,g,,3,1,1,
tex,RSVPtest,109,g,true,658.5999999046326,1,r,,0,0,2,
tex,RSVPtest,110,g,true,754.2000000476837,1,r,,0,1,1,
tex,RSVPtest,111,g,true,842.4000000953674,2,g,,1,1,2,
tex,RSVPtest,112,g,true,650.7999999523163,2,g,,0,0,2,
tex,RSVPtest,113,g,true,649,2,g,,3,0,1,
tex,RSVPtest,114,g,true,803.7999999523163,1,r,,3,1,1,
tex,RSVPtest,115,g,true,859.1000001430511,0,b,,2,3,0,
tex,RSVPtest,116,g,true,833.7999999523163,1,r,,0,1,1,
tex,RSVPtest,117,g,true,545.2999999523163,2,g,,3,0,1,
tex,RSVPtest,118,g,true,746.2000000476837,1,r,,1,0,1,
tex,RSVPtest,119,g,true,1217.2999999523163,2,g,,2,2,2,
tex,RSVPtest,120,g,true,770.5,0,b,,3,3,0,
brk,brk,brk,brk,brk,brk,brk,brk,brk,brk,brk,brk,
tex,RSVPtest,121,g,true,554.5999999046326,2,g,,3,1,1,
tex,RSVPtest,122,g,false,1081.2999999523163,1,r,,2,2,2,
tex,RSVPtest,123,g,true,1009.5999999046326,0,b,,2,3,0,
tex,RSVPtest,124,g,true,786.2999999523163,0,b,,3,3,0,
tex,RSVPtest,125,g,true,793.4000000953674,2,g,,0,2,1,
tex,RSVPtest,126,g,true,542.7999999523163,1,r,,3,0,1,
tex,RSVPtest,127,g,true,817.3000001907349,0,b,,0,3,0,
tex,RSVPtest,128,g,true,849.8999998569489,0,b,,0,3,0,
tex,RSVPtest,129,g,true,793.5,2,g,,0,1,1,
tex,RSVPtest,130,g,true,569.8999998569489,1,r,,1,0,1,
tex,RSVPtest,131,g,true,591.7000000476837,0,b,,3,3,0,
tex,RSVPtest,132,g,true,648.0999999046326,2,g,,0,2,1,
tex,RSVPtest,133,g,true,660.7999999523163,1,r,,3,0,1,
tex,RSVPtest,134,g,true,704.2000000476837,1,r,,1,2,1,
tex,RSVPtest,135,g,true,935.5,1,r,,0,0,2,
tex,RSVPtest,136,g,true,720.7999999523163,0,b,,0,3,0,
tex,RSVPtest,137,g,true,714.2999999523163,2,g,,1,0,1,
tex,RSVPtest,138,g,true,642.7000000476837,1,r,,3,1,1,
tex,RSVPtest,139,g,true,527.0999999046326,1,r,,0,2,1,
tex,RSVPtest,140,g,true,713.2000000476837,0,b,,0,3,0,
tex,RSVPtest,141,g,true,521.0999999046326,0,b,,3,3,0,
tex,RSVPtest,142,g,true,577.7000000476837,1,r,,1,0,1,
tex,RSVPtest,143,g,true,649.9000000953674,2,g,,3,1,1,
tex,RSVPtest,144,g,true,728.4000000953674,2,g,,3,1,1,
tex,RSVPtest,145,g,true,1186.0999999046326,2,g,,2,2,2,
tex,RSVPtest,146,g,false,1361.5,1,r,,0,2,1,
tex,RSVPtest,147,g,true,626.2000000476837,1,r,,2,1,1,
tex,RSVPtest,148,g,true,626.3999998569489,2,g,,3,0,1,
tex,RSVPtest,149,g,true,618.0999999046326,0,b,,2,3,0,
tex,RSVPtest,150,g,true,658.3999998569489,2,g,,3,2,1,
tex,RSVPtest,151,g,true,657.5999999046326,0,b,,1,3,0,
tex,RSVPtest,152,g,true,681.7000000476837,0,b,,2,3,0,
tex,RSVPtest,153,g,true,395.7999999523163,0,b,,2,3,0,
tex,RSVPtest,154,g,true,874.2999999523163,2,g,,1,2,1,
tex,RSVPtest,155,g,false,1307.4000000953674,2,g,,1,0,1,
tex,RSVPtest,156,g,true,614.2000000476837,1,r,,1,2,1,
tex,RSVPtest,157,g,true,1361.5999999046326,2,g,,0,0,2,
tex,RSVPtest,158,g,true,463.7000000476837,2,g,,1,1,2,
tex,RSVPtest,159,g,true,943.1999998092651,0,b,,2,3,0,
tex,RSVPtest,160,g,true,434.5,0,b,,1,3,0,
tex,RSVPtest,161,g,true,673,0,b,,2,3,0,
tex,RSVPtest,162,g,true,889.2999999523163,2,g,,0,0,2,
tex,RSVPtest,163,g,true,783,1,r,,0,2,1,
tex,RSVPtest,164,g,true,775.6000001430511,2,g,,1,2,1,
tex,RSVPtest,165,g,true,960.5,1,r,,0,1,1,
tex,RSVPtest,166,g,true,815.7999999523163,1,r,,3,0,1,
tex,RSVPtest,167,g,true,710.5,1,r,,3,2,1,
tex,RSVPtest,168,g,true,1065.2999999523163,2,g,,3,1,1,
tex,RSVPtest,169,g,true,745.5999999046326,1,r,,0,2,1,
tex,RSVPtest,170,g,true,1024.4000000953674,1,r,,3,0,1,
tex,RSVPtest,171,g,true,610.5,2,g,,1,0,1,
tex,RSVPtest,172,g,true,879.5,1,r,,1,1,2,
tex,RSVPtest,173,g,true,655.6999998092651,2,g,,2,0,1,
tex,RSVPtest,174,g,true,682.0999999046326,2,g,,0,1,1,
tex,RSVPtest,175,g,true,712.7999999523163,1,r,,3,0,1,
tex,RSVPtest,176,g,true,679.2000000476837,2,g,,2,0,1,
tex,RSVPtest,177,g,true,520.7000000476837,1,r,,3,0,1,
tex,RSVPtest,178,g,false,728.5999999046326,1,r,,2,0,1,
tex,RSVPtest,179,g,true,690.5,1,r,,2,0,1,
tex,RSVPtest,180,g,true,606.5,1,r,,2,2,2,
brk,brk,brk,brk,brk,brk,brk,brk,brk,brk,brk,brk,
tex,RSVPtest,181,g,true,775.9000000953674,2,g,,3,0,1,
tex,RSVPtest,182,g,false,799,1,r,,1,2,1,
tex,RSVPtest,183,g,false,978.2999999523163,0,b,,3,3,0,
tex,RSVPtest,184,g,true,1221.1000001430511,0,b,,2,3,0,
tex,RSVPtest,185,g,true,894.1000001430511,0,b,,1,3,0,
tex,RSVPtest,186,g,true,791.3000001907349,0,b,,3,3,0,
tex,RSVPtest,187,g,true,722,1,r,,3,1,1,
tex,RSVPtest,188,g,true,840.2000000476837,2,g,,2,2,2,
tex,RSVPtest,189,g,true,695.7999999523163,2,g,,1,0,1,
tex,RSVPtest,190,g,true,769.5999999046326,2,g,,2,1,1,
tex,RSVPtest,191,g,true,1256.0999999046326,2,g,,1,2,1,
tex,RSVPtest,192,g,true,579.4000000953674,0,b,,3,3,0,
tex,RSVPtest,193,g,true,778.9000000953674,1,r,,3,2,1,
tex,RSVPtest,194,g,true,864.7000000476837,0,b,,1,3,0,
tex,RSVPtest,195,g,true,650.0999999046326,2,g,,3,0,1,
tex,RSVPtest,196,g,true,888.2999999523163,0,b,,1,3,0,
tex,RSVPtest,197,g,true,658.3999998569489,0,b,,3,3,0,
tex,RSVPtest,198,g,true,536.7999999523163,2,g,,3,0,1,
tex,RSVPtest,199,g,true,992,0,b,,1,3,0,
tex,RSVPtest,200,g,true,728.0999999046326,1,r,,1,0,1,
tex,RSVPtest,201,g,true,977.2000000476837,1,r,,2,2,2,
tex,RSVPtest,202,g,true,815.1000001430511,2,g,,3,1,1,
tex,RSVPtest,203,g,true,727.7000000476837,0,b,,3,3,0,
tex,RSVPtest,204,g,true,753.5,0,b,,2,3,0,
tex,RSVPtest,205,g,true,993.1999998092651,2,g,,3,2,1,
tex,RSVPtest,206,g,true,655.2000000476837,1,r,,3,1,1,
tex,RSVPtest,207,g,true,665.1999998092651,1,r,,0,1,1,
tex,RSVPtest,208,g,true,725.8999998569489,2,g,,3,2,1,
tex,RSVPtest,209,g,true,634.9000000953674,0,b,,1,3,0,
tex,RSVPtest,210,g,true,890.2000000476837,0,b,,3,3,0,
tex,RSVPtest,211,g,true,808.2000000476837,0,b,,3,3,0,
tex,RSVPtest,212,g,true,726.7999999523163,1,r,,2,0,1,
tex,RSVPtest,213,g,true,639,0,b,,3,3,0,
tex,RSVPtest,214,g,true,672.5,0,b,,3,3,0,
tex,RSVPtest,215,g,true,713.2000000476837,1,r,,3,2,1,
tex,RSVPtest,216,g,true,847.4000000953674,1,r,,2,0,1,
tex,RSVPtest,217,g,true,1176.5,1,r,,0,2,1,
tex,RSVPtest,218,g,true,688.5999999046326,1,r,,3,2,1,
tex,RSVPtest,219,g,true,800,2,g,,2,2,2,
tex,RSVPtest,220,g,true,559.5,0,b,,3,3,0,
tex,RSVPtest,221,g,true,728.5,0,b,,0,3,0,
tex,RSVPtest,222,g,true,640.9000000953674,0,b,,3,3,0,
tex,RSVPtest,223,g,true,613.6000001430511,2,g,,2,1,1,
tex,RSVPtest,224,g,true,617.0999999046326,2,g,,0,0,2,
tex,RSVPtest,225,g,true,501.90000009536743,2,g,,1,2,1,
tex,RSVPtest,226,g,true,559.7000000476837,2,g,,3,1,1,
tex,RSVPtest,227,g,true,670.8999998569489,0,b,,2,3,0,
tex,RSVPtest,228,g,true,663.4000000953674,2,g,,3,1,1,
tex,RSVPtest,229,g,true,622.4000000953674,0,b,,2,3,0,
tex,RSVPtest,230,g,true,1519.8000001907349,2,g,,2,1,1,
tex,RSVPtest,231,g,false,1272.7000000476837,1,r,,1,1,2,
tex,RSVPtest,232,g,true,711.5,0,b,,3,3,0,
tex,RSVPtest,233,g,true,958.6000001430511,2,g,,0,1,1,
tex,RSVPtest,234,g,true,729.7999999523163,2,g,,0,2,1,
tex,RSVPtest,235,g,true,502.39999985694885,1,r,,1,1,2,
tex,RSVPtest,236,g,true,808.3999998569489,1,r,,1,0,1,
tex,RSVPtest,237,g,true,616.2000000476837,1,r,,3,2,1,
tex,RSVPtest,238,g,true,634,1,r,,3,1,1,
tex,RSVPtest,239,g,true,736.3999998569489,2,g,,3,1,1,
tex,RSVPtest,240,g,true,609.8000001907349,2,g,,3,0,1,
subID,trialType,trialNum,cntBalance,correct,rt,rwdType,tgtCol,tgtDir,tgtPos,colPos,colMatch,
c1z,VDACtrain,0,g,null,null,2,g,v,5,,,
c1z,VDACtrain,0,g,true,621.2999999970198,2,g,v,0,,,
c1z,VDACtrain,0,g,null,null,2,g,h,5,,,
c1z,VDACtrain,0,g,false,594.0999999940395,1,r,h,0,,,
c1z,VDACtrain,0,g,null,null,1,r,v,3,,,
c1z,VDACtrain,0,g,true,961.3999999985099,2,g,h,3,,,
c1z,VDACtrain,0,g,false,613.2999999970198,1,r,h,1,,,
c1z,VDACtrain,0,g,true,797.5,1,r,v,4,,,
c1z,VDACtrain,0,g,true,742.2000000029802,2,g,v,2,,,
c1z,VDACtrain,0,g,false,646.6999999955297,1,r,h,2,,,
c1z,VDACtrain,0,g,true,888.2000000029802,2,g,h,3,,,
c1z,VDACtrain,0,g,true,621.7999999970198,2,g,v,2,,,
c1z,VDACtrain,0,g,true,582.8999999985099,1,r,h,0,,,
c1z,VDACtrain,0,g,true,709.3999999985099,2,g,v,0,,,
c1z,VDACtrain,0,g,false,877.0999999940395,1,r,h,2,,,
c1z,VDACtrain,0,g,true,798.5,2,g,h,5,,,
c1z,VDACtrain,0,g,true,678.2000000029802,1,r,h,1,,,
c1z,VDACtrain,0,g,true,621.4000000059605,1,r,v,4,,,
c1z,VDACtrain,0,g,true,546.4000000059605,1,r,v,3,,,
c1z,VDACtrain,0,g,true,508.5,2,g,v,5,,,
c1z,VDACtest,1,g,true,698.2000000029802,1,r,h,5,,,
c1z,VDACtest,2,g,true,635.3000000044703,1,r,v,4,,,
c1z,VDACtest,3,g,true,565.8000000044703,1,r,h,5,,,
c1z,VDACtest,4,g,true,599.2999999970198,1,r,h,3,,,
c1z,VDACtest,5,g,true,796.8000000044703,1,r,h,1,,,
c1z,VDACtest,6,g,true,365.30000000447035,2,g,v,4,,,
c1z,VDACtest,7,g,false,460.8999999985099,1,r,v,5,,,
c1z,VDACtest,8,g,true,509.30000000447035,2,g,h,3,,,
c1z,VDACtest,9,g,false,620.8999999985099,1,r,h,4,,,
c1z,VDACtest,10,g,true,581.6000000014901,1,r,h,4,,,
c1z,VDACtest,11,g,true,478.30000000447035,2,g,v,3,,,
c1z,VDACtest,12,g,null,null,2,g,v,2,,,
c1z,VDACtest,13,g,false,855.8999999985099,2,g,h,2,,,
c1z,VDACtest,14,g,true,629.1000000014901,2,g,v,1,,,
c1z,VDACtest,15,g,true,628,2,g,h,2,,,
c1z,VDACtest,16,g,true,615.6999999955297,2,g,v,0,,,
c1z,VDACtest,17,g,false,596.6999999955297,2,g,h,4,,,
c1z,VDACtest,18,g,true,684.8999999985099,2,g,h,2,,,
c1z,VDACtest,19,g,true,509.29999999701977,1,r,v,5,,,
c1z,VDACtest,20,g,true,876.2999999970198,1,r,h,0,,,
c1z,VDACtest,21,g,true,581.8999999985099,2,g,v,4,,,
c1z,VDACtest,22,g,true,534.3000000044703,1,r,v,3,,,
c1z,VDACtest,23,g,true,454.6000000014901,2,g,v,5,,,
c1z,VDACtest,24,g,true,444.59999999403954,2,g,v,4,,,
c1z,VDACtest,25,g,true,421,1,r,h,2,,,
c1z,VDACtest,26,g,true,403.30000000447035,2,g,v,5,,,
c1z,VDACtest,27,g,true,533,1,r,h,4,,,
c1z,VDACtest,28,g,true,525.2000000029802,1,r,h,0,,,
c1z,VDACtest,29,g,true,388.29999999701977,2,g,v,0,,,
c1z,VDACtest,30,g,true,420.59999999403954,2,g,h,3,,,
c1z,VDACtest,31,g,true,444.79999999701977,1,r,v,4,,,
c1z,VDACtest,32,g,true,414.80000000447035,2,g,h,4,,,
c1z,VDACtest,33,g,false,509.20000000298023,1,r,h,5,,,
c1z,VDACtest,34,g,true,413.70000000298023,2,g,v,5,,,
c1z,VDACtest,35,g,false,508.6000000014901,1,r,h,1,,,
c1z,VDACtest,36,g,true,364.30000000447035,1,r,h,5,,,
c1z,VDACtest,37,g,true,437.59999999403954,2,g,h,4,,,
c1z,VDACtest,38,g,true,524.6000000014901,2,g,v,2,,,
c1z,VDACtest,39,g,true,660.3999999985099,1,r,h,2,,,
c1z,VDACtest,40,g,true,478.79999999701977,1,r,h,0,,,
c1z,VDACtest,41,g,true,404.8999999985099,2,g,v,4,,,
c1z,VDACtest,42,g,false,491.8999999985099,1,r,v,0,,,
c1z,VDACtest,43,g,false,435.79999999701977,1,r,h,4,,,
c1z,VDACtest,44,g,false,498,2,g,h,0,,,
c1z,VDACtest,45,g,true,678.6000000014901,2,g,v,1,,,
c1z,VDACtest,46,g,true,357.19999999552965,1,r,h,4,,,
c1z,VDACtest,47,g,false,543.2000000029802,1,r,v,1,,,
c1z,VDACtest,48,g,false,550.5,1,r,v,0,,,
c1z,VDACtest,49,g,true,542.6000000014901,2,g,v,1,,,
c1z,VDACtest,50,g,true,525.7000000029802,1,r,h,3,,,
brk,brk,brk,brk,brk,brk,brk,brk,brk,brk,brk,brk,
c1z,VDACtest,51,g,true,596.8000000044703,2,g,v,0,,,
c1z,VDACtest,52,g,true,524.8000000044703,1,r,v,0,,,
c1z,VDACtest,53,g,true,492.80000000447035,1,r,v,3,,,
c1z,VDACtest,54,g,true,413.5,2,g,h,3,,,
c1z,VDACtest,55,g,true,413.80000000447035,1,r,v,3,,,
c1z,VDACtest,56,g,true,534.2000000029802,2,g,h,4,,,
c1z,VDACtest,57,g,true,438.5,2,g,h,3,,,
c1z,VDACtest,58,g,false,436.6000000014901,1,r,h,0,,,
c1z,VDACtest,59,g,true,716.2000000029802,1,r,v,3,,,
c1z,VDACtest,60,g,true,508.59999999403954,1,r,h,1,,,
c1z,VDACtest,61,g,true,397.8999999985099,2,g,v,4,,,
c1z,VDACtest,62,g,true,501.5,1,r,v,5,,,
c1z,VDACtest,63,g,true,365,2,g,v,4,,,
c1z,VDACtest,64,g,true,484.40000000596046,1,r,v,3,,,
c1z,VDACtest,65,g,true,461.3999999985099,1,r,h,1,,,
c1z,VDACtest,66,g,true,414,2,g,v,0,,,
c1z,VDACtest,67,g,false,557.3999999985099,1,r,h,1,,,
c1z,VDACtest,68,g,true,542.1000000014901,2,g,h,1,,,
c1z,VDACtest,69,g,true,477,1,r,v,2,,,
c1z,VDACtest,70,g,true,371.29999999701977,2,g,h,5,,,
c1z,VDACtest,71,g,true,453.20000000298023,2,g,h,3,,,
c1z,VDACtest,72,g,true,533.7999999970198,2,g,v,2,,,
c1z,VDACtest,73,g,false,670.1000000089407,1,r,v,5,,,
c1z,VDACtest,74,g,false,501.1000000089407,2,g,h,5,,,
c1z,VDACtest,75,g,true,470.70000000298023,1,r,v,5,,,
c1z,VDACtest,76,g,true,421.29999999701977,2,g,h,0,,,
c1z,VDACtest,77,g,false,685,1,r,h,4,,,
c1z,VDACtest,78,g,true,469.5,2,g,v,0,,,
c1z,VDACtest,79,g,true,547.7000000029802,1,r,h,3,,,
c1z,VDACtest,80,g,false,575,1,r,v,2,,,
c1z,VDACtest,81,g,true,543.2000000029802,1,r,h,0,,,
c1z,VDACtest,82,g,true,556.7999999970198,1,r,h,5,,,
c1z,VDACtest,83,g,true,549.2000000029802,1,r,h,1,,,
c1z,VDACtest,84,g,false,452.79999999701977,2,g,h,1,,,
c1z,VDACtest,85,g,true,569.0999999940395,1,r,h,5,,,
c1z,VDACtest,86,g,true,749.2000000029802,1,r,h,4,,,
c1z,VDACtest,87,g,true,365.90000000596046,2,g,v,0,,,
c1z,VDACtest,88,g,false,429.20000000298023,1,r,v,1,,,
c1z,VDACtest,89,g,true,454.8999999910593,1,r,v,4,,,
c1z,VDACtest,90,g,true,373.80000001192093,1,r,v,5,,,
c1z,VDACtest,91,g,true,479.1000000089407,1,r,h,0,,,
c1z,VDACtest,92,g,true,518.5,2,g,h,2,,,
c1z,VDACtest,93,g,false,476.30000001192093,2,g,h,5,,,
c1z,VDACtest,94,g,true,580.6000000089407,2,g,h,3,,,
c1z,VDACtest,95,g,true,413.20000000298023,2,g,h,1,,,
c1z,VDACtest,96,g,true,610,1,r,h,2,,,
c1z,VDACtest,97,g,true,515.7999999970198,2,g,v,1,,,
c1z,VDACtest,98,g,true,541,2,g,h,4,,,
c1z,VDACtest,99,g,true,517.7000000029802,2,g,h,5,,,
c1z,VDACtest,100,g,false,517.5999999940395,1,r,h,3,,,
brk,brk,brk,brk,brk,brk,brk,brk,brk,brk,brk,brk,
c1z,VDACtest,101,g,true,890,1,r,h,3,,,
c1z,VDACtest,102,g,true,421.1000000089407,2,g,v,5,,,
c1z,VDACtest,103,g,false,653.7999999970198,1,r,v,1,,,
c1z,VDACtest,104,g,true,468.5,1,r,v,0,,,
c1z,VDACtest,105,g,true,476.09999999403954,2,g,h,5,,,
c1z,VDACtest,106,g,true,597.3999999910593,2,g,h,1,,,
c1z,VDACtest,107,g,true,413.90000000596046,2,g,h,5,,,
c1z,VDACtest,108,g,true,381.59999999403954,1,r,v,1,,,
c1z,VDACtest,109,g,true,620.5999999940395,2,g,h,5,,,
c1z,VDACtest,110,g,true,532.7000000029802,2,g,h,1,,,
c1z,VDACtest,111,g,true,597.5999999940395,2,g,h,3,,,
c1z,VDACtest,112,g,true,469.5,2,g,v,1,,,
c1z,VDACtest,113,g,true,461.20000000298023,2,g,v,5,,,
c1z,VDACtest,114,g,true,412.29999999701977,2,g,h,1,,,
c1z,VDACtest,115,g,true,619.8999999910593,2,g,h,0,,,
c1z,VDACtest,116,g,true,982.2000000029802,1,r,h,3,,,
c1z,VDACtest,117,g,true,485.29999999701977,2,g,v,5,,,
c1z,VDACtest,118,g,true,502,2,g,h,1,,,
c1z,VDACtest,119,g,true,430.5,2,g,v,1,,,
c1z,VDACtest,120,g,true,467,1,r,v,1,,,
c1z,VDACtest,121,g,true,517.5,1,r,v,0,,,
c1z,VDACtest,122,g,false,508.70000000298023,2,g,v,4,,,
c1z,VDACtest,123,g,true,645.2000000029802,1,r,h,3,,,
c1z,VDACtest,124,g,true,637.2000000029802,2,g,h,4,,,
c1z,VDACtest,125,g,true,524.6000000089407,2,g,v,3,,,
c1z,VDACtest,126,g,true,460.70000000298023,2,g,v,5,,,
c1z,VDACtest,127,g,true,549.2000000029802,1,r,h,2,,,
c1z,VDACtest,128,g,false,444.19999998807907,1,r,v,2,,,
c1z,VDACtest,129,g,true,581.8999999910593,1,r,v,4,,,
c1z,VDACtest,130,g,false,541.9000000059605,2,g,h,1,,,
c1z,VDACtest,131,g,true,557.5,1,r,v,3,,,
c1z,VDACtest,132,g,true,531.7999999970198,2,g,v,2,,,
c1z,VDACtest,133,g,true,477.1000000089407,1,r,v,1,,,
c1z,VDACtest,134,g,true,549.7000000029802,2,g,h,3,,,
c1z,VDACtest,135,g,true,580.8999999910593,1,r,h,2,,,
c1z,VDACtest,136,g,true,636.3999999910593,2,g,h,0,,,
c1z,VDACtest,137,g,true,579.2999999970198,2,g,v,2,,,
c1z,VDACtest,138,g,true,502,2,g,v,3,,,
c1z,VDACtest,139,g,true,588.6000000089407,2,g,h,5,,,
c1z,VDACtest,140,g,true,637.4000000059605,2,g,v,1,,,
c1z,VDACtest,141,g,true,501.6000000089407,1,r,h,0,,,
c1z,VDACtest,142,g,false,445.29999999701977,1,r,v,2,,,
c1z,VDACtest,143,g,false,478.20000000298023,2,g,h,0,,,
c1z,VDACtest,144,g,false,675.8999999910593,2,g,v,1,,,
c1z,VDACtest,145,g,true,565.0999999940395,1,r,v,2,,,
c1z,VDACtest,146,g,true,732.4000000059605,2,g,h,4,,,
c1z,VDACtest,147,g,true,517.3999999910593,2,g,h,4,,,
c1z,VDACtest,148,g,true,573,2,g,v,0,,,
c1z,VDACtest,149,g,true,659.4000000059605,2,g,v,4,,,
c1z,VDACtest,150,g,true,500.29999999701977,2,g,v,3,,,
brk,brk,brk,brk,brk,brk,brk,brk,brk,brk,brk,brk,
c1z,VDACtest,151,g,false,537,2,g,h,0,,,
c1z,VDACtest,152,g,true,612.7999999970198,2,g,h,4,,,
c1z,VDACtest,153,g,true,646,1,r,v,5,,,
c1z,VDACtest,154,g,true,533.7999999970198,1,r,h,3,,,
c1z,VDACtest,155,g,false,486.30000001192093,1,r,v,0,,,
c1z,VDACtest,156,g,true,668.6000000089407,2,g,h,0,,,
c1z,VDACtest,157,g,false,566.0999999940395,1,r,h,1,,,
c1z,VDACtest,158,g,true,596.2999999970198,2,g,v,0,,,
c1z,VDACtest,159,g,false,540.7000000029802,1,r,v,0,,,
c1z,VDACtest,160,g,true,645.7000000029802,1,r,h,0,,,
c1z,VDACtest,161,g,true,597.5,1,r,v,1,,,
c1z,VDACtest,162,g,true,668.7000000029802,1,r,h,4,,,
c1z,VDACtest,163,g,true,621.2999999970198,2,g,v,3,,,
c1z,VDACtest,164,g,true,557.2000000029802,1,r,v,3,,,
c1z,VDACtest,165,g,true,485.20000000298023,1,r,h,5,,,
c1z,VDACtest,166,g,true,469.09999999403954,2,g,v,2,,,
c1z,VDACtest,167,g,true,653.0999999940395,2,g,h,0,,,
c1z,VDACtest,168,g,false,566.0999999940395,1,r,h,2,,,
c1z,VDACtest,169,g,true,660.4000000059605,1,r,h,4,,,
c1z,VDACtest,170,g,true,572,1,r,v,4,,,
c1z,VDACtest,171,g,true,621.9000000059605,2,g,h,2,,,
c1z,VDACtest,172,g,true,637.3999999910593,1,r,h,2,,,
c1z,VDACtest,173,g,true,564.7000000029802,1,r,h,2,,,
c1z,VDACtest,174,g,true,501.40000000596046,2,g,v,2,,,
c1z,VDACtest,175,g,true,622,1,r,v,2,,,
c1z,VDACtest,176,g,true,509.70000000298023,1,r,v,1,,,
c1z,VDACtest,177,g,true,524.2999999970198,1,r,v,1,,,
c1z,VDACtest,178,g,true,581.7000000029802,1,r,v,4,,,
c1z,VDACtest,179,g,true,548.7999999970198,2,g,v,1,,,
c1z,VDACtest,180,g,true,541.6000000089407,2,g,h,1,,,
c1z,VDACtest,181,g,false,723.8999999910593,1,r,v,4,,,
c1z,VDACtest,182,g,true,668.5,2,g,h,2,,,
c1z,VDACtest,183,g,true,547.4000000059605,1,r,h,1,,,
c1z,VDACtest,184,g,true,564.1999999880791,1,r,v,3,,,
c1z,VDACtest,185,g,true,452.59999999403954,1,r,v,2,,,
c1z,VDACtest,186,g,true,526.9000000059605,1,r,v,5,,,
c1z,VDACtest,187,g,true,580.1999999880791,2,g,v,4,,,
c1z,VDACtest,188,g,true,469.09999999403954,1,r,h,5,,,
c1z,VDACtest,189,g,true,516.5,1,r,v,2,,,
c1z,VDACtest,190,g,true,486.3999999910593,2,g,v,3,,,
c1z,VDACtest,191,g,true,419.8999999910593,2,g,v,3,,,
c1z,VDACtest,192,g,true,643.1000000089407,1,r,v,4,,,
c1z,VDACtest,193,g,true,460.59999999403954,1,r,v,0,,,
c1z,VDACtest,194,g,true,506.90000000596046,1,r,h,1,,,
c1z,VDACtest,195,g,true,540.2000000029802,2,g,v,2,,,
c1z,VDACtest,196,g,true,540.5999999940395,1,r,v,4,,,
c1z,VDACtest,197,g,true,436,2,g,v,5,,,
c1z,VDACtest,198,g,true,478.5,2,g,h,2,,,
c1z,VDACtest,199,g,false,581.5999999940395,2,g,v,3,,,
c1z,VDACtest,200,g,true,436,2,g,h,2,,,
c1z,RSVPtrain,0,g,false,1028.8999999910593,0,b,,0,3,0,
c1z,RSVPtrain,0,g,true,856.6000000089407,2,g,,3,1,1,
c1z,RSVPtrain,0,g,true,703,1,r,,0,0,2,
c1z,RSVPtrain,0,g,false,617.0999999940395,1,r,,1,1,2,
c1z,RSVPtrain,0,g,true,999.3999999910593,1,r,,3,2,1,
c1z,RSVPtrain,0,g,false,906.5999999940395,0,b,,1,3,0,
c1z,RSVPtrain,0,g,true,992.9000000059605,0,b,,3,3,0,
c1z,RSVPtrain,0,g,false,897.5999999940395,2,g,,1,0,1,
c1z,RSVPtrain,0,g,true,927.5999999940395,2,g,,3,0,1,
c1z,RSVPtrain,0,g,true,528.9000000059605,2,g,,2,2,2,
c1z,RSVPtest,1,g,true,618.5,1,r,,0,2,1,
c1z,RSVPtest,2,g,true,598.9000000059605,0,b,,3,3,0,
c1z,RSVPtest,3,g,true,649.7000000029802,0,b,,3,3,0,
c1z,RSVPtest,4,g,true,805.5999999940395,0,b,,3,3,0,
c1z,RSVPtest,5,g,true,641.2000000029802,2,g,,3,0,1,
c1z,RSVPtest,6,g,false,810.2000000029802,1,r,,0,2,1,
c1z,RSVPtest,7,g,false,689.5,0,b,,0,3,0,
c1z,RSVPtest,8,g,true,384.59999999403954,1,r,,0,1,1,
c1z,RSVPtest,9,g,true,912.3999999910593,2,g,,0,1,1,
c1z,RSVPtest,10,g,false,1031.4000000059605,2,g,,1,2,1,
c1z,RSVPtest,11,g,true,408,1,r,,2,2,2,
c1z,RSVPtest,12,g,true,863,2,g,,1,0,1,
c1z,RSVPtest,13,g,true,704.4000000059605,0,b,,3,3,0,
c1z,RSVPtest,14,g,true,792.5,0,b,,2,3,0,
c1z,RSVPtest,15,g,true,502.09999999403954,0,b,,2,3,0,
c1z,RSVPtest,16,g,true,870.5999999940395,2,g,,2,1,1,
c1z,RSVPtest,17,g,true,623.8999999910593,0,b,,2,3,0,
c1z,RSVPtest,18,g,true,526.7999999970198,0,b,,3,3,0,
c1z,RSVPtest,19,g,true,799.8999999910593,2,g,,3,1,1,
c1z,RSVPtest,20,g,false,1125.0999999940395,1,r,,1,2,1,
c1z,RSVPtest,21,g,true,622.7999999970198,0,b,,1,3,0,
c1z,RSVPtest,22,g,true,686.6000000089407,1,r,,0,0,2,
c1z,RSVPtest,23,g,false,703.6000000089407,0,b,,3,3,0,
c1z,RSVPtest,24,g,true,422.69999998807907,0,b,,0,3,0,
c1z,RSVPtest,25,g,true,649.2000000029802,2,g,,0,0,2,
c1z,RSVPtest,26,g,false,584.3999999910593,0,b,,2,3,0,
c1z,RSVPtest,27,g,false,920.2000000029802,2,g,,3,1,1,
c1z,RSVPtest,28,g,false,997.2999999970198,2,g,,0,1,1,
c1z,RSVPtest,29,g,true,775.2999999970198,1,r,,3,1,1,
c1z,RSVPtest,30,g,true,564.8999999910593,2,g,,1,1,2,
c1z,RSVPtest,31,g,true,679.2000000029802,2,g,,2,2,2,
c1z,RSVPtest,32,g,true,741.4000000059605,0,b,,3,3,0,
c1z,RSVPtest,33,g,true,958.9000000059605,1,r,,0,2,1,
c1z,RSVPtest,34,g,true,735,0,b,,0,3,0,
c1z,RSVPtest,35,g,true,621.5,0,b,,1,3,0,
c1z,RSVPtest,36,g,true,686.4000000059605,2,g,,3,1,1,
c1z,RSVPtest,37,g,true,727,0,b,,3,3,0,
c1z,RSVPtest,38,g,true,503.40000000596046,1,r,,2,2,2,
c1z,RSVPtest,39,g,true,599.7000000029802,0,b,,0,3,0,
c1z,RSVPtest,40,g,true,991.1000000089407,2,g,,1,2,1,
c1z,RSVPtest,41,g,true,984.5,2,g,,3,0,1,
c1z,RSVPtest,42,g,false,368.70000000298023,0,b,,2,3,0,
c1z,RSVPtest,43,g,true,863.0999999940395,0,b,,0,3,0,
c1z,RSVPtest,44,g,true,965.7999999970198,0,b,,3,3,0,
c1z,RSVPtest,45,g,true,408.40000000596046,2,g,,0,2,1,
c1z,RSVPtest,46,g,true,639.2000000029802,1,r,,2,2,2,
c1z,RSVPtest,47,g,true,927.8999999910593,1,r,,1,0,1,
c1z,RSVPtest,48,g,true,1007.9000000059605,1,r,,2,1,1,
c1z,RSVPtest,49,g,true,647.5999999940395,1,r,,0,1,1,
c1z,RSVPtest,50,g,true,774.6999999880791,2,g,,3,1,1,
c1z,RSVPtest,51,g,true,1184.0999999940395,2,g,,1,0,1,
c1z,RSVPtest,52,g,true,664.9000000059605,2,g,,3,2,1,
c1z,RSVPtest,53,g,true,910.6000000089407,1,r,,3,1,1,
c1z,RSVPtest,54,g,true,734.1000000089407,1,r,,0,0,2,
c1z,RSVPtest,55,g,true,590.6000000089407,1,r,,3,1,1,
c1z,RSVPtest,56,g,false,959.7000000029802,1,r,,1,2,1,
c1z,RSVPtest,57,g,true,653.5999999940395,1,r,,0,1,1,
c1z,RSVPtest,58,g,true,773.9000000059605,0,b,,3,3,0,
c1z,RSVPtest,59,g,true,929.1999999880791,1,r,,3,0,1,
c1z,RSVPtest,60,g,false,694.2000000029802,0,b,,3,3,0,
brk,brk,brk,brk,brk,brk,brk,brk,brk,brk,brk,brk,
c1z,RSVPtest,61,g,true,1061.800000011921,2,g,,1,2,1,
c1z,RSVPtest,62,g,true,647.0999999940395,0,b,,0,3,0,
c1z,RSVPtest,63,g,true,792.5,1,r,,2,1,1,
c1z,RSVPtest,64,g,true,838.2000000029802,1,r,,3,0,1,
c1z,RSVPtest,65,g,true,664.7000000029802,1,r,,3,0,1,
c1z,RSVPtest,66,g,true,542.2000000029802,2,g,,0,2,1,
c1z,RSVPtest,67,g,true,582.3999999910593,0,b,,2,3,0,
c1z,RSVPtest,68,g,true,542.3000000119209,1,r,,1,0,1,
c1z,RSVPtest,69,g,false,622.9000000059605,2,g,,3,2,1,
c1z,RSVPtest,70,g,false,1016.7000000029802,2,g,,1,0,1,
c1z,RSVPtest,71,g,true,682.7999999970198,1,r,,0,2,1,
c1z,RSVPtest,72,g,true,693.9000000059605,2,g,,0,1,1,
c1z,RSVPtest,73,g,true,927.6999999880791,2,g,,3,0,1,
c1z,RSVPtest,74,g,true,700.5999999940395,1,r,,3,2,1,
c1z,RSVPtest,75,g,true,615.8999999910593,1,r,,2,0,1,
c1z,RSVPtest,76,g,true,463.29999999701977,2,g,,0,2,1,
c1z,RSVPtest,77,g,true,647,2,g,,0,0,2,
c1z,RSVPtest,78,g,true,932.7999999970198,1,r,,3,2,1,
c1z,RSVPtest,79,g,true,792.0999999940395,1,r,,3,0,1,
c1z,RSVPtest,80,g,true,731.7999999970198,2,g,,2,0,1,
c1z,RSVPtest,81,g,true,686.7000000029802,2,g,,2,0,1,
c1z,RSVPtest,82,g,false,421.69999998807907,0,b,,3,3,0,
c1z,RSVPtest,83,g,true,766.5,1,r,,3,0,1,
c1z,RSVPtest,84,g,true,1036.2999999970198,1,r,,3,0,1,
c1z,RSVPtest,85,g,true,1148.4000000059605,2,g,,3,2,1,
c1z,RSVPtest,86,g,true,692.0999999940395,2,g,,1,1,2,
c1z,RSVPtest,87,g,true,982.3999999910593,0,b,,1,3,0,
c1z,RSVPtest,88,g,true,847.5999999940395,1,r,,3,0,1,
c1z,RSVPtest,89,g,true,694,0,b,,3,3,0,
c1z,RSVPtest,90,g,true,735.3000000119209,1,r,,3,0,1,
c1z,RSVPtest,91,g,true,675.7999999970198,2,g,,2,1,1,
c1z,RSVPtest,92,g,false,821.3000000119209,0,b,,1,3,0,
c1z,RSVPtest,93,g,true,886.2999999970198,0,b,,0,3,0,
c1z,RSVPtest,94,g,true,957.5999999940395,2,g,,0,1,1,
c1z,RSVPtest,95,g,false,1038.4000000059605,2,g,,3,0,1,
c1z,RSVPtest,96,g,false,1278.5,0,b,,1,3,0,
c1z,RSVPtest,97,g,true,516.2999999970198,0,b,,0,3,0,
c1z,RSVPtest,98,g,true,668,1,r,,3,1,1,
c1z,RSVPtest,99,g,true,1006,1,r,,3,2,1,
c1z,RSVPtest,100,g,true,893.9000000059605,0,b,,2,3,0,
c1z,RSVPtest,101,g,false,830.4000000059605,0,b,,1,3,0,
c1z,RSVPtest,102,g,true,740,1,r,,3,2,1,
c1z,RSVPtest,103,g,true,439.1000000089407,0,b,,0,3,0,
c1z,RSVPtest,104,g,true,974.9000000059605,1,r,,0,0,2,
c1z,RSVPtest,105,g,true,781.7999999970198,0,b,,3,3,0,
c1z,RSVPtest,106,g,true,517.1999999880791,1,r,,2,1,1,
c1z,RSVPtest,107,g,true,407.3999999910593,2,g,,0,0,2,
c1z,RSVPtest,108,g,true,701.2999999970198,1,r,,0,0,2,
c1z,RSVPtest,109,g,true,678.0999999940395,0,b,,3,3,0,
c1z,RSVPtest,110,g,true,652.5999999940395,0,b,,1,3,0,
c1z,RSVPtest,111,g,false,814.7000000029802,1,r,,3,2,1,
c1z,RSVPtest,112,g,true,421.20000000298023,1,r,,1,0,1,
c1z,RSVPtest,113,g,true,781.2000000029802,1,r,,2,0,1,
c1z,RSVPtest,114,g,true,821.9000000059605,1,r,,1,1,2,
c1z,RSVPtest,115,g,true,614.2999999970198,1,r,,1,2,1,
c1z,RSVPtest,116,g,true,708.2000000029802,2,g,,0,1,1,
c1z,RSVPtest,117,g,false,943.5999999940395,2,g,,2,0,1,
c1z,RSVPtest,118,g,false,1165.7000000029802,1,r,,0,2,1,
c1z,RSVPtest,119,g,false,959,1,r,,0,2,1,
c1z,RSVPtest,120,g,true,685.4000000059605,1,r,,3,1,1,
brk,brk,brk,brk,brk,brk,brk,brk,brk,brk,brk,brk,
c1z,RSVPtest,121,g,true,764,2,g,,3,1,1,
c1z,RSVPtest,122,g,true,605,2,g,,3,1,1,
c1z,RSVPtest,123,g,true,813.2999999970198,1,r,,0,0,2,
c1z,RSVPtest,124,g,true,590.2000000029802,2,g,,2,2,2,
c1z,RSVPtest,125,g,false,885.1000000089407,2,g,,3,0,1,
c1z,RSVPtest,126,g,true,639.4000000059605,2,g,,3,1,1,
c1z,RSVPtest,127,g,true,997.3999999910593,0,b,,0,3,0,
c1z,RSVPtest,128,g,true,683.3000000119209,0,b,,3,3,0,
c1z,RSVPtest,129,g,true,436.40000000596046,0,b,,2,3,0,
c1z,RSVPtest,130,g,false,1108.2999999970198,1,r,,1,1,2,
c1z,RSVPtest,131,g,true,757.5,1,r,,0,1,1,
c1z,RSVPtest,132,g,true,876.6000000089407,2,g,,3,2,1,
c1z,RSVPtest,133,g,true,722.6999999880791,1,r,,2,0,1,
c1z,RSVPtest,134,g,true,998.8000000119209,0,b,,1,3,0,
c1z,RSVPtest,135,g,false,614.3000000119209,1,r,,3,2,1,
c1z,RSVPtest,136,g,true,813.7999999970198,2,g,,3,1,1,
c1z,RSVPtest,137,g,true,389.20000000298023,2,g,,0,1,1,
c1z,RSVPtest,138,g,true,499.70000000298023,1,r,,1,1,2,
c1z,RSVPtest,139,g,true,855.5999999940395,1,r,,3,2,1,
c1z,RSVPtest,140,g,true,805.2999999970198,2,g,,1,1,2,
c1z,RSVPtest,141,g,true,917.7000000029802,2,g,,1,0,1,
c1z,RSVPtest,142,g,true,876.2999999970198,0,b,,3,3,0,
c1z,RSVPtest,143,g,true,757.3000000119209,1,r,,1,1,2,
c1z,RSVPtest,144,g,true,693,2,g,,1,2,1,
c1z,RSVPtest,145,g,true,435.5,2,g,,2,0,1,
c1z,RSVPtest,146,g,true,635.4000000059605,1,r,,0,0,2,
c1z,RSVPtest,147,g,false,723.7000000029802,1,r,,3,0,1,
c1z,RSVPtest,148,g,false,710.0999999940395,0,b,,2,3,0,
c1z,RSVPtest,149,g,true,492.09999999403954,2,g,,2,0,1,
c1z,RSVPtest,150,g,false,749.2000000029802,1,r,,3,1,1,
c1z,RSVPtest,151,g,true,747.8999999910593,0,b,,3,3,0,
c1z,RSVPtest,152,g,false,1379.9000000059605,1,r,,1,1,2,
c1z,RSVPtest,153,g,true,804,2,g,,2,1,1,
c1z,RSVPtest,154,g,true,781.3000000119209,2,g,,3,2,1,
c1z,RSVPtest,155,g,true,932,2,g,,3,0,1,
c1z,RSVPtest,156,g,true,763.3999999910593,2,g,,3,1,1,
c1z,RSVPtest,157,g,true,890.5999999940395,1,r,,3,2,1,
c1z,RSVPtest,158,g,true,709.4000000059605,0,b,,3,3,0,
c1z,RSVPtest,159,g,true,1205.5,0,b,,3,3,0,
c1z,RSVPtest,160,g,true,661,2,g,,3,2,1,
c1z,RSVPtest,161,g,true,733.8000000119209,2,g,,1,0,1,
c1z,RSVPtest,162,g,true,894,2,g,,3,2,1,
c1z,RSVPtest,163,g,true,814.3000000119209,0,b,,1,3,0,
c1z,RSVPtest,164,g,true,756.2999999970198,1,r,,3,2,1,
c1z,RSVPtest,165,g,true,846.2999999970198,1,r,,2,1,1,
c1z,RSVPtest,166,g,false,844.7999999970198,1,r,,3,1,1,
c1z,RSVPtest,167,g,false,1055.9000000059605,2,g,,1,2,1,
c1z,RSVPtest,168,g,true,940.2000000029802,2,g,,3,1,1,
c1z,RSVPtest,169,g,false,750.3999999910593,1,r,,3,0,1,
c1z,RSVPtest,170,g,true,477.80000001192093,0,b,,1,3,0,
c1z,RSVPtest,171,g,true,964.4000000059605,2,g,,3,0,1,
c1z,RSVPtest,172,g,true,868.3999999910593,0,b,,3,3,0,
c1z,RSVPtest,173,g,true,740.5999999940395,1,r,,1,1,2,
c1z,RSVPtest,174,g,false,660.2999999970198,1,r,,1,2,1,
c1z,RSVPtest,175,g,true,644.5999999940395,1,r,,3,2,1,
c1z,RSVPtest,176,g,true,764.8999999910593,1,r,,3,1,1,
c1z,RSVPtest,177,g,true,694.0999999940395,1,r,,3,0,1,
c1z,RSVPtest,178,g,false,844.4000000059605,2,g,,2,0,1,
c1z,RSVPtest,179,g,true,811.3000000119209,2,g,,3,2,1,
c1z,RSVPtest,180,g,true,868,1,r,,1,2,1,
brk,brk,brk,brk,brk,brk,brk,brk,brk,brk,brk,brk,
c1z,RSVPtest,181,g,false,717.8999999910593,1,r,,3,1,1,
c1z,RSVPtest,182,g,true,693,2,g,,3,2,1,
c1z,RSVPtest,183,g,true,523.7999999970198,0,b,,2,3,0,
c1z,RSVPtest,184,g,true,814.4000000059605,1,r,,2,1,1,
c1z,RSVPtest,185,g,true,717,2,g,,1,2,1,
c1z,RSVPtest,186,g,true,605.2000000029802,1,r,,3,1,1,
c1z,RSVPtest,187,g,false,764.5999999940395,2,g,,3,0,1,
c1z,RSVPtest,188,g,false,852.2000000029802,2,g,,3,2,1,
c1z,RSVPtest,189,g,true,802.3999999910593,2,g,,3,0,1,
c1z,RSVPtest,190,g,true,780.5,1,r,,3,2,1,
c1z,RSVPtest,191,g,true,1012.2999999970198,2,g,,0,2,1,
c1z,RSVPtest,192,g,true,676,2,g,,0,2,1,
c1z,RSVPtest,193,g,true,537.7000000029802,2,g,,2,2,2,
c1z,RSVPtest,194,g,false,862.1000000089407,1,r,,0,1,1,
c1z,RSVPtest,195,g,true,899.9000000059605,2,g,,3,1,1,
c1z,RSVPtest,196,g,false,739.0999999940395,0,b,,1,3,0,
c1z,RSVPtest,197,g,false,661.4000000059605,2,g,,0,2,1,
c1z,RSVPtest,198,g,true,1106.3999999910593,2,g,,3,2,1,
c1z,RSVPtest,199,g,true,762.8000000119209,2,g,,2,1,1,
c1z,RSVPtest,200,g,true,637.2999999970198,1,r,,2,0,1,
c1z,RSVPtest,201,g,true,442.1000000089407,2,g,,0,0,2,
c1z,RSVPtest,202,g,true,573.5999999940395,2,g,,1,0,1,
c1z,RSVPtest,203,g,true,420.70000000298023,2,g,,0,0,2,
c1z,RSVPtest,204,g,false,908.4000000059605,2,g,,2,2,2,
c1z,RSVPtest,205,g,false,460,2,g,,3,0,1,
c1z,RSVPtest,206,g,false,668.2999999970198,1,r,,1,0,1,
c1z,RSVPtest,207,g,true,838.1000000089407,2,g,,3,0,1,
c1z,RSVPtest,208,g,true,1002,2,g,,3,2,1,
c1z,RSVPtest,209,g,true,891.7999999970198,0,b,,3,3,0,
c1z,RSVPtest,210,g,true,769.7999999970198,1,r,,2,0,1,
c1z,RSVPtest,211,g,false,1083.2999999970198,0,b,,0,3,0,
c1z,RSVPtest,212,g,true,772.2000000029802,1,r,,2,0,1,
c1z,RSVPtest,213,g,true,665.7999999970198,1,r,,3,1,1,
c1z,RSVPtest,214,g,false,684.7000000029802,1,r,,1,0,1,
c1z,RSVPtest,215,g,true,609.4000000059605,1,r,,3,1,1,
c1z,RSVPtest,216,g,true,725.4000000059605,2,g,,3,1,1,
c1z,RSVPtest,217,g,true,523.7000000029802,2,g,,2,1,1,
c1z,RSVPtest,218,g,false,910.1999999880791,2,g,,1,1,2,
c1z,RSVPtest,219,g,true,630.2000000029802,1,r,,2,2,2,
c1z,RSVPtest,220,g,true,580.2999999970198,0,b,,3,3,0,
c1z,RSVPtest,221,g,true,669.6000000089407,2,g,,1,1,2,
c1z,RSVPtest,222,g,true,389.59999999403954,2,g,,2,2,2,
c1z,RSVPtest,223,g,false,854.2000000029802,2,g,,3,0,1,
c1z,RSVPtest,224,g,false,865.2999999970198,1,r,,1,0,1,
c1z,RSVPtest,225,g,true,813.2999999970198,0,b,,2,3,0,
c1z,RSVPtest,226,g,true,594.6999999880791,1,r,,3,0,1,
c1z,RSVPtest,227,g,true,662.7999999970198,0,b,,2,3,0,
c1z,RSVPtest,228,g,true,908.5999999940395,1,r,,1,2,1,
c1z,RSVPtest,229,g,true,636.2999999970198,0,b,,3,3,0,
c1z,RSVPtest,230,g,true,488.70000000298023,2,g,,2,2,2,
c1z,RSVPtest,231,g,true,739.8999999910593,0,b,,1,3,0,
c1z,RSVPtest,232,g,false,1173.0999999940395,1,r,,0,1,1,
c1z,RSVPtest,233,g,true,773,2,g,,2,1,1,
c1z,RSVPtest,234,g,true,685.1000000089407,1,r,,2,1,1,
c1z,RSVPtest,235,g,true,776.9000000059605,2,g,,1,1,2,
c1z,RSVPtest,236,g,true,501.3999999910593,0,b,,0,3,0,
c1z,RSVPtest,237,g,true,379.29999999701977,1,r,,2,2,2,
c1z,RSVPtest,238,g,true,859.7000000029802,1,r,,3,2,1,
c1z,RSVPtest,239,g,true,695.9000000059605,1,r,,2,2,2,
c1z,RSVPtest,240,g,true,768.7999999970198,2,g,,0,0,2,
subID,trialType,trialNum,cntBalance,correct,rt,rwdType,tgtCol,tgtDir,tgtPos,colPos,colMatch,
fw6,VDACtrain,0,g,null,null,1,r,h,0,,,
fw6,VDACtrain,0,g,true,859.2999997138977,2,g,h,5,,,
fw6,VDACtrain,0,g,null,null,1,r,v,4,,,
fw6,VDACtrain,0,g,true,728.0999999046326,2,g,h,3,,,
fw6,VDACtrain,0,g,true,682.8999996185303,2,g,v,0,,,
fw6,VDACtrain,0,g,null,null,1,r,h,1,,,
fw6,VDACtrain,0,g,null,null,1,r,h,2,,,
fw6,VDACtrain,0,g,true,799.5,2,g,v,5,,,
fw6,VDACtrain,0,g,true,788.5,2,g,v,2,,,
fw6,VDACtrain,0,g,false,651.9000000953674,1,r,v,3,,,
fw6,VDACtest,1,g,true,609.5999999046326,1,r,v,4,,,
fw6,VDACtest,2,g,false,698.9000000953674,1,r,v,3,,,
fw6,VDACtest,3,g,true,779.5,2,g,h,1,,,
fw6,VDACtest,4,g,true,705.8000001907349,1,r,h,0,,,
fw6,VDACtest,5,g,true,639.7000002861023,2,g,v,4,,,
fw6,VDACtest,6,g,true,666.2999997138977,2,g,h,1,,,
fw6,VDACtest,7,g,true,683.5,2,g,v,0,,,
fw6,VDACtest,8,g,true,636,1,r,h,3,,,
fw6,VDACtest,9,g,true,680.8000001907349,1,r,v,5,,,
fw6,VDACtest,10,g,false,578.9000000953674,1,r,v,2,,,
fw6,VDACtest,11,g,true,706.5,2,g,v,0,,,
fw6,VDACtest,12,g,true,523.8999996185303,1,r,v,5,,,
fw6,VDACtest,13,g,true,501,2,g,h,5,,,
fw6,VDACtest,14,g,true,882.7999997138977,1,r,v,1,,,
fw6,VDACtest,15,g,false,597,2,g,v,1,,,
fw6,VDACtest,16,g,false,635.9000000953674,2,g,v,2,,,
fw6,VDACtest,17,g,true,674.7999997138977,1,r,h,2,,,
fw6,VDACtest,18,g,true,740.0999999046326,1,r,h,4,,,
fw6,VDACtest,19,g,true,620.3000001907349,1,r,v,3,,,
fw6,VDACtest,20,g,true,659.6999998092651,1,r,v,4,,,
fw6,VDACtest,21,g,true,579.7999997138977,1,r,h,2,,,
fw6,VDACtest,22,g,true,640.7000002861023,2,g,v,3,,,
fw6,VDACtest,23,g,true,780.5999999046326,2,g,h,4,,,
fw6,VDACtest,24,g,true,747.3000001907349,2,g,v,2,,,
fw6,VDACtest,25,g,true,522.0999999046326,2,g,v,2,,,
fw6,VDACtest,26,g,true,651.8000001907349,2,g,h,1,,,
fw6,VDACtest,27,g,null,null,1,r,h,2,,,
fw6,VDACtest,28,g,true,582.7999997138977,2,g,h,2,,,
fw6,VDACtest,29,g,true,666.5999999046326,2,g,v,0,,,
fw6,VDACtest,30,g,true,652.7000002861023,1,r,v,3,,,
fw6,VDACtest,31,g,null,null,2,g,v,1,,,
fw6,VDACtest,32,g,true,622.9000000953674,2,g,h,4,,,
fw6,VDACtest,33,g,true,643.9000000953674,1,r,h,3,,,
fw6,VDACtest,34,g,true,564.2999997138977,2,g,v,2,,,
fw6,VDACtest,35,g,true,570.8000001907349,1,r,h,1,,,
fw6,VDACtest,36,g,true,755.7000002861023,2,g,v,0,,,
fw6,VDACtest,37,g,null,null,1,r,v,2,,,
fw6,VDACtest,38,g,true,679.9000000953674,1,r,v,5,,,
fw6,VDACtest,39,g,true,611.5999999046326,2,g,v,3,,,
fw6,VDACtest,40,g,true,711.2999997138977,2,g,v,0,,,
fw6,VDACtest,41,g,true,557.4000000953674,1,r,h,3,,,
fw6,VDACtest,42,g,true,781.5,2,g,h,1,,,
fw6,VDACtest,43,g,true,812,1,r,v,5,,,
fw6,VDACtest,44,g,true,516.6999998092651,1,r,v,5,,,
fw6,VDACtest,45,g,true,578.2999997138977,2,g,v,5,,,
fw6,VDACtest,46,g,true,938.7999997138977,1,r,v,3,,,
fw6,VDACtest,47,g,null,null,2,g,v,2,,,
fw6,VDACtest,48,g,true,545.3999996185303,1,r,h,4,,,
fw6,VDACtest,49,g,null,null,1,r,v,2,,,
fw6,VDACtest,50,g,true,702.2000002861023,2,g,h,0,,,
brk,brk,brk,brk,brk,brk,brk,brk,brk,brk,brk,brk,
fw6,VDACtest,51,g,true,895.8999996185303,1,r,h,0,,,
fw6,VDACtest,52,g,true,569.1999998092651,1,r,h,3,,,
fw6,VDACtest,53,g,true,481.40000009536743,2,g,v,3,,,
fw6,VDACtest,54,g,true,747.8999996185303,2,g,h,2,,,
fw6,VDACtest,55,g,true,914.5999999046326,1,r,h,4,,,
fw6,VDACtest,56,g,true,690.4000000953674,1,r,v,2,,,
fw6,VDACtest,57,g,true,546.5,1,r,h,3,,,
fw6,VDACtest,58,g,false,530.7000002861023,1,r,h,1,,,
fw6,VDACtest,59,g,null,null,2,g,h,0,,,
fw6,VDACtest,60,g,true,596.2999997138977,1,r,v,3,,,
fw6,VDACtest,61,g,true,651.8000001907349,2,g,v,2,,,
fw6,VDACtest,62,g,true,603.2000002861023,1,r,h,5,,,
fw6,VDACtest,63,g,false,798.0999999046326,2,g,h,2,,,
fw6,VDACtest,64,g,true,483.7999997138977,2,g,h,2,,,
fw6,VDACtest,65,g,true,588.3000001907349,2,g,v,3,,,
fw6,VDACtest,66,g,true,602.7000002861023,2,g,h,4,,,
fw6,VDACtest,67,g,true,644.3999996185303,2,g,h,2,,,
fw6,VDACtest,68,g,true,594.8999996185303,1,r,v,4,,,
fw6,VDACtest,69,g,true,990.9000000953674,1,r,v,1,,,
fw6,VDACtest,70,g,true,644,1,r,h,5,,,
fw6,VDACtest,71,g,true,714.8999996185303,2,g,v,5,,,
fw6,VDACtest,72,g,true,626.9000000953674,1,r,v,5,,,
fw6,VDACtest,73,g,true,724,2,g,v,0,,,
fw6,VDACtest,74,g,true,938.5,1,r,h,3,,,
fw6,VDACtest,75,g,true,668,1,r,h,5,,,
fw6,VDACtest,76,g,true,955,1,r,h,1,,,
fw6,VDACtest,77,g,true,635.9000000953674,2,g,v,1,,,
fw6,VDACtest,78,g,true,651.8000001907349,1,r,v,0,,,
fw6,VDACtest,79,g,true,730.2999997138977,1,r,v,4,,,
fw6,VDACtest,80,g,true,690.5,1,r,h,0,,,
fw6,VDACtest,81,g,true,653.0999999046326,1,r,h,3,,,
fw6,VDACtest,82,g,true,659.0999999046326,2,g,h,5,,,
fw6,VDACtest,83,g,true,627.0999999046326,1,r,h,0,,,
fw6,VDACtest,84,g,true,741.5,2,g,h,4,,,
fw6,VDACtest,85,g,true,947,1,r,v,1,,,
fw6,VDACtest,86,g,true,578.4000000953674,1,r,h,4,,,
fw6,VDACtest,87,g,true,571.7999997138977,2,g,h,3,,,
fw6,VDACtest,88,g,true,571.5,1,r,v,4,,,
fw6,VDACtest,89,g,true,564.3000001907349,1,r,v,3,,,
fw6,VDACtest,90,g,true,660.3999996185303,1,r,h,4,,,
fw6,VDACtest,91,g,true,948.2000002861023,1,r,h,0,,,
fw6,VDACtest,92,g,true,478.2000002861023,2,g,h,3,,,
fw6,VDACtest,93,g,true,669.4000000953674,1,r,h,0,,,
fw6,VDACtest,94,g,true,793.5,2,g,v,1,,,
fw6,VDACtest,95,g,true,596.7000002861023,2,g,v,5,,,
fw6,VDACtest,96,g,true,620.4000000953674,2,g,v,4,,,
fw6,VDACtest,97,g,true,601.6000003814697,2,g,h,4,,,
fw6,VDACtest,98,g,true,587.8000001907349,1,r,v,4,,,
fw6,VDACtest,99,g,true,481.7999997138977,2,g,h,3,,,
fw6,VDACtest,100,g,true,948,1,r,v,1,,,
brk,brk,brk,brk,brk,brk,brk,brk,brk,brk,brk,brk,
fw6,VDACtest,101,g,true,930.0999999046326,2,g,h,3,,,
fw6,VDACtest,102,g,true,743.8000001907349,1,r,h,2,,,
fw6,VDACtest,103,g,true,755.4000000953674,2,g,h,5,,,
fw6,VDACtest,104,g,true,541.0999999046326,1,r,h,2,,,
fw6,VDACtest,105,g,true,738.5999999046326,1,r,h,5,,,
fw6,VDACtest,106,g,true,493,2,g,h,5,,,
fw6,VDACtest,107,g,true,586.3000001907349,2,g,v,1,,,
fw6,VDACtest,108,g,true,619.1999998092651,1,r,h,1,,,
fw6,VDACtest,109,g,true,451.7999997138977,2,g,h,1,,,
fw6,VDACtest,110,g,true,788.5999999046326,1,r,h,4,,,
fw6,VDACtest,111,g,true,522.9000000953674,2,g,h,5,,,
fw6,VDACtest,112,g,true,917.6999998092651,1,r,v,1,,,
fw6,VDACtest,113,g,true,666,1,r,v,4,,,
fw6,VDACtest,114,g,true,635.7000002861023,2,g,v,3,,,
fw6,VDACtest,115,g,true,640.0999999046326,2,g,v,1,,,
fw6,VDACtest,116,g,true,547.0999999046326,2,g,v,4,,,
fw6,VDACtest,117,g,true,642.0999999046326,2,g,h,3,,,
fw6,VDACtest,118,g,true,612,1,r,h,4,,,
fw6,VDACtest,119,g,true,616.9000000953674,1,r,h,3,,,
fw6,VDACtest,120,g,true,491.6000003814697,1,r,v,4,,,
fw6,VDACtest,121,g,true,507,2,g,v,4,,,
fw6,VDACtest,122,g,null,null,2,g,v,2,,,
fw6,VDACtest,123,g,true,503.1000003814697,2,g,v,4,,,
fw6,VDACtest,124,g,true,942.8999996185303,1,r,h,5,,,
fw6,VDACtest,125,g,true,651.5999999046326,1,r,v,3,,,
fw6,VDACtest,126,g,true,649.5,1,r,v,4,,,
fw6,VDACtest,127,g,true,724.5,2,g,h,0,,,
fw6,VDACtest,128,g,true,724.3000001907349,2,g,v,3,,,
fw6,VDACtest,129,g,true,602.2999997138977,2,g,h,5,,,
fw6,VDACtest,130,g,true,482.09999990463257,2,g,v,4,,,
fw6,VDACtest,131,g,true,682.2000002861023,2,g,h,2,,,
fw6,VDACtest,132,g,true,811.5,1,r,v,1,,,
fw6,VDACtest,133,g,true,691.5,2,g,v,5,,,
fw6,VDACtest,134,g,true,643.1999998092651,1,r,h,0,,,
fw6,VDACtest,135,g,true,546,2,g,h,1,,,
fw6,VDACtest,136,g,true,579.1999998092651,1,r,v,5,,,
fw6,VDACtest,137,g,true,628,2,g,v,1,,,
fw6,VDACtest,138,g,true,527.7999997138977,1,r,h,1,,,
fw6,VDACtest,139,g,true,772.1999998092651,1,r,h,4,,,
fw6,VDACtest,140,g,true,484.80000019073486,2,g,v,5,,,
fw6,VDACtest,141,g,true,594.9000000953674,2,g,v,4,,,
fw6,VDACtest,142,g,true,578.8000001907349,2,g,h,5,,,
fw6,VDACtest,143,g,false,548,2,g,v,5,,,
fw6,VDACtest,144,g,true,755.5999999046326,1,r,v,0,,,
fw6,VDACtest,145,g,true,707,1,r,h,5,,,
fw6,VDACtest,146,g,true,577.1999998092651,2,g,v,5,,,
fw6,VDACtest,147,g,true,594.9000000953674,1,r,h,2,,,
fw6,VDACtest,148,g,true,787.0999999046326,1,r,h,4,,,
fw6,VDACtest,149,g,true,681.3999996185303,1,r,v,3,,,
fw6,VDACtest,150,g,true,546.7000002861023,1,r,v,0,,,
brk,brk,brk,brk,brk,brk,brk,brk,brk,brk,brk,brk,
fw6,VDACtest,151,g,true,802.5,2,g,h,2,,,
fw6,VDACtest,152,g,true,490.40000009536743,2,g,v,0,,,
fw6,VDACtest,153,g,true,682.6000003814697,2,g,h,1,,,
fw6,VDACtest,154,g,true,500.80000019073486,1,r,v,0,,,
fw6,VDACtest,155,g,true,539.5,2,g,h,3,,,
fw6,VDACtest,156,g,true,516.1999998092651,1,r,v,0,,,
fw6,VDACtest,157,g,true,549.3000001907349,2,g,h,0,,,
fw6,VDACtest,158,g,true,744.8000001907349,1,r,v,2,,,
fw6,VDACtest,159,g,true,466.7999997138977,2,g,h,2,,,
fw6,VDACtest,160,g,true,525.0999999046326,1,r,h,2,,,
fw6,VDACtest,161,g,true,725.5999999046326,2,g,h,5,,,
fw6,VDACtest,162,g,true,610.7999997138977,2,g,h,4,,,
fw6,VDACtest,163,g,true,610.2000002861023,1,r,h,2,,,
fw6,VDACtest,164,g,true,651.1999998092651,2,g,h,0,,,
fw6,VDACtest,165,g,true,513.3000001907349,2,g,v,3,,,
fw6,VDACtest,166,g,true,536.9000000953674,2,g,h,0,,,
fw6,VDACtest,167,g,true,451.30000019073486,2,g,h,0,,,
fw6,VDACtest,168,g,true,731.3999996185303,1,r,v,2,,,
fw6,VDACtest,169,g,true,499.59999990463257,1,r,v,2,,,
fw6,VDACtest,170,g,true,595.5999999046326,2,g,v,5,,,
fw6,VDACtest,171,g,true,572.5999999046326,1,r,h,0,,,
fw6,VDACtest,172,g,true,491.8999996185303,2,g,h,0,,,
fw6,VDACtest,173,g,true,530.7000002861023,1,r,v,0,,,
fw6,VDACtest,174,g,true,690.5999999046326,1,r,v,2,,,
fw6,VDACtest,175,g,true,554.4000000953674,1,r,v,1,,,
fw6,VDACtest,176,g,true,539.2000002861023,2,g,h,4,,,
fw6,VDACtest,177,g,true,658.1000003814697,2,g,h,3,,,
fw6,VDACtest,178,g,false,523.0999999046326,1,r,h,1,,,
fw6,VDACtest,179,g,true,682.4000000953674,1,r,h,1,,,
fw6,VDACtest,180,g,true,589.7000002861023,1,r,v,0,,,
fw6,VDACtest,181,g,true,594.5999999046326,1,r,h,5,,,
fw6,VDACtest,182,g,true,536.5999999046326,2,g,v,1,,,
fw6,VDACtest,183,g,true,611.2000002861023,2,g,h,3,,,
fw6,VDACtest,184,g,true,618.6999998092651,1,r,h,1,,,
fw6,VDACtest,185,g,true,594.2999997138977,1,r,h,1,,,
fw6,VDACtest,186,g,true,635.0999999046326,2,g,v,0,,,
fw6,VDACtest,187,g,true,667,2,g,v,1,,,
fw6,VDACtest,188,g,true,588.5,1,r,v,1,,,
fw6,VDACtest,189,g,true,682.9000000953674,2,g,h,4,,,
fw6,VDACtest,190,g,true,612.4000000953674,2,g,v,4,,,
fw6,VDACtest,191,g,true,641.3000001907349,2,g,v,2,,,
fw6,VDACtest,192,g,true,531.3000001907349,2,g,v,4,,,
fw6,VDACtest,193,g,true,532.0999999046326,1,r,v,5,,,
fw6,VDACtest,194,g,true,664.8000001907349,2,g,h,4,,,
fw6,VDACtest,195,g,true,642.5999999046326,1,r,h,5,,,
fw6,VDACtest,196,g,true,578,2,g,v,3,,,
fw6,VDACtest,197,g,true,859.0999999046326,1,r,v,0,,,
fw6,VDACtest,198,g,true,636,1,r,v,1,,,
fw6,VDACtest,199,g,true,579.3000001907349,2,g,h,1,,,
fw6,VDACtest,200,g,true,506.69999980926514,2,g,h,1,,,
fw6,RSVPtrain,0,g,false,1979.4000000953674,0,b,,0,3,0,
fw6,RSVPtrain,0,g,true,1516.0999999046326,2,g,,1,0,1,
fw6,RSVPtrain,0,g,true,1500.8000001907349,0,b,,3,3,0,
fw6,RSVPtrain,0,g,true,895.5,1,r,,3,2,1,
fw6,RSVPtrain,0,g,false,965,1,r,,0,0,2,
fw6,RSVPtrain,0,g,false,1350.5999999046326,2,g,,2,2,2,
fw6,RSVPtrain,0,g,true,2126.2999997138977,1,r,,1,1,2,
fw6,RSVPtrain,0,g,true,1360,0,b,,1,3,0,
fw6,RSVPtrain,0,g,true,820.3999996185303,2,g,,3,0,1,
fw6,RSVPtrain,0,g,true,1166.5,2,g,,3,1,1,
fw6,RSVPtest,1,g,true,1880,1,r,,1,2,1,
fw6,RSVPtest,2,g,true,878.7999997138977,1,r,,3,0,1,
fw6,RSVPtest,3,g,false,1476.1000003814697,1,r,,3,2,1,
fw6,RSVPtest,4,g,true,2224.4000000953674,2,g,,0,0,2,
fw6,RSVPtest,5,g,false,1487.8000001907349,1,r,,3,1,1,
fw6,RSVPtest,6,g,true,868.5,1,r,,1,1,2,
fw6,RSVPtest,7,g,true,1053.2000002861023,2,g,,0,1,1,
fw6,RSVPtest,8,g,false,926,1,r,,0,0,2,
fw6,RSVPtest,9,g,true,1198.5999999046326,0,b,,0,3,0,
fw6,RSVPtest,10,g,true,1214.1999998092651,1,r,,3,1,1,
fw6,RSVPtest,11,g,false,901.1999998092651,1,r,,2,0,1,
fw6,RSVPtest,12,g,true,805.8000001907349,1,r,,3,2,1,
fw6,RSVPtest,13,g,false,1207.4000000953674,1,r,,2,0,1,
fw6,RSVPtest,14,g,true,780.7000002861023,1,r,,3,0,1,
fw6,RSVPtest,15,g,false,694.9000000953674,2,g,,2,0,1,
fw6,RSVPtest,16,g,true,1348.9000000953674,0,b,,0,3,0,
fw6,RSVPtest,17,g,true,1359.0999999046326,2,g,,2,1,1,
fw6,RSVPtest,18,g,true,992.8000001907349,2,g,,1,1,2,
fw6,RSVPtest,19,g,true,693.5999999046326,2,g,,3,0,1,
fw6,RSVPtest,20,g,true,1233.4000000953674,1,r,,2,2,2,
fw6,RSVPtest,21,g,true,1073.0999999046326,1,r,,3,0,1,
fw6,RSVPtest,22,g,true,829.2999997138977,2,g,,2,0,1,
fw6,RSVPtest,23,g,true,774.3000001907349,2,g,,3,1,1,
fw6,RSVPtest,24,g,true,860.4000000953674,0,b,,0,3,0,
fw6,RSVPtest,25,g,false,695.3000001907349,2,g,,3,0,1,
fw6,RSVPtest,26,g,true,525.0999999046326,0,b,,2,3,0,
fw6,RSVPtest,27,g,true,494.19999980926514,1,r,,1,2,1,
fw6,RSVPtest,28,g,false,671.7999997138977,1,r,,0,1,1,
fw6,RSVPtest,29,g,true,542.1000003814697,0,b,,0,3,0,
fw6,RSVPtest,30,g,true,565.9000000953674,1,r,,3,1,1,
fw6,RSVPtest,31,g,false,668.1999998092651,1,r,,1,0,1,
fw6,RSVPtest,32,g,false,819.5,0,b,,0,3,0,
fw6,RSVPtest,33,g,false,780.5,1,r,,0,2,1,
fw6,RSVPtest,34,g,false,629.8000001907349,2,g,,1,0,1,
fw6,RSVPtest,35,g,true,694.0999999046326,1,r,,2,2,2,
fw6,RSVPtest,36,g,false,644.4000000953674,1,r,,3,2,1,
fw6,RSVPtest,37,g,true,788.2999997138977,0,b,,3,3,0,
fw6,RSVPtest,38,g,true,1213.5,2,g,,0,1,1,
fw6,RSVPtest,39,g,true,853.9000000953674,1,r,,2,1,1,
fw6,RSVPtest,40,g,true,717.6999998092651,1,r,,3,0,1,
fw6,RSVPtest,41,g,true,587.0999999046326,2,g,,3,2,1,
fw6,RSVPtest,42,g,false,614,1,r,,3,2,1,
fw6,RSVPtest,43,g,true,661.8000001907349,2,g,,3,0,1,
fw6,RSVPtest,44,g,false,1498.1999998092651,2,g,,3,2,1,
fw6,RSVPtest,45,g,true,998,2,g,,0,2,1,
fw6,RSVPtest,46,g,true,939.5999999046326,2,g,,0,0,2,
fw6,RSVPtest,47,g,true,987.5,1,r,,1,0,1,
fw6,RSVPtest,48,g,true,815.7999997138977,2,g,,0,1,1,
fw6,RSVPtest,49,g,false,980,2,g,,0,2,1,
fw6,RSVPtest,50,g,true,1097.6999998092651,2,g,,3,1,1,
fw6,RSVPtest,51,g,true,1077.3000001907349,1,r,,2,2,2,
fw6,RSVPtest,52,g,true,1823.8000001907349,2,g,,2,2,2,
fw6,RSVPtest,53,g,true,1173.4000000953674,0,b,,1,3,0,
fw6,RSVPtest,54,g,true,893.5999999046326,1,r,,2,2,2,
fw6,RSVPtest,55,g,true,1097.5,1,r,,1,1,2,
fw6,RSVPtest,56,g,true,716.8000001907349,1,r,,0,2,1,
fw6,RSVPtest,57,g,true,621.6999998092651,1,r,,2,2,2,
fw6,RSVPtest,58,g,true,870.2000002861023,2,g,,1,1,2,
fw6,RSVPtest,59,g,true,574.6999998092651,1,r,,3,0,1,
fw6,RSVPtest,60,g,true,956.5,0,b,,1,3,0,
brk,brk,brk,brk,brk,brk,brk,brk,brk,brk,brk,brk,
fw6,RSVPtest,61,g,false,750.2999997138977,2,g,,3,2,1,
fw6,RSVPtest,62,g,true,955.3999996185303,1,r,,0,0,2,
fw6,RSVPtest,63,g,false,822.2000002861023,1,r,,3,0,1,
fw6,RSVPtest,64,g,false,2078.7999997138977,1,r,,0,2,1,
fw6,RSVPtest,65,g,false,1031.5,0,b,,2,3,0,
fw6,RSVPtest,66,g,true,778.9000000953674,0,b,,2,3,0,
fw6,RSVPtest,67,g,false,1277.3999996185303,2,g,,3,1,1,
fw6,RSVPtest,68,g,true,1293.1999998092651,1,r,,3,0,1,
fw6,RSVPtest,69,g,true,899.8000001907349,2,g,,2,2,2,
fw6,RSVPtest,70,g,true,743,2,g,,3,1,1,
fw6,RSVPtest,71,g,true,830.4000000953674,1,r,,3,2,1,
fw6,RSVPtest,72,g,true,1022.4000000953674,1,r,,0,1,1,
fw6,RSVPtest,73,g,true,780.0999999046326,0,b,,3,3,0,
fw6,RSVPtest,74,g,true,869.6000003814697,2,g,,1,0,1,
fw6,RSVPtest,75,g,false,724.9000000953674,0,b,,0,3,0,
fw6,RSVPtest,76,g,true,1410.4000000953674,2,g,,3,1,1,
fw6,RSVPtest,77,g,true,932.4000000953674,2,g,,3,0,1,
fw6,RSVPtest,78,g,true,1431.9000000953674,1,r,,2,0,1,
fw6,RSVPtest,79,g,true,723.1999998092651,1,r,,2,1,1,
fw6,RSVPtest,80,g,true,1140.3000001907349,2,g,,0,0,2,
fw6,RSVPtest,81,g,true,964,1,r,,0,0,2,
fw6,RSVPtest,82,g,true,704.7000002861023,1,r,,1,1,2,
fw6,RSVPtest,83,g,false,700.7000002861023,2,g,,3,1,1,
fw6,RSVPtest,84,g,true,1083.3999996185303,2,g,,2,1,1,
fw6,RSVPtest,85,g,true,642.9000000953674,2,g,,0,2,1,
fw6,RSVPtest,86,g,false,644.9000000953674,2,g,,0,0,2,
fw6,RSVPtest,87,g,true,916.5,0,b,,3,3,0,
fw6,RSVPtest,88,g,false,858.5,2,g,,1,1,2,
fw6,RSVPtest,89,g,true,840.3000001907349,1,r,,0,1,1,
fw6,RSVPtest,90,g,true,838.4000000953674,2,g,,2,2,2,
fw6,RSVPtest,91,g,true,652.6000003814697,0,b,,1,3,0,
fw6,RSVPtest,92,g,false,1491.4000000953674,1,r,,3,2,1,
fw6,RSVPtest,93,g,false,1044.8000001907349,1,r,,3,0,1,
fw6,RSVPtest,94,g,false,732.5999999046326,0,b,,3,3,0,
fw6,RSVPtest,95,g,true,658.5,2,g,,2,1,1,
fw6,RSVPtest,96,g,true,528.0999999046326,2,g,,0,1,1,
fw6,RSVPtest,97,g,true,500.69999980926514,1,r,,0,0,2,
fw6,RSVPtest,98,g,true,845,1,r,,2,1,1,
fw6,RSVPtest,99,g,true,731.7999997138977,2,g,,3,0,1,
fw6,RSVPtest,100,g,true,619.4000000953674,0,b,,2,3,0,
fw6,RSVPtest,101,g,false,1100.2999997138977,0,b,,3,3,0,
fw6,RSVPtest,102,g,false,796.5999999046326,1,r,,1,0,1,
fw6,RSVPtest,103,g,true,971.8000001907349,1,r,,0,0,2,
fw6,RSVPtest,104,g,true,801.3999996185303,0,b,,3,3,0,
fw6,RSVPtest,105,g,true,804.5,0,b,,3,3,0,
fw6,RSVPtest,106,g,true,1915.5,0,b,,3,3,0,
fw6,RSVPtest,107,g,true,706.2000002861023,0,b,,3,3,0,
fw6,RSVPtest,108,g,false,1446.7999997138977,2,g,,3,2,1,
fw6,RSVPtest,109,g,true,1154.9000000953674,2,g,,2,2,2,
fw6,RSVPtest,110,g,true,1210.5,2,g,,2,1,1,
fw6,RSVPtest,111,g,true,723.7000002861023,2,g,,3,1,1,
fw6,RSVPtest,112,g,true,803.5999999046326,1,r,,3,0,1,
fw6,RSVPtest,113,g,true,989.1000003814697,2,g,,1,1,2,
fw6,RSVPtest,114,g,true,707.6999998092651,1,r,,1,1,2,
fw6,RSVPtest,115,g,true,797.5,2,g,,2,1,1,
fw6,RSVPtest,116,g,true,565.0999999046326,2,g,,1,2,1,
fw6,RSVPtest,117,g,true,682.7999997138977,1,r,,1,0,1,
fw6,RSVPtest,118,g,false,789.3000001907349,1,r,,3,1,1,
fw6,RSVPtest,119,g,true,676.1999998092651,1,r,,3,2,1,
fw6,RSVPtest,120,g,true,675.8000001907349,0,b,,3,3,0,
brk,brk,brk,brk,brk,brk,brk,brk,brk,brk,brk,brk,
fw6,RSVPtest,121,g,true,941.2000002861023,2,g,,0,0,2,
fw6,RSVPtest,122,g,true,739.5,0,b,,2,3,0,
fw6,RSVPtest,123,g,true,475.59999990463257,2,g,,0,2,1,
fw6,RSVPtest,124,g,true,440.5,1,r,,0,0,2,
fw6,RSVPtest,125,g,false,838.3000001907349,2,g,,3,0,1,
fw6,RSVPtest,126,g,true,643.8000001907349,0,b,,3,3,0,
fw6,RSVPtest,127,g,true,1227.8000001907349,2,g,,1,1,2,
fw6,RSVPtest,128,g,true,595.3000001907349,0,b,,1,3,0,
fw6,RSVPtest,129,g,true,701.5,0,b,,3,3,0,
fw6,RSVPtest,130,g,true,628.1999998092651,2,g,,1,0,1,
fw6,RSVPtest,131,g,true,683.8000001907349,2,g,,0,2,1,
fw6,RSVPtest,132,g,false,657.5999999046326,2,g,,3,0,1,
fw6,RSVPtest,133,g,true,598.3000001907349,0,b,,3,3,0,
fw6,RSVPtest,134,g,true,663.5999999046326,1,r,,2,0,1,
fw6,RSVPtest,135,g,true,1137.6999998092651,1,r,,3,1,1,
fw6,RSVPtest,136,g,true,949.6999998092651,1,r,,2,1,1,
fw6,RSVPtest,137,g,true,1017.4000000953674,1,r,,3,2,1,
fw6,RSVPtest,138,g,true,924.5,1,r,,3,0,1,
fw6,RSVPtest,139,g,false,988.8999996185303,0,b,,2,3,0,
fw6,RSVPtest,140,g,true,1016.3000001907349,0,b,,2,3,0,
fw6,RSVPtest,141,g,false,1531.5,1,r,,3,1,1,
fw6,RSVPtest,142,g,true,715.8000001907349,1,r,,3,1,1,
fw6,RSVPtest,143,g,true,669.9000000953674,1,r,,3,2,1,
fw6,RSVPtest,144,g,true,2066.5,2,g,,1,0,1,
fw6,RSVPtest,145,g,false,1954.0999999046326,2,g,,3,0,1,
fw6,RSVPtest,146,g,true,919.8999996185303,0,b,,0,3,0,
fw6,RSVPtest,147,g,false,1467.5,2,g,,3,2,1,
fw6,RSVPtest,148,g,false,825.7999997138977,0,b,,0,3,0,
fw6,RSVPtest,149,g,false,1052.8000001907349,1,r,,3,1,1,
fw6,RSVPtest,150,g,false,911.0999999046326,0,b,,2,3,0,
fw6,RSVPtest,151,g,true,697.7000002861023,2,g,,1,2,1,
fw6,RSVPtest,152,g,true,418.40000009536743,2,g,,0,1,1,
fw6,RSVPtest,153,g,false,762.7000002861023,0,b,,3,3,0,
fw6,RSVPtest,154,g,true,1257.5999999046326,0,b,,2,3,0,
fw6,RSVPtest,155,g,true,619.2999997138977,2,g,,1,2,1,
fw6,RSVPtest,156,g,true,698,1,r,,3,1,1,
fw6,RSVPtest,157,g,false,1010.5,2,g,,2,2,2,
fw6,RSVPtest,158,g,true,708.4000000953674,2,g,,1,2,1,
fw6,RSVPtest,159,g,false,803.2999997138977,0,b,,1,3,0,
fw6,RSVPtest,160,g,true,691.1999998092651,2,g,,3,2,1,
fw6,RSVPtest,161,g,true,771,0,b,,2,3,0,
fw6,RSVPtest,162,g,true,729.0999999046326,2,g,,3,2,1,
fw6,RSVPtest,163,g,true,890,2,g,,2,0,1,
fw6,RSVPtest,164,g,true,817.7000002861023,2,g,,3,1,1,
fw6,RSVPtest,165,g,true,618,1,r,,0,1,1,
fw6,RSVPtest,166,g,true,446.8999996185303,0,b,,0,3,0,
fw6,RSVPtest,167,g,true,516,2,g,,2,1,1,
fw6,RSVPtest,168,g,false,603.2000002861023,1,r,,3,0,1,
fw6,RSVPtest,169,g,false,595.0999999046326,2,g,,3,0,1,
fw6,RSVPtest,170,g,true,620.5999999046326,1,r,,1,2,1,
fw6,RSVPtest,171,g,true,538.5999999046326,0,b,,1,3,0,
fw6,RSVPtest,172,g,true,624.3999996185303,2,g,,3,2,1,
fw6,RSVPtest,173,g,true,692.2000002861023,2,g,,3,0,1,
fw6,RSVPtest,174,g,true,547.9000000953674,0,b,,1,3,0,
fw6,RSVPtest,175,g,false,716.2000002861023,1,r,,1,1,2,
fw6,RSVPtest,176,g,false,641.9000000953674,2,g,,1,2,1,
fw6,RSVPtest,177,g,true,524.6000003814697,0,b,,0,3,0,
fw6,RSVPtest,178,g,true,790.9000000953674,0,b,,3,3,0,
fw6,RSVPtest,179,g,false,1415.3000001907349,2,g,,3,1,1,
fw6,RSVPtest,180,g,true,636.7999997138977,1,r,,0,2,1,
brk,brk,brk,brk,brk,brk,brk,brk,brk,brk,brk,brk,
fw6,RSVPtest,181,g,true,1101.1999998092651,1,r,,1,0,1,
fw6,RSVPtest,182,g,false,1092.5,0,b,,3,3,0,
fw6,RSVPtest,183,g,false,737.1999998092651,2,g,,2,0,1,
fw6,RSVPtest,184,g,false,924.6000003814697,0,b,,3,3,0,
fw6,RSVPtest,185,g,true,676.0999999046326,0,b,,3,3,0,
fw6,RSVPtest,186,g,false,634.6999998092651,2,g,,3,0,1,
fw6,RSVPtest,187,g,true,562.5999999046326,2,g,,1,1,2,
fw6,RSVPtest,188,g,false,805.8999996185303,2,g,,1,0,1,
fw6,RSVPtest,189,g,true,587.3000001907349,1,r,,3,1,1,
fw6,RSVPtest,190,g,false,794.8000001907349,1,r,,1,2,1,
fw6,RSVPtest,191,g,false,702.6000003814697,1,r,,0,2,1,
fw6,RSVPtest,192,g,true,533.1999998092651,1,r,,1,0,1,
fw6,RSVPtest,193,g,true,650.8000001907349,2,g,,3,1,1,
fw6,RSVPtest,194,g,true,666.3000001907349,2,g,,3,2,1,
fw6,RSVPtest,195,g,true,686.7999997138977,0,b,,1,3,0,
fw6,RSVPtest,196,g,true,563.8000001907349,0,b,,3,3,0,
fw6,RSVPtest,197,g,true,767.7000002861023,1,r,,0,1,1,
fw6,RSVPtest,198,g,true,681.9000000953674,1,r,,1,2,1,
fw6,RSVPtest,199,g,false,593.5999999046326,0,b,,3,3,0,
fw6,RSVPtest,200,g,true,602.4000000953674,0,b,,1,3,0,
fw6,RSVPtest,201,g,true,682.2000002861023,2,g,,3,0,1,
fw6,RSVPtest,202,g,true,521.5999999046326,0,b,,3,3,0,
fw6,RSVPtest,203,g,true,729,2,g,,3,2,1,
fw6,RSVPtest,204,g,true,785.3000001907349,0,b,,3,3,0,
fw6,RSVPtest,205,g,true,698.8999996185303,0,b,,3,3,0,
fw6,RSVPtest,206,g,true,922.8000001907349,1,r,,1,2,1,
fw6,RSVPtest,207,g,true,810.0999999046326,1,r,,1,1,2,
fw6,RSVPtest,208,g,true,612.5,0,b,,0,3,0,
fw6,RSVPtest,209,g,true,625.8000001907349,1,r,,0,2,1,
fw6,RSVPtest,210,g,true,1000.5999999046326,1,r,,2,1,1,
fw6,RSVPtest,211,g,true,747.0999999046326,2,g,,0,0,2,
fw6,RSVPtest,212,g,true,530.0999999046326,2,g,,3,1,1,
fw6,RSVPtest,213,g,true,851.3000001907349,1,r,,0,1,1,
fw6,RSVPtest,214,g,true,847.2999997138977,2,g,,2,0,1,
fw6,RSVPtest,215,g,true,473.5,0,b,,2,3,0,
fw6,RSVPtest,216,g,true,488.69999980926514,2,g,,0,1,1,
fw6,RSVPtest,217,g,true,667.0999999046326,1,r,,3,1,1,
fw6,RSVPtest,218,g,false,609.0999999046326,2,g,,3,2,1,
fw6,RSVPtest,219,g,true,555.1000003814697,0,b,,2,3,0,
fw6,RSVPtest,220,g,false,495.80000019073486,1,r,,2,1,1,
fw6,RSVPtest,221,g,true,699.0999999046326,1,r,,2,2,2,
fw6,RSVPtest,222,g,true,543,1,r,,3,2,1,
fw6,RSVPtest,223,g,false,576.1999998092651,1,r,,3,0,1,
fw6,RSVPtest,224,g,true,850.5,0,b,,1,3,0,
fw6,RSVPtest,225,g,true,640,0,b,,3,3,0,
fw6,RSVPtest,226,g,true,676.5999999046326,0,b,,1,3,0,
fw6,RSVPtest,227,g,false,569.9000000953674,2,g,,2,2,2,
fw6,RSVPtest,228,g,true,674.7000002861023,2,g,,1,2,1,
fw6,RSVPtest,229,g,true,408.7999997138977,2,g,,0,2,1,
fw6,RSVPtest,230,g,true,691.0999999046326,1,r,,2,0,1,
fw6,RSVPtest,231,g,true,548.2999997138977,1,r,,2,0,1,
fw6,RSVPtest,232,g,false,834.5999999046326,1,r,,3,2,1,
fw6,RSVPtest,233,g,false,531.3000001907349,2,g,,1,0,1,
fw6,RSVPtest,234,g,false,754.1999998092651,1,r,,3,1,1,
fw6,RSVPtest,235,g,true,770.4000000953674,0,b,,1,3,0,
fw6,RSVPtest,236,g,true,794.6999998092651,2,g,,3,1,1,
fw6,RSVPtest,237,g,true,632,0,b,,0,3,0,
fw6,RSVPtest,238,g,true,1253.5999999046326,2,g,,2,0,1,
fw6,RSVPtest,239,g,true,690,1,r,,3,2,1,
fw6,RSVPtest,240,g,true,1345.9000000953674,2,g,,3,2,1,
subID,trialType,trialNum,cntBalance,correct,rt,rwdType,tgtCol,tgtDir,tgtPos,colPos,colMatch,
gd6,VDACtrain,0,g,null,null,1,r,v,3,,,
gd6,VDACtrain,0,g,true,549.3999998569489,2,g,v,5,,,
gd6,VDACtrain,0,g,false,561.3000001907349,2,g,v,2,,,
gd6,VDACtrain,0,g,true,488.90000009536743,1,r,h,0,,,
gd6,VDACtrain,0,g,null,null,1,r,h,1,,,
gd6,VDACtrain,0,g,true,511.7000000476837,2,g,h,3,,,
gd6,VDACtrain,0,g,true,471.90000009536743,2,g,v,0,,,
gd6,VDACtrain,0,g,false,542.7999999523163,1,r,v,4,,,
gd6,VDACtrain,0,g,true,769.5,2,g,h,5,,,
gd6,VDACtrain,0,g,true,465.2999999523163,1,r,h,2,,,
gd6,VDACtrain,0,g,true,459.39999985694885,2,g,v,5,,,
gd6,VDACtrain,0,g,true,456.5,1,r,v,4,,,
gd6,VDACtrain,0,g,true,447.80000019073486,2,g,v,0,,,
gd6,VDACtrain,0,g,true,465.19999980926514,1,r,h,1,,,
gd6,VDACtrain,0,g,true,577.6000001430511,2,g,h,3,,,
gd6,VDACtrain,0,g,true,567,2,g,h,5,,,
gd6,VDACtrain,0,g,false,458.2000000476837,2,g,v,2,,,
gd6,VDACtrain,0,g,true,696.7000000476837,1,r,v,3,,,
gd6,VDACtrain,0,g,true,623.9000000953674,1,r,h,0,,,
gd6,VDACtrain,0,g,true,481.2999999523163,1,r,h,2,,,
gd6,VDACtest,1,g,true,380.2000000476837,2,g,v,4,,,
gd6,VDACtest,2,g,true,489.40000009536743,1,r,v,5,,,
gd6,VDACtest,3,g,true,534.6999998092651,2,g,h,1,,,
gd6,VDACtest,4,g,true,497.7000000476837,1,r,h,1,,,
gd6,VDACtest,5,g,true,457.09999990463257,2,g,v,0,,,
gd6,VDACtest,6,g,true,1000.3000001907349,1,r,h,4,,,
gd6,VDACtest,7,g,false,473.10000014305115,2,g,v,2,,,
gd6,VDACtest,8,g,true,602.2000000476837,2,g,v,1,,,
gd6,VDACtest,9,g,true,480.40000009536743,1,r,v,4,,,
gd6,VDACtest,10,g,true,375.90000009536743,1,r,v,4,,,
gd6,VDACtest,11,g,true,417.90000009536743,2,g,h,2,,,
gd6,VDACtest,12,g,true,448,2,g,v,5,,,
gd6,VDACtest,13,g,true,415.40000009536743,1,r,h,5,,,
gd6,VDACtest,14,g,true,520.7000000476837,1,r,v,2,,,
gd6,VDACtest,15,g,true,616.7000000476837,2,g,v,0,,,
gd6,VDACtest,16,g,true,451,1,r,h,4,,,
gd6,VDACtest,17,g,true,393.7999999523163,1,r,v,5,,,
gd6,VDACtest,18,g,true,543,1,r,h,0,,,
gd6,VDACtest,19,g,true,788.6000001430511,2,g,v,3,,,
gd6,VDACtest,20,g,false,425.90000009536743,1,r,v,4,,,
gd6,VDACtest,21,g,true,680.2000000476837,1,r,h,3,,,
gd6,VDACtest,22,g,true,688,1,r,h,3,,,
gd6,VDACtest,23,g,true,561.1000001430511,2,g,h,1,,,
gd6,VDACtest,24,g,true,617.4000000953674,1,r,h,0,,,
gd6,VDACtest,25,g,true,665.6000001430511,1,r,v,3,,,
gd6,VDACtest,26,g,true,615.1000001430511,2,g,h,0,,,
gd6,VDACtest,27,g,true,505.19999980926514,2,g,h,3,,,
gd6,VDACtest,28,g,true,760.0999999046326,1,r,v,3,,,
gd6,VDACtest,29,g,true,592.5,1,r,v,3,,,
gd6,VDACtest,30,g,true,400,2,g,h,1,,,
gd6,VDACtest,31,g,true,442.2000000476837,1,r,h,3,,,
gd6,VDACtest,32,g,true,440.7999999523163,2,g,v,4,,,
gd6,VDACtest,33,g,true,687.2999999523163,2,g,h,1,,,
gd6,VDACtest,34,g,true,577.2000000476837,2,g,h,5,,,
gd6,VDACtest,35,g,true,561.6000001430511,2,g,v,3,,,
gd6,VDACtest,36,g,true,520.7999999523163,2,g,h,1,,,
gd6,VDACtest,37,g,null,null,1,r,h,2,,,
gd6,VDACtest,38,g,true,810.7000000476837,1,r,h,1,,,
gd6,VDACtest,39,g,true,823.3999998569489,1,r,v,3,,,
gd6,VDACtest,40,g,true,496.89999985694885,2,g,h,0,,,
gd6,VDACtest,41,g,true,641,1,r,h,4,,,
gd6,VDACtest,42,g,true,526.2999999523163,2,g,h,0,,,
gd6,VDACtest,43,g,true,510.7999999523163,2,g,h,3,,,
gd6,VDACtest,44,g,true,409.90000009536743,1,r,v,0,,,
gd6,VDACtest,45,g,true,718.3000001907349,1,r,h,4,,,
gd6,VDACtest,46,g,true,584.2000000476837,2,g,v,2,,,
gd6,VDACtest,47,g,false,879.6999998092651,1,r,v,1,,,
gd6,VDACtest,48,g,true,601.9000000953674,2,g,v,2,,,
gd6,VDACtest,49,g,true,480.2000000476837,2,g,h,4,,,
gd6,VDACtest,50,g,true,865.7999999523163,2,g,h,4,,,
brk,brk,brk,brk,brk,brk,brk,brk,brk,brk,brk,brk,
gd6,VDACtest,51,g,true,781.5999999046326,1,r,v,1,,,
gd6,VDACtest,52,g,true,472.90000009536743,2,g,v,1,,,
gd6,VDACtest,53,g,true,496.80000019073486,2,g,v,3,,,
gd6,VDACtest,54,g,false,442,2,g,h,3,,,
gd6,VDACtest,55,g,true,496.2000000476837,2,g,h,2,,,
gd6,VDACtest,56,g,false,488.59999990463257,1,r,v,2,,,
gd6,VDACtest,57,g,true,953.5999999046326,2,g,h,4,,,
gd6,VDACtest,58,g,true,623.7000000476837,1,r,h,2,,,
gd6,VDACtest,59,g,true,585,2,g,h,0,,,
gd6,VDACtest,60,g,true,499.2000000476837,1,r,h,0,,,
gd6,VDACtest,61,g,true,464.80000019073486,1,r,v,0,,,
gd6,VDACtest,62,g,true,632.3000001907349,2,g,h,1,,,
gd6,VDACtest,63,g,true,471.2999999523163,2,g,v,1,,,
gd6,VDACtest,64,g,true,409.7999999523163,2,g,h,2,,,
gd6,VDACtest,65,g,true,658.1000001430511,1,r,v,0,,,
gd6,VDACtest,66,g,true,496.69999980926514,2,g,v,4,,,
gd6,VDACtest,67,g,true,440.5,1,r,h,1,,,
gd6,VDACtest,68,g,true,705.9000000953674,1,r,h,2,,,
gd6,VDACtest,69,g,true,349.09999990463257,1,r,v,0,,,
gd6,VDACtest,70,g,true,665.2000000476837,2,g,h,4,,,
gd6,VDACtest,71,g,false,472.10000014305115,2,g,v,2,,,
gd6,VDACtest,72,g,true,457.2999999523163,1,r,v,0,,,
gd6,VDACtest,73,g,true,504.7000000476837,2,g,v,0,,,
gd6,VDACtest,74,g,true,601,1,r,v,3,,,
gd6,VDACtest,75,g,true,480.2999999523163,2,g,v,1,,,
gd6,VDACtest,76,g,true,504.60000014305115,1,r,v,0,,,
gd6,VDACtest,77,g,true,634.4000000953674,1,r,h,1,,,
gd6,VDACtest,78,g,true,688.6000001430511,1,r,v,4,,,
gd6,VDACtest,79,g,true,440.09999990463257,2,g,h,2,,,
gd6,VDACtest,80,g,true,400.5,1,r,v,2,,,
gd6,VDACtest,81,g,true,407.39999985694885,1,r,h,1,,,
gd6,VDACtest,82,g,true,398.60000014305115,2,g,v,1,,,
gd6,VDACtest,83,g,true,585.8999998569489,2,g,v,2,,,
gd6,VDACtest,84,g,true,528.6000001430511,1,r,v,2,,,
gd6,VDACtest,85,g,true,520.8000001907349,2,g,h,5,,,
gd6,VDACtest,86,g,true,535.5,1,r,v,2,,,
gd6,VDACtest,87,g,true,601.5,1,r,v,5,,,
gd6,VDACtest,88,g,true,641.3999998569489,1,r,h,5,,,
gd6,VDACtest,89,g,true,649.0999999046326,1,r,v,1,,,
gd6,VDACtest,90,g,true,496.59999990463257,1,r,v,4,,,
gd6,VDACtest,91,g,true,575.5,1,r,v,2,,,
gd6,VDACtest,92,g,true,504.2000000476837,1,r,h,4,,,
gd6,VDACtest,93,g,true,600.7000000476837,2,g,v,3,,,
gd6,VDACtest,94,g,true,512,2,g,v,4,,,
gd6,VDACtest,95,g,true,393.2999999523163,2,g,v,4,,,
gd6,VDACtest,96,g,true,528.6999998092651,2,g,h,4,,,
gd6,VDACtest,97,g,true,656.7000000476837,2,g,v,0,,,
gd6,VDACtest,98,g,true,504.2000000476837,2,g,v,5,,,
gd6,VDACtest,99,g,true,457.10000014305115,1,r,h,1,,,
gd6,VDACtest,100,g,true,688.4000000953674,2,g,h,5,,,
brk,brk,brk,brk,brk,brk,brk,brk,brk,brk,brk,brk,
gd6,VDACtest,101,g,true,587.5999999046326,1,r,h,2,,,
gd6,VDACtest,102,g,true,422.7999999523163,1,r,v,1,,,
gd6,VDACtest,103,g,true,455.7999999523163,2,g,v,1,,,
gd6,VDACtest,104,g,true,385.10000014305115,1,r,h,2,,,
gd6,VDACtest,105,g,true,631.2999999523163,1,r,h,3,,,
gd6,VDACtest,106,g,true,632.7000000476837,1,r,h,3,,,
gd6,VDACtest,107,g,true,633.2000000476837,1,r,h,5,,,
gd6,VDACtest,108,g,true,455.10000014305115,1,r,v,1,,,
gd6,VDACtest,109,g,true,585.4000000953674,2,g,v,1,,,
gd6,VDACtest,110,g,true,423.5,1,r,h,2,,,
gd6,VDACtest,111,g,true,496.2000000476837,1,r,v,5,,,
gd6,VDACtest,112,g,true,408.2999999523163,1,r,h,5,,,
gd6,VDACtest,113,g,true,472.10000014305115,1,r,v,4,,,
gd6,VDACtest,114,g,true,607.8000001907349,1,r,v,5,,,
gd6,VDACtest,115,g,true,584.4000000953674,1,r,h,4,,,
gd6,VDACtest,116,g,true,615.7999999523163,1,r,h,5,,,
gd6,VDACtest,117,g,true,577.0999999046326,1,r,v,3,,,
gd6,VDACtest,118,g,true,606.5,1,r,v,2,,,
gd6,VDACtest,119,g,true,553.7000000476837,2,g,h,0,,,
gd6,VDACtest,120,g,true,544.5999999046326,2,g,h,0,,,
gd6,VDACtest,121,g,true,463.7999999523163,2,g,v,4,,,
gd6,VDACtest,122,g,true,608.1000001430511,2,g,h,0,,,
gd6,VDACtest,123,g,true,809.9000000953674,1,r,h,4,,,
gd6,VDACtest,124,g,true,480.59999990463257,1,r,h,0,,,
gd6,VDACtest,125,g,false,536.7999999523163,1,r,v,1,,,
gd6,VDACtest,126,g,true,497.2999999523163,1,r,h,5,,,
gd6,VDACtest,127,g,true,680.2000000476837,2,g,h,3,,,
gd6,VDACtest,128,g,true,416.09999990463257,2,g,v,0,,,
gd6,VDACtest,129,g,null,null,1,r,v,2,,,
gd6,VDACtest,130,g,true,558.5,1,r,h,0,,,
gd6,VDACtest,131,g,true,760.0999999046326,2,g,h,2,,,
gd6,VDACtest,132,g,true,412.2000000476837,1,r,v,5,,,
gd6,VDACtest,133,g,true,496.7999999523163,2,g,v,2,,,
gd6,VDACtest,134,g,true,712.2000000476837,1,r,h,4,,,
gd6,VDACtest,135,g,true,439.09999990463257,2,g,v,0,,,
gd6,VDACtest,136,g,true,519.9000000953674,1,r,h,1,,,
gd6,VDACtest,137,g,true,566.5,1,r,h,3,,,
gd6,VDACtest,138,g,true,536.4000000953674,2,g,v,4,,,
gd6,VDACtest,139,g,true,455.60000014305115,2,g,h,4,,,
gd6,VDACtest,140,g,true,783.9000000953674,2,g,v,2,,,
gd6,VDACtest,141,g,true,480.90000009536743,2,g,v,0,,,
gd6,VDACtest,142,g,true,583.4000000953674,1,r,h,1,,,
gd6,VDACtest,143,g,true,408.7000000476837,1,r,h,5,,,
gd6,VDACtest,144,g,true,536.4000000953674,1,r,v,4,,,
gd6,VDACtest,145,g,true,505.5,1,r,v,0,,,
gd6,VDACtest,146,g,true,417.09999990463257,1,r,h,0,,,
gd6,VDACtest,147,g,true,519.1000001430511,1,r,v,5,,,
gd6,VDACtest,148,g,true,455.90000009536743,1,r,v,5,,,
gd6,VDACtest,149,g,true,522.1000001430511,1,r,h,2,,,
gd6,VDACtest,150,g,false,711.8999998569489,2,g,h,1,,,
brk,brk,brk,brk,brk,brk,brk,brk,brk,brk,brk,brk,
gd6,VDACtest,151,g,true,569.8999998569489,1,r,v,1,,,
gd6,VDACtest,152,g,true,401.5,2,g,h,5,,,
gd6,VDACtest,153,g,true,400.39999985694885,2,g,v,5,,,
gd6,VDACtest,154,g,true,337.40000009536743,2,g,h,5,,,
gd6,VDACtest,155,g,true,616.9000000953674,2,g,h,1,,,
gd6,VDACtest,156,g,true,528.8000001907349,2,g,h,2,,,
gd6,VDACtest,157,g,true,761.1000001430511,1,r,h,3,,,
gd6,VDACtest,158,g,true,544.7999999523163,1,r,v,4,,,
gd6,VDACtest,159,g,true,567.5,1,r,v,4,,,
gd6,VDACtest,160,g,true,544.5,2,g,h,4,,,
gd6,VDACtest,161,g,true,592.2000000476837,2,g,h,5,,,
gd6,VDACtest,162,g,true,647.9000000953674,1,r,h,1,,,
gd6,VDACtest,163,g,true,544.1999998092651,1,r,h,0,,,
gd6,VDACtest,164,g,true,392.40000009536743,2,g,v,5,,,
gd6,VDACtest,165,g,true,489.59999990463257,1,r,h,3,,,
gd6,VDACtest,166,g,true,504.59999990463257,2,g,h,2,,,
gd6,VDACtest,167,g,true,512.3999998569489,2,g,v,4,,,
gd6,VDACtest,168,g,true,424.60000014305115,2,g,h,3,,,
gd6,VDACtest,169,g,true,433.5,2,g,v,3,,,
gd6,VDACtest,170,g,true,392.2000000476837,2,g,v,3,,,
gd6,VDACtest,171,g,true,439,1,r,v,3,,,
gd6,VDACtest,172,g,true,480.39999985694885,2,g,v,4,,,
gd6,VDACtest,173,g,true,406.69999980926514,2,g,h,3,,,
gd6,VDACtest,174,g,true,426.2000000476837,2,g,v,5,,,
gd6,VDACtest,175,g,true,376.5,2,g,h,3,,,
gd6,VDACtest,176,g,true,688.2000000476837,2,g,h,2,,,
gd6,VDACtest,177,g,true,409.10000014305115,2,g,v,1,,,
gd6,VDACtest,178,g,true,439.90000009536743,1,r,h,5,,,
gd6,VDACtest,179,g,true,505.10000014305115,2,g,h,3,,,
gd6,VDACtest,180,g,true,393.2000000476837,1,r,v,1,,,
gd6,VDACtest,181,g,true,463.40000009536743,2,g,v,3,,,
gd6,VDACtest,182,g,true,486.5,2,g,v,2,,,
gd6,VDACtest,183,g,true,551.5,2,g,v,5,,,
gd6,VDACtest,184,g,true,496.7999999523163,2,g,h,5,,,
gd6,VDACtest,185,g,true,655.8999998569489,2,g,h,1,,,
gd6,VDACtest,186,g,true,393,2,g,v,0,,,
gd6,VDACtest,187,g,true,416.2000000476837,2,g,h,0,,,
gd6,VDACtest,188,g,true,535,2,g,h,4,,,
gd6,VDACtest,189,g,true,461.7999999523163,2,g,v,5,,,
gd6,VDACtest,190,g,true,478.40000009536743,2,g,v,3,,,
gd6,VDACtest,191,g,true,656.5,1,r,v,0,,,
gd6,VDACtest,192,g,true,456.80000019073486,2,g,h,5,,,
gd6,VDACtest,193,g,true,624,1,r,h,0,,,
gd6,VDACtest,194,g,true,647.0999999046326,1,r,h,2,,,
gd6,VDACtest,195,g,false,681,2,g,h,4,,,
gd6,VDACtest,196,g,true,576.5999999046326,1,r,h,4,,,
gd6,VDACtest,197,g,true,584.5,2,g,v,1,,,
gd6,VDACtest,198,g,true,617.2000000476837,2,g,v,5,,,
gd6,VDACtest,199,g,true,617.3999998569489,1,r,v,1,,,
gd6,VDACtest,200,g,true,703.5,1,r,v,3,,,
gd6,RSVPtrain,0,g,false,1385.5,2,g,,1,0,1,
gd6,RSVPtrain,0,g,true,1610.5,1,r,,1,1,2,
gd6,RSVPtrain,0,g,false,1314.3999998569489,0,b,,1,3,0,
gd6,RSVPtrain,0,g,true,1656.7999999523163,1,r,,0,0,2,
gd6,RSVPtrain,0,g,false,2018.3999998569489,0,b,,0,3,0,
gd6,RSVPtrain,0,g,true,818.7999999523163,2,g,,2,2,2,
gd6,RSVPtrain,0,g,true,1227.7000000476837,2,g,,3,1,1,
gd6,RSVPtrain,0,g,true,985.5,0,b,,3,3,0,
gd6,RSVPtrain,0,g,true,1067.5,1,r,,3,2,1,
gd6,RSVPtrain,0,g,true,879.6999998092651,2,g,,3,0,1,
gd6,RSVPtest,1,g,true,814.4000000953674,0,b,,1,3,0,
gd6,RSVPtest,2,g,true,1483,0,b,,3,3,0,
gd6,RSVPtest,3,g,true,953.6999998092651,1,r,,3,1,1,
gd6,RSVPtest,4,g,true,795.2000000476837,2,g,,3,0,1,
gd6,RSVPtest,5,g,false,973.7000000476837,2,g,,2,0,1,
gd6,RSVPtest,6,g,false,2010.8999998569489,0,b,,2,3,0,
gd6,RSVPtest,7,g,true,813.2999999523163,1,r,,3,1,1,
gd6,RSVPtest,8,g,true,804.3000001907349,1,r,,3,0,1,
gd6,RSVPtest,9,g,true,715.0999999046326,2,g,,3,2,1,
gd6,RSVPtest,10,g,true,1940,0,b,,2,3,0,
gd6,RSVPtest,11,g,true,959.1999998092651,2,g,,3,2,1,
gd6,RSVPtest,12,g,true,1307.5,0,b,,0,3,0,
gd6,RSVPtest,13,g,true,1065.6999998092651,2,g,,3,0,1,
gd6,RSVPtest,14,g,true,1108.7000000476837,0,b,,2,3,0,
gd6,RSVPtest,15,g,true,1004.5,1,r,,2,0,1,
gd6,RSVPtest,16,g,true,890.7999999523163,2,g,,0,0,2,
gd6,RSVPtest,17,g,true,929.7000000476837,2,g,,3,0,1,
gd6,RSVPtest,18,g,true,1187.1000001430511,0,b,,1,3,0,
gd6,RSVPtest,19,g,true,819.5,1,r,,1,2,1,
gd6,RSVPtest,20,g,true,840.5,1,r,,3,1,1,
gd6,RSVPtest,21,g,null,null,2,g,,0,2,1,
gd6,RSVPtest,22,g,true,768.7000000476837,2,g,,1,1,2,
gd6,RSVPtest,23,g,true,594.5999999046326,2,g,,0,1,1,
gd6,RSVPtest,24,g,false,1019.2000000476837,2,g,,0,1,1,
gd6,RSVPtest,25,g,true,948.4000000953674,1,r,,0,1,1,
gd6,RSVPtest,26,g,true,1323.7000000476837,1,r,,1,1,2,
gd6,RSVPtest,27,g,true,745.1999998092651,2,g,,3,2,1,
gd6,RSVPtest,28,g,true,875.2000000476837,1,r,,3,1,1,
gd6,RSVPtest,29,g,true,780,1,r,,3,0,1,
gd6,RSVPtest,30,g,true,803.2000000476837,1,r,,3,1,1,
gd6,RSVPtest,31,g,true,731.6999998092651,1,r,,3,1,1,
gd6,RSVPtest,32,g,false,896.6000001430511,1,r,,3,2,1,
gd6,RSVPtest,33,g,false,715.2000000476837,2,g,,0,2,1,
gd6,RSVPtest,34,g,true,747.6000001430511,0,b,,0,3,0,
gd6,RSVPtest,35,g,true,968.1000001430511,0,b,,0,3,0,
gd6,RSVPtest,36,g,true,1107.5,1,r,,3,2,1,
gd6,RSVPtest,37,g,false,1108.0999999046326,1,r,,2,0,1,
gd6,RSVPtest,38,g,true,938.1000001430511,2,g,,2,0,1,
gd6,RSVPtest,39,g,false,1098.1999998092651,2,g,,3,1,1,
gd6,RSVPtest,40,g,true,897.5,1,r,,3,0,1,
gd6,RSVPtest,41,g,true,1274.7999999523163,1,r,,0,1,1,
gd6,RSVPtest,42,g,true,889.7000000476837,2,g,,3,1,1,
gd6,RSVPtest,43,g,true,770.5999999046326,0,b,,3,3,0,
gd6,RSVPtest,44,g,true,921.7999999523163,0,b,,1,3,0,
gd6,RSVPtest,45,g,true,1074.7999999523163,0,b,,2,3,0,
gd6,RSVPtest,46,g,false,1240.8999998569489,2,g,,2,1,1,
gd6,RSVPtest,47,g,true,930,2,g,,0,1,1,
gd6,RSVPtest,48,g,false,2112.2999999523163,1,r,,3,0,1,
gd6,RSVPtest,49,g,false,1537.5,1,r,,3,2,1,
gd6,RSVPtest,50,g,true,889.7999999523163,1,r,,2,1,1,
gd6,RSVPtest,51,g,true,940.7999999523163,1,r,,1,0,1,
gd6,RSVPtest,52,g,true,855.2000000476837,1,r,,3,0,1,
gd6,RSVPtest,53,g,false,809,1,r,,0,2,1,
gd6,RSVPtest,54,g,true,1105.7999999523163,0,b,,1,3,0,
gd6,RSVPtest,55,g,true,1195.2000000476837,2,g,,3,2,1,
gd6,RSVPtest,56,g,true,749.3999998569489,1,r,,3,1,1,
gd6,RSVPtest,57,g,true,858.6999998092651,2,g,,0,2,1,
gd6,RSVPtest,58,g,true,967,0,b,,3,3,0,
gd6,RSVPtest,59,g,true,908.3999998569489,2,g,,0,1,1,
gd6,RSVPtest,60,g,true,1162.5,2,g,,2,1,1,
brk,brk,brk,brk,brk,brk,brk,brk,brk,brk,brk,brk,
gd6,RSVPtest,61,g,true,843.0999999046326,1,r,,2,1,1,
gd6,RSVPtest,62,g,true,702.7000000476837,1,r,,3,0,1,
gd6,RSVPtest,63,g,false,825.9000000953674,1,r,,3,2,1,
gd6,RSVPtest,64,g,true,665.7000000476837,0,b,,0,3,0,
gd6,RSVPtest,65,g,true,729.8999998569489,1,r,,3,2,1,
gd6,RSVPtest,66,g,true,1362.8999998569489,1,r,,2,0,1,
gd6,RSVPtest,67,g,true,626,0,b,,3,3,0,
gd6,RSVPtest,68,g,false,1048.8999998569489,0,b,,3,3,0,
gd6,RSVPtest,69,g,true,923.0999999046326,1,r,,1,2,1,
gd6,RSVPtest,70,g,true,754.2000000476837,0,b,,1,3,0,
gd6,RSVPtest,71,g,true,697.6999998092651,1,r,,1,2,1,
gd6,RSVPtest,72,g,true,679.8999998569489,2,g,,0,0,2,
gd6,RSVPtest,73,g,false,933,2,g,,2,0,1,
gd6,RSVPtest,74,g,true,1385.9000000953674,1,r,,1,1,2,
gd6,RSVPtest,75,g,true,1285.7999999523163,0,b,,0,3,0,
gd6,RSVPtest,76,g,true,1514.9000000953674,1,r,,0,2,1,
gd6,RSVPtest,77,g,true,757.7000000476837,2,g,,0,0,2,
gd6,RSVPtest,78,g,true,633.5999999046326,0,b,,0,3,0,
gd6,RSVPtest,79,g,false,1225,2,g,,3,0,1,
gd6,RSVPtest,80,g,true,697.0999999046326,2,g,,3,2,1,
gd6,RSVPtest,81,g,true,977.5,2,g,,3,1,1,
gd6,RSVPtest,82,g,true,865.7999999523163,0,b,,3,3,0,
gd6,RSVPtest,83,g,false,848.2000000476837,2,g,,2,0,1,
gd6,RSVPtest,84,g,true,1273,2,g,,0,2,1,
gd6,RSVPtest,85,g,true,1280,1,r,,1,0,1,
gd6,RSVPtest,86,g,true,823.9000000953674,0,b,,3,3,0,
gd6,RSVPtest,87,g,true,1055.0999999046326,0,b,,3,3,0,
gd6,RSVPtest,88,g,true,1552,1,r,,2,2,2,
gd6,RSVPtest,89,g,false,968.9000000953674,0,b,,3,3,0,
gd6,RSVPtest,90,g,false,1001,1,r,,0,0,2,
gd6,RSVPtest,91,g,true,704.5,1,r,,2,2,2,
gd6,RSVPtest,92,g,true,812.9000000953674,1,r,,3,2,1,
gd6,RSVPtest,93,g,true,1082.2999999523163,0,b,,2,3,0,
gd6,RSVPtest,94,g,true,1584.2000000476837,2,g,,2,2,2,
gd6,RSVPtest,95,g,true,968.7999999523163,2,g,,1,1,2,
gd6,RSVPtest,96,g,true,900.2999999523163,0,b,,1,3,0,
gd6,RSVPtest,97,g,true,777.1999998092651,1,r,,2,2,2,
gd6,RSVPtest,98,g,true,791.3999998569489,1,r,,1,1,2,
gd6,RSVPtest,99,g,true,1362.2999999523163,0,b,,2,3,0,
gd6,RSVPtest,100,g,true,1824.5999999046326,2,g,,3,2,1,
gd6,RSVPtest,101,g,true,983.2000000476837,0,b,,3,3,0,
gd6,RSVPtest,102,g,true,729,2,g,,3,1,1,
gd6,RSVPtest,103,g,false,1048.2000000476837,2,g,,1,2,1,
gd6,RSVPtest,104,g,false,1394.4000000953674,1,r,,0,2,1,
gd6,RSVPtest,105,g,true,1122.1999998092651,1,r,,0,1,1,
gd6,RSVPtest,106,g,false,902.6000001430511,1,r,,0,2,1,
gd6,RSVPtest,107,g,false,896.5,2,g,,3,2,1,
gd6,RSVPtest,108,g,true,904.2000000476837,0,b,,3,3,0,
gd6,RSVPtest,109,g,true,1000.9000000953674,1,r,,1,1,2,
gd6,RSVPtest,110,g,false,1105.1000001430511,0,b,,2,3,0,
gd6,RSVPtest,111,g,true,537.5,1,r,,0,0,2,
gd6,RSVPtest,112,g,true,814.2000000476837,2,g,,1,1,2,
gd6,RSVPtest,113,g,false,1215.6999998092651,1,r,,0,2,1,
gd6,RSVPtest,114,g,false,1175.5999999046326,2,g,,2,0,1,
gd6,RSVPtest,115,g,false,791.9000000953674,0,b,,3,3,0,
gd6,RSVPtest,116,g,false,952.3999998569489,2,g,,3,1,1,
gd6,RSVPtest,117,g,false,880.4000000953674,2,g,,3,0,1,
gd6,RSVPtest,118,g,true,1111.7999999523163,2,g,,1,0,1,
gd6,RSVPtest,119,g,false,928.5,2,g,,3,1,1,
gd6,RSVPtest,120,g,true,552.9000000953674,1,r,,3,1,1,
brk,brk,brk,brk,brk,brk,brk,brk,brk,brk,brk,brk,
gd6,RSVPtest,121,g,true,975.7999999523163,0,b,,0,3,0,
gd6,RSVPtest,122,g,true,1328.3999998569489,1,r,,3,0,1,
gd6,RSVPtest,123,g,true,880.7999999523163,2,g,,0,0,2,
gd6,RSVPtest,124,g,true,928.2999999523163,2,g,,1,0,1,
gd6,RSVPtest,125,g,true,935.0999999046326,2,g,,0,2,1,
gd6,RSVPtest,126,g,true,1193.2000000476837,1,r,,3,1,1,
gd6,RSVPtest,127,g,true,1060.6000001430511,0,b,,3,3,0,
gd6,RSVPtest,128,g,true,1081.6000001430511,0,b,,0,3,0,
gd6,RSVPtest,129,g,true,975.8999998569489,0,b,,3,3,0,
gd6,RSVPtest,130,g,true,1377.5,0,b,,3,3,0,
gd6,RSVPtest,131,g,true,1114,2,g,,1,0,1,
gd6,RSVPtest,132,g,true,867.9000000953674,1,r,,1,2,1,
gd6,RSVPtest,133,g,true,777,1,r,,1,2,1,
gd6,RSVPtest,134,g,true,1008.4000000953674,1,r,,3,0,1,
gd6,RSVPtest,135,g,true,776.2999999523163,2,g,,1,2,1,
gd6,RSVPtest,136,g,true,988.3000001907349,1,r,,3,0,1,
gd6,RSVPtest,137,g,true,848.1000001430511,2,g,,1,1,2,
gd6,RSVPtest,138,g,true,921.5,1,r,,3,2,1,
gd6,RSVPtest,139,g,true,774.6000001430511,2,g,,2,1,1,
gd6,RSVPtest,140,g,true,1040.7999999523163,1,r,,2,1,1,
gd6,RSVPtest,141,g,false,1222.7999999523163,2,g,,3,0,1,
gd6,RSVPtest,142,g,true,793.7000000476837,0,b,,1,3,0,
gd6,RSVPtest,143,g,true,824.2999999523163,0,b,,2,3,0,
gd6,RSVPtest,144,g,true,1160.2000000476837,0,b,,3,3,0,
gd6,RSVPtest,145,g,true,1062.5999999046326,0,b,,2,3,0,
gd6,RSVPtest,146,g,true,909.9000000953674,0,b,,1,3,0,
gd6,RSVPtest,147,g,true,864.8999998569489,1,r,,0,0,2,
gd6,RSVPtest,148,g,false,1199,0,b,,1,3,0,
gd6,RSVPtest,149,g,true,1594.4000000953674,0,b,,0,3,0,
gd6,RSVPtest,150,g,true,745,0,b,,3,3,0,
gd6,RSVPtest,151,g,true,625.0999999046326,0,b,,1,3,0,
gd6,RSVPtest,152,g,true,1015.0999999046326,2,g,,0,1,1,
gd6,RSVPtest,153,g,true,1151.6000001430511,2,g,,3,0,1,
gd6,RSVPtest,154,g,true,960.1000001430511,0,b,,3,3,0,
gd6,RSVPtest,155,g,true,895,2,g,,1,0,1,
gd6,RSVPtest,156,g,true,1182,1,r,,1,2,1,
gd6,RSVPtest,157,g,true,903.7999999523163,0,b,,3,3,0,
gd6,RSVPtest,158,g,true,833,1,r,,1,0,1,
gd6,RSVPtest,159,g,true,1077.7000000476837,1,r,,2,2,2,
gd6,RSVPtest,160,g,true,774.7000000476837,1,r,,3,2,1,
gd6,RSVPtest,161,g,true,933.1000001430511,1,r,,2,0,1,
gd6,RSVPtest,162,g,true,1440.4000000953674,1,r,,3,0,1,
gd6,RSVPtest,163,g,true,641.3999998569489,2,g,,1,2,1,
gd6,RSVPtest,164,g,true,1096,2,g,,3,0,1,
gd6,RSVPtest,165,g,true,1072.7000000476837,2,g,,1,0,1,
gd6,RSVPtest,166,g,true,829.7000000476837,0,b,,3,3,0,
gd6,RSVPtest,167,g,true,912.4000000953674,1,r,,3,2,1,
gd6,RSVPtest,168,g,true,908.5,0,b,,0,3,0,
gd6,RSVPtest,169,g,false,862.5999999046326,0,b,,2,3,0,
gd6,RSVPtest,170,g,true,966.6999998092651,2,g,,2,2,2,
gd6,RSVPtest,171,g,false,799.7999999523163,0,b,,1,3,0,
gd6,RSVPtest,172,g,true,896.9000000953674,2,g,,3,0,1,
gd6,RSVPtest,173,g,true,1032.2000000476837,2,g,,2,1,1,
gd6,RSVPtest,174,g,true,881.2000000476837,2,g,,3,1,1,
gd6,RSVPtest,175,g,true,785.5,2,g,,3,2,1,
gd6,RSVPtest,176,g,true,712.5,2,g,,3,1,1,
gd6,RSVPtest,177,g,true,982.9000000953674,1,r,,3,2,1,
gd6,RSVPtest,178,g,true,928.4000000953674,1,r,,1,0,1,
gd6,RSVPtest,179,g,true,807.2000000476837,2,g,,3,1,1,
gd6,RSVPtest,180,g,true,1152.2999999523163,1,r,,1,1,2,
brk,brk,brk,brk,brk,brk,brk,brk,brk,brk,brk,brk,
gd6,RSVPtest,181,g,false,1074.2999999523163,2,g,,0,1,1,
gd6,RSVPtest,182,g,true,737.5,1,r,,0,1,1,
gd6,RSVPtest,183,g,true,1129.1000001430511,0,b,,3,3,0,
gd6,RSVPtest,184,g,true,1103.2000000476837,2,g,,3,0,1,
gd6,RSVPtest,185,g,true,825.4000000953674,2,g,,0,0,2,
gd6,RSVPtest,186,g,false,969,2,g,,3,2,1,
gd6,RSVPtest,187,g,true,1191,1,r,,2,2,2,
gd6,RSVPtest,188,g,true,1179,2,g,,3,0,1,
gd6,RSVPtest,189,g,true,1020.1000001430511,0,b,,0,3,0,
gd6,RSVPtest,190,g,true,1183.7000000476837,1,r,,3,2,1,
gd6,RSVPtest,191,g,true,1012.7000000476837,2,g,,3,2,1,
gd6,RSVPtest,192,g,true,1017.5,1,r,,3,0,1,
gd6,RSVPtest,193,g,true,1079.7999999523163,2,g,,1,2,1,
gd6,RSVPtest,194,g,true,769.0999999046326,0,b,,3,3,0,
gd6,RSVPtest,195,g,true,821.8000001907349,1,r,,3,1,1,
gd6,RSVPtest,196,g,false,1174.2999999523163,2,g,,0,0,2,
gd6,RSVPtest,197,g,true,659.9000000953674,0,b,,1,3,0,
gd6,RSVPtest,198,g,true,783.9000000953674,2,g,,2,0,1,
gd6,RSVPtest,199,g,false,1222.3999998569489,1,r,,0,1,1,
gd6,RSVPtest,200,g,true,862.6999998092651,1,r,,0,2,1,
gd6,RSVPtest,201,g,true,1053.7000000476837,0,b,,2,3,0,
gd6,RSVPtest,202,g,false,688,0,b,,3,3,0,
gd6,RSVPtest,203,g,true,825.1999998092651,1,r,,0,0,2,
gd6,RSVPtest,204,g,true,776.2999999523163,2,g,,2,1,1,
gd6,RSVPtest,205,g,true,769.7000000476837,1,r,,2,1,1,
gd6,RSVPtest,206,g,true,837.7999999523163,1,r,,2,1,1,
gd6,RSVPtest,207,g,true,1068.5999999046326,2,g,,3,1,1,
gd6,RSVPtest,208,g,true,1022.5,1,r,,3,1,1,
gd6,RSVPtest,209,g,true,929.7000000476837,0,b,,3,3,0,
gd6,RSVPtest,210,g,true,1133.7999999523163,1,r,,2,2,2,
gd6,RSVPtest,211,g,true,765.3000001907349,1,r,,3,2,1,
gd6,RSVPtest,212,g,true,842.7000000476837,1,r,,1,0,1,
gd6,RSVPtest,213,g,false,921.9000000953674,1,r,,0,0,2,
gd6,RSVPtest,214,g,true,1157.8999998569489,2,g,,1,0,1,
gd6,RSVPtest,215,g,true,791.1000001430511,2,g,,2,2,2,
gd6,RSVPtest,216,g,false,939,2,g,,0,2,1,
gd6,RSVPtest,217,g,true,901.7000000476837,1,r,,0,1,1,
gd6,RSVPtest,218,g,true,910.7999999523163,2,g,,3,0,1,
gd6,RSVPtest,219,g,true,909.8000001907349,1,r,,3,1,1,
gd6,RSVPtest,220,g,true,942.2999999523163,1,r,,2,0,1,
gd6,RSVPtest,221,g,true,871.9000000953674,1,r,,3,0,1,
gd6,RSVPtest,222,g,true,1158.7999999523163,2,g,,1,1,2,
gd6,RSVPtest,223,g,true,1206.0999999046326,2,g,,2,2,2,
gd6,RSVPtest,224,g,true,679.7999999523163,2,g,,2,2,2,
gd6,RSVPtest,225,g,false,1684.1000001430511,0,b,,0,3,0,
gd6,RSVPtest,226,g,true,842.2000000476837,1,r,,2,0,1,
gd6,RSVPtest,227,g,true,796.5,1,r,,1,0,1,
gd6,RSVPtest,228,g,true,908.9000000953674,1,r,,0,0,2,
gd6,RSVPtest,229,g,false,1071.9000000953674,2,g,,2,2,2,
gd6,RSVPtest,230,g,true,566.4000000953674,2,g,,1,2,1,
gd6,RSVPtest,231,g,true,735.5,2,g,,1,2,1,
gd6,RSVPtest,232,g,true,680.0999999046326,2,g,,3,1,1,
gd6,RSVPtest,233,g,true,670.7000000476837,2,g,,3,2,1,
gd6,RSVPtest,234,g,true,710.2999999523163,2,g,,2,1,1,
gd6,RSVPtest,235,g,true,735.5,2,g,,3,1,1,
gd6,RSVPtest,236,g,true,878.7999999523163,2,g,,1,1,2,
gd6,RSVPtest,237,g,true,880.4000000953674,1,r,,1,1,2,
gd6,RSVPtest,238,g,true,661.0999999046326,2,g,,3,2,1,
gd6,RSVPtest,239,g,true,590.1000001430511,1,r,,2,1,1,
gd6,RSVPtest,240,g,true,1131.7999999523163,0,b,,2,3,0,
subID,trialType,trialNum,cntBalance,correct,rt,rwdType,tgtCol,tgtDir,tgtPos,colPos,colMatch,
aer,VDACtrain,0,g,null,null,1,r,h,1,,,
aer,VDACtrain,0,g,true,638,1,r,v,3,,,
aer,VDACtrain,0,g,true,507.5,1,r,v,4,,,
aer,VDACtrain,0,g,true,595.4000000059605,2,g,h,3,,,
aer,VDACtrain,0,g,false,740.9000000059605,2,g,v,0,,,
aer,VDACtrain,0,g,false,804.5,1,r,h,0,,,
aer,VDACtrain,0,g,true,996.4000000059605,2,g,h,5,,,
aer,VDACtrain,0,g,true,876.3000000119209,2,g,v,2,,,
aer,VDACtrain,0,g,true,653.6000000089407,2,g,v,5,,,
aer,VDACtrain,0,g,true,615.3999999910593,1,r,h,2,,,
aer,VDACtest,1,g,null,null,1,r,v,2,,,
aer,VDACtest,2,g,true,601.2000000029802,1,r,v,2,,,
aer,VDACtest,3,g,true,517.2999999970198,1,r,v,1,,,
aer,VDACtest,4,g,true,530.0999999940395,2,g,h,3,,,
aer,VDACtest,5,g,true,765.2999999970198,2,g,v,2,,,
aer,VDACtest,6,g,true,932.8000000119209,1,r,h,4,,,
aer,VDACtest,7,g,true,670.0999999940395,2,g,h,0,,,
aer,VDACtest,8,g,true,723.9000000059605,1,r,h,1,,,
aer,VDACtest,9,g,true,677.0999999940395,2,g,v,3,,,
aer,VDACtest,10,g,true,692.8000000119209,1,r,h,5,,,
aer,VDACtest,11,g,true,805,1,r,v,5,,,
aer,VDACtest,12,g,true,620.3999999910593,1,r,v,3,,,
aer,VDACtest,13,g,true,613,1,r,h,4,,,
aer,VDACtest,14,g,true,707.7000000029802,1,r,h,2,,,
aer,VDACtest,15,g,true,708.4000000059605,1,r,h,3,,,
aer,VDACtest,16,g,true,549.2000000029802,1,r,v,1,,,
aer,VDACtest,17,g,false,652.5,2,g,v,3,,,
aer,VDACtest,18,g,true,965.7000000029802,2,g,h,5,,,
aer,VDACtest,19,g,true,668.2000000029802,2,g,v,3,,,
aer,VDACtest,20,g,true,709.0999999940395,1,r,h,4,,,
aer,VDACtest,21,g,null,null,1,r,h,0,,,
aer,VDACtest,22,g,true,832.3000000119209,1,r,h,5,,,
aer,VDACtest,23,g,true,540.3999999910593,1,r,h,4,,,
aer,VDACtest,24,g,true,789.2000000029802,2,g,h,1,,,
aer,VDACtest,25,g,true,612.2000000029802,2,g,v,0,,,
aer,VDACtest,26,g,true,764.9000000059605,1,r,h,5,,,
aer,VDACtest,27,g,true,516.4000000059605,1,r,h,0,,,
aer,VDACtest,28,g,false,564.1000000089407,2,g,h,0,,,
aer,VDACtest,29,g,true,723.4000000059605,2,g,v,4,,,
aer,VDACtest,30,g,true,500.1000000089407,1,r,h,1,,,
aer,VDACtest,31,g,true,932.0999999940395,2,g,v,5,,,
aer,VDACtest,32,g,true,588.3999999910593,2,g,h,4,,,
aer,VDACtest,33,g,true,861.1000000089407,1,r,h,2,,,
aer,VDACtest,34,g,true,476.1000000089407,1,r,h,2,,,
aer,VDACtest,35,g,true,622,1,r,h,5,,,
aer,VDACtest,36,g,true,444.1000000089407,1,r,h,0,,,
aer,VDACtest,37,g,true,612.7999999970198,2,g,v,4,,,
aer,VDACtest,38,g,true,548.2000000029802,1,r,h,5,,,
aer,VDACtest,39,g,true,844.7000000029802,2,g,h,1,,,
aer,VDACtest,40,g,true,668.5,1,r,v,4,,,
aer,VDACtest,41,g,true,740.7999999970198,2,g,v,5,,,
aer,VDACtest,42,g,false,763.5,2,g,v,0,,,
aer,VDACtest,43,g,true,906.7999999970198,2,g,v,2,,,
aer,VDACtest,44,g,true,588.0999999940395,2,g,v,4,,,
aer,VDACtest,45,g,null,null,1,r,v,3,,,
aer,VDACtest,46,g,true,614.0999999940395,1,r,h,4,,,
aer,VDACtest,47,g,true,580.6000000089407,1,r,v,0,,,
aer,VDACtest,48,g,true,683.8000000119209,2,g,v,5,,,
aer,VDACtest,49,g,true,667.8999999910593,1,r,h,2,,,
aer,VDACtest,50,g,false,628.7000000029802,2,g,h,5,,,
brk,brk,brk,brk,brk,brk,brk,brk,brk,brk,brk,brk,
aer,VDACtest,51,g,null,null,2,g,h,1,,,
aer,VDACtest,52,g,true,490.29999999701977,2,g,h,1,,,
aer,VDACtest,53,g,true,550.9000000059605,2,g,h,4,,,
aer,VDACtest,54,g,true,484.79999999701977,2,g,h,1,,,
aer,VDACtest,55,g,true,516.9000000059605,2,g,v,3,,,
aer,VDACtest,56,g,null,null,1,r,v,3,,,
aer,VDACtest,57,g,null,null,2,g,h,5,,,
aer,VDACtest,58,g,false,582.4000000059605,2,g,v,2,,,
aer,VDACtest,59,g,true,763.7000000029802,1,r,h,1,,,
aer,VDACtest,60,g,true,499.5,2,g,v,1,,,
aer,VDACtest,61,g,true,516.5,2,g,v,2,,,
aer,VDACtest,62,g,true,770.7999999970198,1,r,h,3,,,
aer,VDACtest,63,g,false,589.7999999970198,2,g,h,4,,,
aer,VDACtest,64,g,true,932.3999999910593,1,r,v,2,,,
aer,VDACtest,65,g,true,653.1999999880791,1,r,v,0,,,
aer,VDACtest,66,g,true,523.1999999880791,1,r,v,3,,,
aer,VDACtest,67,g,true,604.5,2,g,h,2,,,
aer,VDACtest,68,g,true,588.8999999910593,1,r,h,0,,,
