subID,trialType,trialNum,cntBalance,correct,rt,rwdType,tgtCol,tgtDir,tgtPos,colPos,colMatch,
44s,VDACtrain,0,g,null,null,2,g,v,5,,,
44s,VDACtrain,0,g,null,null,2,g,v,0,,,
44s,VDACtrain,0,g,true,541.6000003814697,1,r,h,1,,,
44s,VDACtrain,0,g,true,580,1,r,h,2,,,
44s,VDACtrain,0,g,true,386.5,1,r,h,0,,,
44s,VDACtrain,0,g,false,434.29999923706055,1,r,v,3,,,
44s,VDACtrain,0,g,false,753.5,1,r,v,4,,,
44s,VDACtrain,0,g,false,437.8000011444092,2,g,h,5,,,
44s,VDACtrain,0,g,null,null,2,g,v,2,,,
44s,VDACtrain,0,g,true,291.29999923706055,2,g,h,3,,,
44s,VDACtest,1,g,false,487.9000015258789,2,g,v,0,,,
44s,VDACtest,2,g,null,null,1,r,v,4,,,
44s,VDACtest,3,g,true,529.5,2,g,h,4,,,
44s,VDACtest,4,g,false,371.70000076293945,1,r,v,1,,,
44s,VDACtest,5,g,false,804.7999992370605,2,g,h,3,,,
44s,VDACtest,6,g,false,484.6000003814697,2,g,v,0,,,
44s,VDACtest,7,g,true,261.29999923706055,2,g,v,2,,,
44s,VDACtest,8,g,true,421.1999988555908,1,r,h,4,,,
44s,VDACtest,9,g,true,259.5999984741211,1,r,v,2,,,
44s,VDACtest,10,g,true,356.79999923706055,2,g,h,0,,,
44s,VDACtest,11,g,true,291.6000003814697,1,r,v,0,,,
44s,VDACtest,12,g,false,277.1000003814697,1,r,v,1,,,
44s,VDACtest,13,g,true,245.89999961853027,1,r,v,5,,,
44s,VDACtest,14,g,false,374.20000076293945,1,r,v,3,,,
44s,VDACtest,15,g,true,277.0999984741211,2,g,v,1,,,
44s,VDACtest,16,g,true,290.79999923706055,2,g,v,3,,,
44s,VDACtest,17,g,false,309.1000003814697,2,g,h,3,,,
44s,VDACtest,18,g,true,293.6999988555908,1,r,h,0,,,
44s,VDACtest,19,g,true,583,1,r,h,4,,,
44s,VDACtest,20,g,true,789.6000003814697,1,r,h,3,,,
44s,VDACtest,21,g,true,949.1000003814697,2,g,v,1,,,
44s,VDACtest,22,g,true,628,1,r,h,4,,,
44s,VDACtest,23,g,true,548.6000003814697,1,r,h,3,,,
44s,VDACtest,24,g,true,612.6999988555908,1,r,v,4,,,
44s,VDACtest,25,g,true,516.2000007629395,1,r,h,3,,,
44s,VDACtest,26,g,true,613.1999988555908,1,r,h,1,,,
44s,VDACtest,27,g,true,581.5,1,r,v,5,,,
44s,VDACtest,28,g,true,885,1,r,v,0,,,
44s,VDACtest,29,g,false,469.1000003814697,1,r,v,2,,,
44s,VDACtest,30,g,null,null,2,g,h,0,,,
44s,VDACtest,31,g,false,545,1,r,v,3,,,
44s,VDACtest,32,g,null,null,2,g,h,5,,,
44s,VDACtest,33,g,true,626,1,r,h,4,,,
44s,VDACtest,34,g,true,562.8000011444092,1,r,v,3,,,
44s,VDACtest,35,g,false,629.1000003814697,1,r,h,2,,,
44s,VDACtest,36,g,false,949.6000003814697,2,g,h,5,,,
44s,VDACtest,37,g,false,580.6000003814697,1,r,v,4,,,
44s,VDACtest,38,g,false,965.2000007629395,2,g,h,1,,,
44s,VDACtest,39,g,true,580.8000011444092,1,r,h,4,,,
44s,VDACtest,40,g,true,707.5,1,r,h,0,,,
44s,VDACtest,41,g,null,null,2,g,h,5,,,
44s,VDACtest,42,g,false,816.7999992370605,2,g,v,5,,,
44s,VDACtest,43,g,false,884,2,g,v,4,,,
44s,VDACtest,44,g,false,755.9000015258789,2,g,h,2,,,
44s,VDACtest,45,g,false,741,2,g,h,1,,,
44s,VDACtest,46,g,null,null,2,g,v,3,,,
44s,VDACtest,47,g,false,865.8999996185303,2,g,h,1,,,
44s,VDACtest,48,g,true,661.2000007629395,1,r,h,5,,,
44s,VDACtest,49,g,null,null,1,r,v,1,,,
44s,VDACtest,50,g,false,560.2000007629395,1,r,h,5,,,
brk,brk,brk,brk,brk,brk,brk,brk,brk,brk,brk,brk,
44s,VDACtest,51,g,false,942,1,r,v,4,,,
44s,VDACtest,52,g,true,755.5,1,r,v,0,,,
44s,VDACtest,53,g,true,629.3000011444092,1,r,h,4,,,
44s,VDACtest,54,g,true,436.79999923706055,2,g,h,4,,,
44s,VDACtest,55,g,false,850.8999996185303,1,r,h,1,,,
44s,VDACtest,56,g,null,null,2,g,v,3,,,
44s,VDACtest,57,g,true,831.8999996185303,2,g,v,3,,,
44s,VDACtest,58,g,true,675.8000011444092,1,r,v,2,,,
44s,VDACtest,59,g,true,581.3999996185303,1,r,v,5,,,
44s,VDACtest,60,g,true,965.3999996185303,1,r,h,1,,,
44s,VDACtest,61,g,false,644.8999996185303,2,g,h,2,,,
44s,VDACtest,62,g,true,627.5,2,g,v,0,,,
44s,VDACtest,63,g,true,676.8999996185303,2,g,v,5,,,
44s,VDACtest,64,g,false,563.7999992370605,2,g,h,0,,,
44s,VDACtest,65,g,false,419.5,2,g,v,0,,,
44s,VDACtest,66,g,true,677.3999996185303,1,r,v,5,,,
44s,VDACtest,67,g,true,517,1,r,v,5,,,
44s,VDACtest,68,g,true,612.8999996185303,1,r,h,0,,,
44s,VDACtest,69,g,false,564.1999988555908,2,g,h,3,,,
44s,VDACtest,70,g,true,726.3999996185303,2,g,v,5,,,
44s,VDACtest,71,g,true,772.3000011444092,1,r,v,1,,,
44s,VDACtest,72,g,true,563.3999996185303,2,g,v,4,,,
44s,VDACtest,73,g,true,499.3999996185303,1,r,h,0,,,
44s,VDACtest,74,g,false,580.4000015258789,2,g,h,1,,,
44s,VDACtest,75,g,true,803.6999988555908,2,g,h,4,,,
44s,VDACtest,76,g,false,629.0999984741211,2,g,h,1,,,
44s,VDACtest,77,g,true,788.2000007629395,2,g,v,5,,,
44s,VDACtest,78,g,true,596.3999996185303,1,r,v,1,,,
44s,VDACtest,79,g,true,549.5,1,r,v,1,,,
44s,VDACtest,80,g,true,564.3999996185303,1,r,v,1,,,
44s,VDACtest,81,g,null,null,2,g,h,3,,,
44s,VDACtest,82,g,true,623.5,2,g,v,5,,,
44s,VDACtest,83,g,true,773.1999988555908,1,r,v,1,,,
44s,VDACtest,84,g,true,516.9000015258789,2,g,v,4,,,
44s,VDACtest,85,g,false,500,1,r,h,1,,,
44s,VDACtest,86,g,true,550.1000003814697,1,r,v,2,,,
44s,VDACtest,87,g,true,611.8000011444092,1,r,v,5,,,
44s,VDACtest,88,g,false,772.5,2,g,h,0,,,
44s,VDACtest,89,g,true,533.6000003814697,1,r,v,0,,,
44s,VDACtest,90,g,true,469,2,g,v,1,,,
44s,VDACtest,91,g,false,453.3000011444092,2,g,h,4,,,
44s,VDACtest,92,g,false,580.1000003814697,2,g,h,3,,,
44s,VDACtest,93,g,true,533.7000007629395,2,g,h,4,,,
44s,VDACtest,94,g,true,629,1,r,v,0,,,
44s,VDACtest,95,g,true,438,1,r,v,4,,,
44s,VDACtest,96,g,true,644.8999996185303,1,r,h,3,,,
44s,VDACtest,97,g,true,451.29999923706055,2,g,v,1,,,
44s,VDACtest,98,g,true,915.7999992370605,2,g,v,3,,,
44s,VDACtest,99,g,true,436.3999996185303,1,r,h,4,,,
44s,VDACtest,100,g,true,613.6000003814697,1,r,v,0,,,
brk,brk,brk,brk,brk,brk,brk,brk,brk,brk,brk,brk,
44s,VDACtest,101,g,null,null,1,r,h,0,,,
44s,VDACtest,102,g,false,637.5,2,g,h,4,,,
44s,VDACtest,103,g,false,662.3000011444092,1,r,h,2,,,
44s,VDACtest,104,g,false,468.70000076293945,1,r,v,3,,,
44s,VDACtest,105,g,true,548.2999992370605,1,r,h,1,,,
44s,VDACtest,106,g,true,677.3000011444092,1,r,h,5,,,
44s,VDACtest,107,g,false,740.1000003814697,2,g,h,2,,,
44s,VDACtest,108,g,true,806,2,g,h,3,,,
44s,VDACtest,109,g,true,485.6000003814697,2,g,v,4,,,
44s,VDACtest,110,g,true,755.3999996185303,2,g,v,2,,,
44s,VDACtest,111,g,false,550,1,r,h,2,,,
44s,VDACtest,112,g,true,597.7000007629395,1,r,h,2,,,
44s,VDACtest,113,g,true,483.5,2,g,v,4,,,
44s,VDACtest,114,g,false,612.6999988555908,2,g,h,2,,,
44s,VDACtest,115,g,true,580.7000007629395,2,g,h,4,,,
44s,VDACtest,116,g,true,709.5,1,r,h,1,,,
44s,VDACtest,117,g,true,690.5999984741211,1,r,v,1,,,
44s,VDACtest,118,g,null,null,1,r,h,2,,,
44s,VDACtest,119,g,true,607.6000003814697,1,r,h,3,,,
44s,VDACtest,120,g,true,597.3000011444092,2,g,v,5,,,
44s,VDACtest,121,g,true,628.8999996185303,2,g,v,1,,,
44s,VDACtest,122,g,true,628.3999996185303,2,g,h,0,,,
44s,VDACtest,123,g,true,596.8000011444092,1,r,h,0,,,
44s,VDACtest,124,g,true,595.7999992370605,2,g,v,2,,,
44s,VDACtest,125,g,true,420.20000076293945,1,r,h,3,,,
44s,VDACtest,126,g,true,531.3000011444092,2,g,v,4,,,
44s,VDACtest,127,g,true,421.1000003814697,1,r,h,4,,,
44s,VDACtest,128,g,true,404.5,2,g,v,0,,,
44s,VDACtest,129,g,false,386.6000003814697,2,g,h,3,,,
44s,VDACtest,130,g,false,580.7999992370605,2,g,h,5,,,
44s,VDACtest,131,g,false,564.4000015258789,1,r,v,3,,,
44s,VDACtest,132,g,false,453,2,g,h,0,,,
44s,VDACtest,133,g,false,484.29999923706055,1,r,v,2,,,
44s,VDACtest,134,g,false,340.20000076293945,2,g,h,1,,,
44s,VDACtest,135,g,true,324.79999923706055,2,g,v,4,,,
44s,VDACtest,136,g,true,565.7000007629395,1,r,h,3,,,
44s,VDACtest,137,g,true,532.8999996185303,2,g,v,4,,,
44s,VDACtest,138,g,false,530.6000003814697,2,g,h,2,,,
44s,VDACtest,139,g,true,451.3000011444092,1,r,v,0,,,
44s,VDACtest,140,g,false,438.1000003814697,1,r,h,2,,,
44s,VDACtest,141,g,true,627.6000003814697,1,r,v,3,,,
44s,VDACtest,142,g,true,484.3000011444092,2,g,v,1,,,
44s,VDACtest,143,g,true,516.3000011444092,2,g,v,4,,,
44s,VDACtest,144,g,false,486.0999984741211,2,g,h,2,,,
44s,VDACtest,145,g,true,516.3999996185303,1,r,h,5,,,
44s,VDACtest,146,g,false,660.1000003814697,2,g,h,0,,,
44s,VDACtest,147,g,true,628.6999988555908,2,g,v,2,,,
44s,VDACtest,148,g,true,499.3999996185303,2,g,h,4,,,
44s,VDACtest,149,g,false,404.20000076293945,2,g,h,5,,,
44s,VDACtest,150,g,true,438.1999988555908,2,g,h,5,,,
brk,brk,brk,brk,brk,brk,brk,brk,brk,brk,brk,brk,
44s,VDACtest,151,g,null,null,2,g,h,2,,,
44s,VDACtest,152,g,true,325.1000003814697,1,r,v,4,,,
44s,VDACtest,153,g,true,405,2,g,h,4,,,
44s,VDACtest,154,g,true,419.79999923706055,1,r,h,4,,,
44s,VDACtest,155,g,true,371,1,r,v,4,,,
44s,VDACtest,156,g,true,420.79999923706055,2,g,v,1,,,
44s,VDACtest,157,g,true,581.1000003814697,1,r,h,2,,,
44s,VDACtest,158,g,true,516.4000015258789,2,g,v,3,,,
44s,VDACtest,159,g,false,484,1,r,h,1,,,
44s,VDACtest,160,g,true,596.7999992370605,2,g,v,1,,,
44s,VDACtest,161,g,true,580.8000011444092,1,r,v,2,,,
44s,VDACtest,162,g,true,517.8999996185303,1,r,h,5,,,
44s,VDACtest,163,g,false,484,1,r,h,0,,,
44s,VDACtest,164,g,true,485.1000003814697,1,r,h,2,,,
44s,VDACtest,165,g,false,629.1999988555908,2,g,h,1,,,
44s,VDACtest,166,g,true,884.2999992370605,2,g,v,2,,,
44s,VDACtest,167,g,true,741.8000011444092,1,r,v,3,,,
44s,VDACtest,168,g,true,485.1000003814697,2,g,h,5,,,
44s,VDACtest,169,g,false,597.2999992370605,1,r,h,1,,,
44s,VDACtest,170,g,true,435.8000011444092,1,r,h,3,,,
44s,VDACtest,171,g,false,532.8999996185303,2,g,h,2,,,
44s,VDACtest,172,g,true,755.3999996185303,1,r,v,4,,,
44s,VDACtest,173,g,true,597.1000003814697,1,r,h,5,,,
44s,VDACtest,174,g,true,694.7000007629395,1,r,h,5,,,
44s,VDACtest,175,g,false,836,2,g,h,3,,,
44s,VDACtest,176,g,true,821.2000007629395,1,r,v,4,,,
44s,VDACtest,177,g,true,739,2,g,h,0,,,
44s,VDACtest,178,g,true,499.5,2,g,h,5,,,
44s,VDACtest,179,g,true,581.2999992370605,2,g,v,0,,,
44s,VDACtest,180,g,false,708.6000003814697,2,g,v,2,,,
44s,VDACtest,181,g,true,660.9000015258789,2,g,v,5,,,
44s,VDACtest,182,g,true,500,2,g,v,3,,,
44s,VDACtest,183,g,true,453.6000003814697,2,g,v,3,,,
44s,VDACtest,184,g,true,518.1000003814697,1,r,v,5,,,
44s,VDACtest,185,g,true,642.2999992370605,2,g,v,0,,,
44s,VDACtest,186,g,true,564.0999984741211,1,r,h,0,,,
44s,VDACtest,187,g,true,517.1000003814697,1,r,v,0,,,
44s,VDACtest,188,g,true,531.6999988555908,1,r,v,2,,,
44s,VDACtest,189,g,true,612.2999992370605,1,r,v,5,,,
44s,VDACtest,190,g,true,660.3000011444092,1,r,h,5,,,
44s,VDACtest,191,g,true,739.5999984741211,2,g,v,5,,,
44s,VDACtest,192,g,true,772.8000011444092,2,g,h,1,,,
44s,VDACtest,193,g,true,502.20000076293945,2,g,v,2,,,
44s,VDACtest,194,g,true,515.6000003814697,2,g,v,2,,,
44s,VDACtest,195,g,false,613.3000011444092,1,r,v,2,,,
44s,VDACtest,196,g,true,725.1000003814697,2,g,v,1,,,
44s,VDACtest,197,g,true,612.5,1,r,h,1,,,
44s,VDACtest,198,g,true,803.6000003814697,1,r,v,3,,,
44s,VDACtest,199,g,true,579.5,2,g,h,1,,,
44s,VDACtest,200,g,true,675.7000007629395,2,g,v,0,,,
44s,RSVPtrain,0,g,null,null,0,b,,3,3,0,
44s,RSVPtrain,0,g,null,null,2,g,,1,0,1,
44s,RSVPtrain,0,g,true,513.2000007629395,1,r,,1,1,2,
44s,RSVPtrain,0,g,false,406.6000003814697,1,r,,0,0,2,
44s,RSVPtrain,0,g,false,629.9000015258789,2,g,,2,2,2,
44s,RSVPtrain,0,g,true,326.1999988555908,0,b,,0,3,0,
44s,RSVPtrain,0,g,false,661.3000011444092,0,b,,1,3,0,
44s,RSVPtrain,0,g,true,533.7999992370605,1,r,,3,2,1,
44s,RSVPtrain,0,g,true,869.6000003814697,2,g,,3,0,1,
44s,RSVPtrain,0,g,false,611.3999996185303,2,g,,3,1,1,
44s,RSVPtest,1,g,true,522,0,b,,3,3,0,
44s,RSVPtest,2,g,false,552.8999996185303,1,r,,3,1,1,
44s,RSVPtest,3,g,false,728.1999988555908,0,b,,1,3,0,
44s,RSVPtest,4,g,true,519.5,1,r,,1,0,1,
44s,RSVPtest,5,g,true,951.5,0,b,,2,3,0,
44s,RSVPtest,6,g,false,598.1000003814697,1,r,,3,2,1,
44s,RSVPtest,7,g,true,919.8999996185303,2,g,,3,1,1,
44s,RSVPtest,8,g,false,807.2999992370605,2,g,,3,0,1,
44s,RSVPtest,9,g,false,695.6999988555908,0,b,,3,3,0,
44s,RSVPtest,10,g,false,375.5,1,r,,0,2,1,
44s,RSVPtest,11,g,true,484.70000076293945,2,g,,0,1,1,
44s,RSVPtest,12,g,false,551.6000003814697,0,b,,3,3,0,
44s,RSVPtest,13,g,false,711.7000007629395,2,g,,2,1,1,
44s,RSVPtest,14,g,null,null,1,r,,1,2,1,
44s,RSVPtest,15,g,null,null,2,g,,1,0,1,
44s,RSVPtest,16,g,null,null,1,r,,1,2,1,
44s,RSVPtest,17,g,null,null,2,g,,2,2,2,
44s,RSVPtest,18,g,null,null,2,g,,1,0,1,
attCheck,attCheck,attCheck,attCheck,attCheck,attCheck,attCheck,attCheck,attCheck,attCheck,attCheck,attCheck,
44s,RSVPtest,19,g,false,701.6000003814697,1,r,,2,2,2,
44s,RSVPtest,20,g,false,711.2000007629395,1,r,,3,2,1,
44s,RSVPtest,21,g,false,824.8000011444092,0,b,,1,3,0,
44s,RSVPtest,22,g,false,360.3999996185303,0,b,,3,3,0,
44s,RSVPtest,23,g,false,871.6000003814697,0,b,,0,3,0,
44s,RSVPtest,24,g,false,744.2999992370605,1,r,,3,0,1,
44s,RSVPtest,25,g,false,774.8999996185303,2,g,,2,0,1,
44s,RSVPtest,26,g,true,374.29999923706055,2,g,,1,1,2,
44s,RSVPtest,27,g,false,551.8999996185303,0,b,,3,3,0,
44s,RSVPtest,28,g,false,501.1999988555908,1,r,,0,2,1,
44s,RSVPtest,29,g,true,406,0,b,,0,3,0,
44s,RSVPtest,30,g,false,584.1000003814697,1,r,,3,2,1,
44s,RSVPtest,31,g,true,710.3999996185303,2,g,,1,1,2,
44s,RSVPtest,32,g,true,405.6000003814697,1,r,,3,1,1,
44s,RSVPtest,33,g,true,486.79999923706055,1,r,,0,0,2,
44s,RSVPtest,34,g,true,312.1000003814697,0,b,,2,3,0,
44s,RSVPtest,35,g,false,325.6000003814697,1,r,,3,0,1,
44s,RSVPtest,36,g,false,391.70000076293945,2,g,,3,0,1,
44s,RSVPtest,37,g,false,279.1999988555908,0,b,,0,3,0,
44s,RSVPtest,38,g,true,294.29999923706055,0,b,,2,3,0,
44s,RSVPtest,39,g,true,455.0999984741211,0,b,,3,3,0,
44s,RSVPtest,40,g,true,550.7000007629395,2,g,,3,2,1,
44s,RSVPtest,41,g,true,517.1000003814697,2,g,,3,0,1,
44s,RSVPtest,42,g,false,438.8000011444092,1,r,,0,2,1,
44s,RSVPtest,43,g,true,711.3000011444092,1,r,,2,0,1,
44s,RSVPtest,44,g,true,341.3999996185303,0,b,,3,3,0,
44s,RSVPtest,45,g,false,358.6000003814697,1,r,,3,1,1,
44s,RSVPtest,46,g,null,null,2,g,,3,2,1,
44s,RSVPtest,47,g,false,2260.6000003814697,1,r,,1,1,2,
44s,RSVPtest,48,g,false,422.8999996185303,2,g,,3,2,1,
44s,RSVPtest,49,g,false,423.8999996185303,1,r,,2,2,2,
44s,RSVPtest,50,g,true,292.70000076293945,2,g,,1,0,1,
44s,RSVPtest,51,g,true,279,2,g,,3,0,1,
44s,RSVPtest,52,g,true,325.6999988555908,2,g,,3,1,1,
44s,RSVPtest,53,g,false,742.2000007629395,0,b,,1,3,0,
44s,RSVPtest,54,g,false,470.1999988555908,1,r,,3,0,1,
44s,RSVPtest,55,g,false,343.8999996185303,1,r,,1,2,1,
44s,RSVPtest,56,g,false,583.1000003814697,2,g,,0,1,1,
44s,RSVPtest,57,g,false,372.8999996185303,1,r,,2,2,2,
44s,RSVPtest,58,g,false,501.79999923706055,1,r,,2,0,1,
44s,RSVPtest,59,g,null,null,0,b,,3,3,0,
44s,RSVPtest,60,g,false,758.7000007629395,0,b,,0,3,0,
brk,brk,brk,brk,brk,brk,brk,brk,brk,brk,brk,brk,
44s,RSVPtest,61,g,false,1431.1000003814697,2,g,,1,1,2,
44s,RSVPtest,62,g,false,2101.400001525879,1,r,,1,2,1,
44s,RSVPtest,63,g,true,277.6000003814697,0,b,,2,3,0,
44s,RSVPtest,64,g,null,null,1,r,,3,1,1,
44s,RSVPtest,65,g,true,501.6000003814697,2,g,,1,2,1,
44s,RSVPtest,66,g,true,424.1999988555908,0,b,,0,3,0,
44s,RSVPtest,67,g,false,487.8000011444092,2,g,,0,1,1,
44s,RSVPtest,68,g,true,533.2999992370605,2,g,,3,1,1,
44s,RSVPtest,69,g,false,341.70000076293945,0,b,,3,3,0,
44s,RSVPtest,70,g,false,388.4000015258789,0,b,,1,3,0,
44s,RSVPtest,71,g,true,454,2,g,,2,1,1,
44s,RSVPtest,72,g,false,309.29999923706055,1,r,,2,0,1,
44s,RSVPtest,73,g,true,869.3000011444092,2,g,,3,0,1,
44s,RSVPtest,74,g,false,691.5999984741211,2,g,,0,0,2,
44s,RSVPtest,75,g,false,566.1000003814697,2,g,,1,0,1,
44s,RSVPtest,76,g,true,118.80000114440918,0,b,,1,3,0,
44s,RSVPtest,77,g,true,308.8999996185303,1,r,,0,0,2,
44s,RSVPtest,78,g,false,406.6000003814697,0,b,,2,3,0,
44s,RSVPtest,79,g,false,309.70000076293945,2,g,,3,1,1,
44s,RSVPtest,80,g,true,356.6000003814697,0,b,,3,3,0,
44s,RSVPtest,81,g,false,468.29999923706055,2,g,,1,2,1,
44s,RSVPtest,82,g,true,470.20000076293945,1,r,,1,0,1,
44s,RSVPtest,83,g,false,263,1,r,,0,2,1,
44s,RSVPtest,84,g,true,325.6000003814697,1,r,,2,2,2,
44s,RSVPtest,85,g,false,278,0,b,,1,3,0,
44s,RSVPtest,86,g,true,661.5,1,r,,1,0,1,
44s,RSVPtest,87,g,false,692.5999984741211,0,b,,1,3,0,
44s,RSVPtest,88,g,true,517.8999996185303,1,r,,3,1,1,
44s,RSVPtest,89,g,true,758,0,b,,1,3,0,
44s,RSVPtest,90,g,true,566.6000003814697,1,r,,3,1,1,
44s,RSVPtest,91,g,true,406.9000015258789,1,r,,3,2,1,
44s,RSVPtest,92,g,true,564.5,2,g,,3,2,1,
44s,RSVPtest,93,g,false,838,1,r,,3,0,1,
44s,RSVPtest,94,g,false,326,2,g,,2,2,2,
44s,RSVPtest,95,g,false,342.20000076293945,1,r,,3,1,1,
44s,RSVPtest,96,g,true,308.6000003814697,1,r,,3,2,1,
44s,RSVPtest,97,g,true,438.4000015258789,0,b,,3,3,0,
44s,RSVPtest,98,g,false,325.20000076293945,2,g,,1,2,1,
44s,RSVPtest,99,g,null,null,1,r,,2,2,2,
44s,RSVPtest,100,g,true,389.9000015258789,1,r,,0,1,1,
44s,RSVPtest,101,g,true,325.20000076293945,2,g,,0,1,1,
44s,RSVPtest,102,g,true,469.6000003814697,2,g,,3,1,1,
44s,RSVPtest,103,g,true,725.7000007629395,2,g,,3,2,1,
44s,RSVPtest,104,g,false,628.3999996185303,2,g,,2,2,2,
44s,RSVPtest,105,g,true,468.1999988555908,2,g,,2,2,2,
44s,RSVPtest,106,g,true,565.8999996185303,0,b,,3,3,0,
44s,RSVPtest,107,g,true,678.9000015258789,1,r,,2,1,1,
44s,RSVPtest,108,g,true,757.8000011444092,2,g,,3,1,1,
44s,RSVPtest,109,g,true,455.1000003814697,0,b,,1,3,0,
44s,RSVPtest,110,g,true,612.7000007629395,0,b,,0,3,0,
44s,RSVPtest,111,g,true,629.8999996185303,1,r,,3,0,1,
44s,RSVPtest,112,g,false,579.6000003814697,0,b,,0,3,0,
44s,RSVPtest,113,g,true,565.8000011444092,2,g,,1,0,1,
44s,RSVPtest,114,g,true,391.8999996185303,0,b,,3,3,0,
44s,RSVPtest,115,g,true,342.3999996185303,2,g,,0,0,2,
44s,RSVPtest,116,g,true,387.3999996185303,0,b,,3,3,0,
44s,RSVPtest,117,g,true,643.2000007629395,0,b,,3,3,0,
44s,RSVPtest,118,g,true,710.2999992370605,0,b,,1,3,0,
44s,RSVPtest,119,g,false,405.1000003814697,1,r,,1,0,1,
44s,RSVPtest,120,g,true,370.8999996185303,1,r,,2,1,1,
brk,brk,brk,brk,brk,brk,brk,brk,brk,brk,brk,brk,
44s,RSVPtest,121,g,false,1454,1,r,,0,1,1,
44s,RSVPtest,122,g,false,646.5999984741211,1,r,,1,1,2,
44s,RSVPtest,123,g,false,406.1999988555908,2,g,,2,0,1,
44s,RSVPtest,124,g,true,470.20000076293945,1,r,,2,2,2,
44s,RSVPtest,125,g,false,484.6999988555908,1,r,,2,1,1,
44s,RSVPtest,126,g,false,326.3000011444092,1,r,,1,2,1,
44s,RSVPtest,127,g,true,356.5999984741211,2,g,,2,1,1,
44s,RSVPtest,128,g,false,387.8000011444092,2,g,,2,1,1,
44s,RSVPtest,129,g,true,292.1999988555908,1,r,,0,0,2,
44s,RSVPtest,130,g,false,260.8999996185303,0,b,,0,3,0,
44s,RSVPtest,131,g,false,262.79999923706055,0,b,,3,3,0,
44s,RSVPtest,132,g,false,100.60000038146973,1,r,,1,1,2,
44s,RSVPtest,133,g,false,275.5,1,r,,3,0,1,
44s,RSVPtest,134,g,true,373.8999996185303,0,b,,3,3,0,
44s,RSVPtest,135,g,false,548.8000011444092,0,b,,0,3,0,
44s,RSVPtest,136,g,false,389.1000003814697,2,g,,0,2,1,
44s,RSVPtest,137,g,false,403.8000011444092,2,g,,0,2,1,
44s,RSVPtest,138,g,true,358.20000076293945,0,b,,3,3,0,
44s,RSVPtest,139,g,null,null,2,g,,2,1,1,
44s,RSVPtest,140,g,true,374.3999996185303,1,r,,3,0,1,
44s,RSVPtest,141,g,false,370.4000015258789,2,g,,1,2,1,
44s,RSVPtest,142,g,false,387.29999923706055,2,g,,3,1,1,
44s,RSVPtest,143,g,true,372.0999984741211,1,r,,3,1,1,
44s,RSVPtest,144,g,true,1954.7000007629395,1,r,,3,2,1,
44s,RSVPtest,145,g,false,289.3000011444092,2,g,,2,0,1,
44s,RSVPtest,146,g,false,244.20000076293945,2,g,,3,1,1,
44s,RSVPtest,147,g,false,291.3000011444092,2,g,,2,0,1,
44s,RSVPtest,148,g,true,596.3999996185303,2,g,,3,2,1,
44s,RSVPtest,149,g,true,1124.5,2,g,,3,1,1,
44s,RSVPtest,150,g,true,485.3999996185303,2,g,,3,0,1,
44s,RSVPtest,151,g,false,500.8000011444092,1,r,,1,0,1,
44s,RSVPtest,152,g,true,724.5,2,g,,1,1,2,
44s,RSVPtest,153,g,true,484.29999923706055,2,g,,0,0,2,
44s,RSVPtest,154,g,true,404.8999996185303,2,g,,2,2,2,
44s,RSVPtest,155,g,false,420.5,0,b,,2,3,0,
44s,RSVPtest,156,g,false,674.8000011444092,1,r,,2,1,1,
44s,RSVPtest,157,g,false,756,1,r,,0,0,2,
44s,RSVPtest,158,g,true,483.3999996185303,1,r,,0,1,1,
44s,RSVPtest,159,g,true,629.2000007629395,2,g,,3,2,1,
44s,RSVPtest,160,g,false,595.3999996185303,1,r,,1,1,2,
44s,RSVPtest,161,g,true,323.79999923706055,1,r,,3,2,1,
44s,RSVPtest,162,g,false,806.3999996185303,2,g,,0,2,1,
44s,RSVPtest,163,g,false,677.0999984741211,0,b,,0,3,0,
44s,RSVPtest,164,g,true,516.8999996185303,2,g,,3,1,1,
44s,RSVPtest,165,g,false,372.29999923706055,2,g,,3,0,1,
44s,RSVPtest,166,g,true,581.7999992370605,2,g,,3,0,1,
44s,RSVPtest,167,g,true,790.8000011444092,2,g,,3,2,1,
44s,RSVPtest,168,g,false,485.5,1,r,,1,2,1,
44s,RSVPtest,169,g,true,596.8999996185303,1,r,,3,0,1,
44s,RSVPtest,170,g,true,708.5,0,b,,3,3,0,
44s,RSVPtest,171,g,false,387.20000076293945,0,b,,2,3,0,
44s,RSVPtest,172,g,false,387.3999996185303,0,b,,2,3,0,
44s,RSVPtest,173,g,true,467.3000011444092,1,r,,3,2,1,
44s,RSVPtest,174,g,true,276.8999996185303,0,b,,3,3,0,
44s,RSVPtest,175,g,true,805.8999996185303,2,g,,1,1,2,
44s,RSVPtest,176,g,null,null,2,g,,0,2,1,
44s,RSVPtest,177,g,null,null,2,g,,3,0,1,
44s,RSVPtest,178,g,null,null,2,g,,0,2,1,
44s,RSVPtest,179,g,true,402,1,r,,0,0,2,
44s,RSVPtest,180,g,true,532.8999996185303,1,r,,3,0,1,
brk,brk,brk,brk,brk,brk,brk,brk,brk,brk,brk,brk,
44s,RSVPtest,181,g,true,1046.8999996185303,2,g,,0,0,2,
44s,RSVPtest,182,g,true,418.6000003814697,2,g,,2,2,2,
44s,RSVPtest,183,g,true,708.8999996185303,2,g,,3,0,1,
44s,RSVPtest,184,g,false,597.4000015258789,1,r,,0,1,1,
44s,RSVPtest,185,g,false,561.5,2,g,,0,1,1,
44s,RSVPtest,186,g,true,355.70000076293945,2,g,,3,2,1,
44s,RSVPtest,187,g,true,420.29999923706055,0,b,,0,3,0,
44s,RSVPtest,188,g,false,563.8999996185303,1,r,,2,1,1,
44s,RSVPtest,189,g,false,403.3999996185303,1,r,,3,0,1,
44s,RSVPtest,190,g,true,386.79999923706055,1,r,,3,2,1,
44s,RSVPtest,191,g,false,644,1,r,,1,0,1,
44s,RSVPtest,192,g,false,531,0,b,,3,3,0,
44s,RSVPtest,193,g,null,null,1,r,,1,1,2,
44s,RSVPtest,194,g,true,2208.300001144409,2,g,,2,1,1,
44s,RSVPtest,195,g,true,708.1000003814697,2,g,,2,0,1,
44s,RSVPtest,196,g,false,564.2000007629395,1,r,,0,2,1,
44s,RSVPtest,197,g,null,null,2,g,,1,0,1,
44s,RSVPtest,198,g,false,1682,2,g,,3,2,1,
44s,RSVPtest,199,g,null,null,0,b,,2,3,0,
44s,RSVPtest,200,g,true,2034.1000003814697,2,g,,3,2,1,
44s,RSVPtest,201,g,false,513.8999996185303,2,g,,2,0,1,
44s,RSVPtest,202,g,false,643.2999992370605,1,r,,0,2,1,
44s,RSVPtest,203,g,true,436.29999923706055,1,r,,3,0,1,
44s,RSVPtest,204,g,false,421.1000003814697,0,b,,2,3,0,
44s,RSVPtest,205,g,true,514.3000011444092,2,g,,0,2,1,
44s,RSVPtest,206,g,false,500.6000003814697,0,b,,1,3,0,
44s,RSVPtest,207,g,true,452.20000076293945,1,r,,3,1,1,
44s,RSVPtest,208,g,true,310.1999988555908,2,g,,3,0,1,
44s,RSVPtest,209,g,true,356.3000011444092,1,r,,2,0,1,
44s,RSVPtest,210,g,false,547.2999992370605,0,b,,0,3,0,
44s,RSVPtest,211,g,false,500.3000011444092,0,b,,3,3,0,
44s,RSVPtest,212,g,true,259.70000076293945,1,r,,3,1,1,
44s,RSVPtest,213,g,false,515.3999996185303,0,b,,2,3,0,
44s,RSVPtest,214,g,null,null,1,r,,3,0,1,
44s,RSVPtest,215,g,true,482.5,1,r,,3,2,1,
44s,RSVPtest,216,g,false,563.5,1,r,,0,0,2,
44s,RSVPtest,217,g,true,868.8000011444092,2,g,,3,0,1,
44s,RSVPtest,218,g,null,null,1,r,,3,1,1,
44s,RSVPtest,219,g,false,452.1000003814697,0,b,,2,3,0,
44s,RSVPtest,220,g,true,131.79999923706055,1,r,,0,1,1,
44s,RSVPtest,221,g,false,260.6000003814697,1,r,,2,0,1,
44s,RSVPtest,222,g,null,null,1,r,,3,2,1,
44s,RSVPtest,223,g,null,null,2,g,,1,1,2,
44s,RSVPtest,224,g,null,null,2,g,,0,1,1,
44s,RSVPtest,225,g,false,362.29999923706055,2,g,,1,2,1,
44s,RSVPtest,226,g,null,null,1,r,,2,0,1,
44s,RSVPtest,227,g,false,851.6000003814697,1,r,,1,1,2,
44s,RSVPtest,228,g,null,null,0,b,,3,3,0,
44s,RSVPtest,229,g,null,null,2,g,,3,1,1,
44s,RSVPtest,230,g,null,null,0,b,,1,3,0,
44s,RSVPtest,231,g,null,null,1,r,,3,2,1,
44s,RSVPtest,232,g,true,267.5,1,r,,3,1,1,
44s,RSVPtest,233,g,null,null,2,g,,1,2,1,
44s,RSVPtest,234,g,null,null,2,g,,0,0,2,
44s,RSVPtest,235,g,true,271.79999923706055,2,g,,3,1,1,
44s,RSVPtest,236,g,false,273.8999996185303,2,g,,0,0,2,
44s,RSVPtest,237,g,null,null,1,r,,2,1,1,
44s,RSVPtest,238,g,true,1504.3000011444092,2,g,,3,2,1,
44s,RSVPtest,239,g,true,1105.6999988555908,1,r,,0,1,1,
44s,RSVPtest,240,g,true,257.70000076293945,0,b,,3,3,0,
