subID,trialType,trialNum,cntBalance,correct,rt,rwdType,tgtCol,tgtDir,tgtPos,colPos,colMatch,
bg9,VDACtrain,0,g,null,null,2,g,v,0,,,
bg9,VDACtrain,0,g,false,777.3999999761581,1,r,h,0,,,
bg9,VDACtrain,0,g,null,null,2,g,v,5,,,
bg9,VDACtrain,0,g,null,null,2,g,h,5,,,
bg9,VDACtrain,0,g,true,966.7999999523163,2,g,h,3,,,
bg9,VDACtrain,0,g,true,888.5,1,r,h,1,,,
bg9,VDACtrain,0,g,null,null,1,r,h,2,,,
bg9,VDACtrain,0,g,true,794.5,1,r,v,3,,,
bg9,VDACtrain,0,g,null,null,2,g,v,2,,,
bg9,VDACtrain,0,g,null,null,1,r,v,4,,,
bg9,VDACtest,1,g,true,635.3999999761581,1,r,v,3,,,
bg9,VDACtest,2,g,true,841.7000000476837,2,g,v,2,,,
bg9,VDACtest,3,g,true,807.6999999284744,2,g,h,3,,,
bg9,VDACtest,4,g,true,824.4000000953674,1,r,h,2,,,
bg9,VDACtest,5,g,true,761.6000000238419,1,r,v,2,,,
bg9,VDACtest,6,g,true,887.5,1,r,v,4,,,
bg9,VDACtest,7,g,null,null,1,r,h,0,,,
bg9,VDACtest,8,g,null,null,2,g,v,5,,,
bg9,VDACtest,9,g,null,null,2,g,h,2,,,
bg9,VDACtest,10,g,true,953,1,r,v,5,,,
bg9,VDACtest,11,g,true,920.3999999761581,2,g,h,1,,,
bg9,VDACtest,12,g,null,null,2,g,h,4,,,
bg9,VDACtest,13,g,true,871.5,2,g,v,2,,,
bg9,VDACtest,14,g,true,713.7999999523163,1,r,v,4,,,
bg9,VDACtest,15,g,null,null,1,r,h,1,,,
bg9,VDACtest,16,g,null,null,1,r,h,0,,,
bg9,VDACtest,17,g,true,808.3999999761581,1,r,v,5,,,
bg9,VDACtest,18,g,true,681.4000000953674,1,r,h,2,,,
bg9,VDACtest,19,g,true,776.7999999523163,1,r,h,4,,,
bg9,VDACtest,20,g,null,null,2,g,h,5,,,
bg9,VDACtest,21,g,true,922.6000000238419,2,g,v,0,,,
bg9,VDACtest,22,g,false,999.2999999523163,2,g,v,1,,,
bg9,VDACtest,23,g,true,793.6999999284744,1,r,h,4,,,
bg9,VDACtest,24,g,null,null,1,r,h,5,,,
bg9,VDACtest,25,g,true,858.1999999284744,2,g,v,5,,,
bg9,VDACtest,26,g,true,839.6999999284744,2,g,h,4,,,
bg9,VDACtest,27,g,true,663.7000000476837,2,g,h,4,,,
bg9,VDACtest,28,g,true,599.3999999761581,1,r,v,4,,,
bg9,VDACtest,29,g,true,744.3999999761581,2,g,v,5,,,
bg9,VDACtest,30,g,true,695.3999999761581,1,r,v,0,,,
bg9,VDACtest,31,g,true,536.5,1,r,v,0,,,
bg9,VDACtest,32,g,true,552.3000000715256,1,r,h,1,,,
bg9,VDACtest,33,g,true,634.1000000238419,1,r,v,0,,,
bg9,VDACtest,34,g,true,648.2999999523163,1,r,h,3,,,
bg9,VDACtest,35,g,true,664.5999999046326,1,r,v,5,,,
bg9,VDACtest,36,g,false,664.6000000238419,1,r,v,1,,,
bg9,VDACtest,37,g,true,856.1000000238419,1,r,h,5,,,
bg9,VDACtest,38,g,true,648.2000000476837,1,r,v,1,,,
bg9,VDACtest,39,g,true,505.5,1,r,h,2,,,
bg9,VDACtest,40,g,true,536.1000000238419,1,r,v,0,,,
bg9,VDACtest,41,g,true,693.8999999761581,1,r,v,2,,,
bg9,VDACtest,42,g,true,569,1,r,h,3,,,
bg9,VDACtest,43,g,true,712.5,1,r,h,5,,,
bg9,VDACtest,44,g,false,601.1000000238419,2,g,h,3,,,
bg9,VDACtest,45,g,true,953.2999999523163,2,g,h,4,,,
bg9,VDACtest,46,g,true,616.6000000238419,2,g,v,5,,,
bg9,VDACtest,47,g,true,663.7000000476837,1,r,v,4,,,
bg9,VDACtest,48,g,true,665.2000000476837,2,g,h,3,,,
bg9,VDACtest,49,g,true,793.3999999761581,1,r,v,4,,,
bg9,VDACtest,50,g,false,793.1000000238419,2,g,v,5,,,
brk,brk,brk,brk,brk,brk,brk,brk,brk,brk,brk,brk,
bg9,VDACtest,51,g,null,null,2,g,v,5,,,
bg9,VDACtest,52,g,true,636.3999999761581,2,g,h,3,,,
bg9,VDACtest,53,g,null,null,2,g,h,1,,,
bg9,VDACtest,54,g,null,null,2,g,v,0,,,
bg9,VDACtest,55,g,true,680.3999999761581,1,r,v,0,,,
bg9,VDACtest,56,g,null,null,2,g,h,1,,,
bg9,VDACtest,57,g,true,742.5,1,r,h,2,,,
bg9,VDACtest,58,g,true,663,2,g,v,1,,,
bg9,VDACtest,59,g,true,760,2,g,v,3,,,
bg9,VDACtest,60,g,true,503.40000009536743,1,r,v,5,,,
bg9,VDACtest,61,g,true,455.40000009536743,1,r,h,3,,,
bg9,VDACtest,62,g,false,616.2999999523163,2,g,v,2,,,
bg9,VDACtest,63,g,true,840.9000000953674,1,r,v,1,,,
bg9,VDACtest,64,g,true,649.8000000715256,2,g,v,4,,,
bg9,VDACtest,65,g,false,984.7999999523163,1,r,h,0,,,
bg9,VDACtest,66,g,null,null,1,r,v,4,,,
bg9,VDACtest,67,g,true,568.7999999523163,2,g,h,5,,,
bg9,VDACtest,68,g,true,777.2999999523163,2,g,h,2,,,
bg9,VDACtest,69,g,true,968.2999999523163,2,g,v,4,,,
bg9,VDACtest,70,g,true,808.8999999761581,2,g,v,4,,,
bg9,VDACtest,71,g,true,552.2000000476837,2,g,h,4,,,
bg9,VDACtest,72,g,true,649.2999999523163,2,g,v,1,,,
bg9,VDACtest,73,g,false,569.8999999761581,1,r,v,1,,,
bg9,VDACtest,74,g,true,554.2999999523163,2,g,h,4,,,
bg9,VDACtest,75,g,true,744.7999999523163,2,g,h,4,,,
bg9,VDACtest,76,g,true,745.8000000715256,1,r,v,1,,,
bg9,VDACtest,77,g,true,696.5,2,g,v,4,,,
bg9,VDACtest,78,g,true,600.7999999523163,2,g,h,3,,,
bg9,VDACtest,79,g,true,681.5999999046326,1,r,v,4,,,
bg9,VDACtest,80,g,true,712.1999999284744,2,g,h,0,,,
bg9,VDACtest,81,g,true,711.6000000238419,1,r,v,2,,,
bg9,VDACtest,82,g,true,633.6999999284744,2,g,h,2,,,
bg9,VDACtest,83,g,true,568.8999999761581,2,g,v,2,,,
bg9,VDACtest,84,g,true,615.5,2,g,h,1,,,
bg9,VDACtest,85,g,false,648,2,g,v,3,,,
bg9,VDACtest,86,g,true,730.1000000238419,1,r,h,5,,,
bg9,VDACtest,87,g,true,521.2000000476837,2,g,v,4,,,
bg9,VDACtest,88,g,true,569.1000000238419,2,g,v,4,,,
bg9,VDACtest,89,g,true,648,2,g,v,1,,,
bg9,VDACtest,90,g,true,551.8999999761581,2,g,v,3,,,
bg9,VDACtest,91,g,true,504.8000000715256,2,g,v,2,,,
bg9,VDACtest,92,g,true,536.1000000238419,2,g,v,2,,,
bg9,VDACtest,93,g,true,600.8000000715256,1,r,h,2,,,
bg9,VDACtest,94,g,true,840.8999999761581,1,r,v,5,,,
bg9,VDACtest,95,g,true,665.5999999046326,2,g,v,1,,,
bg9,VDACtest,96,g,true,584.1000000238419,1,r,v,0,,,
bg9,VDACtest,97,g,true,631.7999999523163,1,r,v,3,,,
bg9,VDACtest,98,g,true,617.0999999046326,1,r,h,3,,,
bg9,VDACtest,99,g,true,728.6000000238419,2,g,h,1,,,
bg9,VDACtest,100,g,true,582.6000000238419,1,r,h,3,,,
brk,brk,brk,brk,brk,brk,brk,brk,brk,brk,brk,brk,
bg9,VDACtest,101,g,true,676.6000000238419,1,r,h,1,,,
bg9,VDACtest,102,g,true,696.7000000476837,1,r,v,2,,,
bg9,VDACtest,103,g,true,537,2,g,v,1,,,
bg9,VDACtest,104,g,true,552.7999999523163,1,r,v,3,,,
bg9,VDACtest,105,g,true,551.3999999761581,2,g,h,0,,,
bg9,VDACtest,106,g,true,697.7999999523163,2,g,h,0,,,
bg9,VDACtest,107,g,false,537.6999999284744,2,g,v,0,,,
bg9,VDACtest,108,g,true,613.3999999761581,2,g,h,0,,,
bg9,VDACtest,109,g,true,586.2000000476837,1,r,v,1,,,
bg9,VDACtest,110,g,true,601.2000000476837,1,r,h,0,,,
bg9,VDACtest,111,g,true,696,2,g,v,3,,,
bg9,VDACtest,112,g,true,646.9000000953674,2,g,v,2,,,
bg9,VDACtest,113,g,true,743.3000000715256,1,r,h,5,,,
bg9,VDACtest,114,g,true,519.5999999046326,2,g,v,3,,,
bg9,VDACtest,115,g,true,535.6000000238419,1,r,v,2,,,
bg9,VDACtest,116,g,true,649.7000000476837,2,g,h,3,,,
bg9,VDACtest,117,g,true,600.2999999523163,1,r,h,1,,,
bg9,VDACtest,118,g,true,553.3000000715256,2,g,v,1,,,
bg9,VDACtest,119,g,true,440.60000002384186,2,g,h,2,,,
bg9,VDACtest,120,g,true,520.5999999046326,2,g,v,4,,,
bg9,VDACtest,121,g,true,599.6000000238419,1,r,h,4,,,
bg9,VDACtest,122,g,true,616.8000000715256,2,g,h,1,,,
bg9,VDACtest,123,g,true,472,1,r,v,2,,,
bg9,VDACtest,124,g,true,808.7999999523163,2,g,h,5,,,
bg9,VDACtest,125,g,true,520,2,g,h,2,,,
bg9,VDACtest,126,g,true,665.0999999046326,1,r,h,3,,,
bg9,VDACtest,127,g,true,632.1000000238419,1,r,h,4,,,
bg9,VDACtest,128,g,true,616.1000000238419,1,r,h,0,,,
bg9,VDACtest,129,g,true,601.8000000715256,2,g,h,2,,,
bg9,VDACtest,130,g,true,680.6999999284744,2,g,v,0,,,
bg9,VDACtest,131,g,null,null,1,r,h,2,,,
bg9,VDACtest,132,g,true,616,1,r,h,5,,,
bg9,VDACtest,133,g,true,503.5,1,r,h,4,,,
bg9,VDACtest,134,g,true,807.8999999761581,2,g,h,1,,,
bg9,VDACtest,135,g,true,632.8999999761581,2,g,h,2,,,
bg9,VDACtest,136,g,true,486.5,1,r,h,2,,,
bg9,VDACtest,137,g,true,840.3999999761581,1,r,h,3,,,
bg9,VDACtest,138,g,true,632.7000000476837,1,r,v,2,,,
bg9,VDACtest,139,g,true,696,1,r,h,0,,,
bg9,VDACtest,140,g,true,601.3000000715256,2,g,v,0,,,
bg9,VDACtest,141,g,true,666.2999999523163,2,g,v,3,,,
bg9,VDACtest,142,g,true,599.9000000953674,2,g,v,0,,,
bg9,VDACtest,143,g,true,663.9000000953674,2,g,h,4,,,
bg9,VDACtest,144,g,false,633,1,r,h,0,,,
bg9,VDACtest,145,g,true,535.2000000476837,2,g,h,2,,,
bg9,VDACtest,146,g,true,585,1,r,h,1,,,
bg9,VDACtest,147,g,true,568.3999999761581,1,r,v,3,,,
bg9,VDACtest,148,g,true,760.3000000715256,1,r,v,5,,,
bg9,VDACtest,149,g,true,617.2000000476837,1,r,v,2,,,
bg9,VDACtest,150,g,true,569.2999999523163,2,g,h,5,,,
brk,brk,brk,brk,brk,brk,brk,brk,brk,brk,brk,brk,
bg9,VDACtest,151,g,true,753.1999999284744,2,g,v,5,,,
bg9,VDACtest,152,g,true,504.8000000715256,2,g,v,4,,,
bg9,VDACtest,153,g,true,664.2999999523163,1,r,h,1,,,
bg9,VDACtest,154,g,true,569.2000000476837,2,g,h,5,,,
bg9,VDACtest,155,g,true,567,2,g,h,0,,,
bg9,VDACtest,156,g,true,504.7999999523163,2,g,h,1,,,
bg9,VDACtest,157,g,true,648.0999999046326,1,r,v,3,,,
bg9,VDACtest,158,g,true,441.2000000476837,2,g,v,3,,,
bg9,VDACtest,159,g,true,663.7999999523163,1,r,h,4,,,
bg9,VDACtest,160,g,true,728.6000000238419,1,r,v,1,,,
bg9,VDACtest,161,g,true,551.8000000715256,1,r,h,5,,,
bg9,VDACtest,162,g,true,600.1999999284744,1,r,v,5,,,
bg9,VDACtest,163,g,true,745.1999999284744,2,g,h,0,,,
bg9,VDACtest,164,g,true,600.5,2,g,v,0,,,
bg9,VDACtest,165,g,true,535.4000000953674,1,r,h,2,,,
bg9,VDACtest,166,g,true,567.9000000953674,1,r,h,1,,,
bg9,VDACtest,167,g,true,745.1000000238419,2,g,h,5,,,
bg9,VDACtest,168,g,true,663.1000000238419,1,r,h,4,,,
bg9,VDACtest,169,g,true,633.8000000715256,2,g,v,0,,,
bg9,VDACtest,170,g,true,518.2999999523163,1,r,v,1,,,
bg9,VDACtest,171,g,true,552.5,1,r,h,1,,,
bg9,VDACtest,172,g,true,582.6000000238419,1,r,h,4,,,
bg9,VDACtest,173,g,true,936,2,g,h,0,,,
bg9,VDACtest,174,g,true,568.1000000238419,1,r,h,1,,,
bg9,VDACtest,175,g,true,504.60000002384186,1,r,h,3,,,
bg9,VDACtest,176,g,true,681.3999999761581,1,r,v,3,,,
bg9,VDACtest,177,g,true,663.3999999761581,2,g,v,3,,,
bg9,VDACtest,178,g,true,552.7000000476837,1,r,v,1,,,
bg9,VDACtest,179,g,true,585.5999999046326,1,r,h,0,,,
bg9,VDACtest,180,g,true,617,2,g,v,2,,,
bg9,VDACtest,181,g,true,602.3999999761581,2,g,v,4,,,
bg9,VDACtest,182,g,true,584.5,1,r,v,5,,,
bg9,VDACtest,183,g,true,569,2,g,h,4,,,
bg9,VDACtest,184,g,true,664.3999999761581,1,r,v,0,,,
bg9,VDACtest,185,g,true,649.6000000238419,1,r,h,5,,,
bg9,VDACtest,186,g,true,600.1000000238419,2,g,h,0,,,
bg9,VDACtest,187,g,true,551.7999999523163,2,g,h,3,,,
bg9,VDACtest,188,g,true,648.1000000238419,1,r,h,4,,,
bg9,VDACtest,189,g,true,551.6999999284744,1,r,v,4,,,
bg9,VDACtest,190,g,true,600.6999999284744,2,g,h,1,,,
bg9,VDACtest,191,g,true,553.1000000238419,1,r,v,3,,,
bg9,VDACtest,192,g,true,537.0999999046326,1,r,v,3,,,
bg9,VDACtest,193,g,true,840.1000000238419,2,g,v,1,,,
bg9,VDACtest,194,g,true,888,2,g,h,5,,,
bg9,VDACtest,195,g,true,585.1999999284744,1,r,v,4,,,
bg9,VDACtest,196,g,true,616.7000000476837,1,r,v,0,,,
bg9,VDACtest,197,g,true,536.6000000238419,2,g,h,3,,,
bg9,VDACtest,198,g,true,776,2,g,h,5,,,
bg9,VDACtest,199,g,true,584.1000000238419,2,g,v,5,,,
bg9,VDACtest,200,g,true,617.6000000238419,2,g,v,1,,,
bg9,RSVPtrain,0,g,null,null,2,g,,2,2,2,
bg9,RSVPtrain,0,g,null,null,0,b,,0,3,0,
bg9,RSVPtrain,0,g,true,1304.7999999523163,2,g,,1,0,1,
bg9,RSVPtrain,0,g,true,1402.5999999046326,2,g,,3,1,1,
bg9,RSVPtrain,0,g,true,1308.1999999284744,0,b,,3,3,0,
bg9,RSVPtrain,0,g,false,955,0,b,,1,3,0,
bg9,RSVPtrain,0,g,true,745,1,r,,3,2,1,
bg9,RSVPtrain,0,g,true,1003.8999999761581,1,r,,1,1,2,
bg9,RSVPtrain,0,g,true,955.6999999284744,2,g,,3,0,1,
bg9,RSVPtrain,0,g,true,893.5,1,r,,0,0,2,
bg9,RSVPtest,1,g,true,637.8999999761581,0,b,,3,3,0,
bg9,RSVPtest,2,g,true,682.3000000715256,2,g,,1,2,1,
bg9,RSVPtest,3,g,false,828.3000000715256,2,g,,3,0,1,
bg9,RSVPtest,4,g,true,698.2000000476837,1,r,,0,1,1,
bg9,RSVPtest,5,g,true,750.2000000476837,0,b,,2,3,0,
bg9,RSVPtest,6,g,false,1064.8000000715256,2,g,,2,2,2,
bg9,RSVPtest,7,g,true,778.5,1,r,,2,0,1,
bg9,RSVPtest,8,g,true,698.7999999523163,1,r,,1,2,1,
bg9,RSVPtest,9,g,true,701.2000000476837,2,g,,0,1,1,
bg9,RSVPtest,10,g,true,971.8999999761581,2,g,,3,1,1,
bg9,RSVPtest,11,g,false,826.6000000238419,2,g,,3,2,1,
bg9,RSVPtest,12,g,true,714.2999999523163,1,r,,0,1,1,
bg9,RSVPtest,13,g,true,812.5,2,g,,3,1,1,
bg9,RSVPtest,14,g,true,666.7999999523163,2,g,,1,1,2,
bg9,RSVPtest,15,g,true,778.5,2,g,,0,0,2,
bg9,RSVPtest,16,g,true,555.5999999046326,2,g,,1,2,1,
bg9,RSVPtest,17,g,true,954.6000000238419,1,r,,3,0,1,
bg9,RSVPtest,18,g,false,762.5999999046326,0,b,,3,3,0,
bg9,RSVPtest,19,g,true,715.8000000715256,1,r,,3,1,1,
bg9,RSVPtest,20,g,true,602,1,r,,0,2,1,
bg9,RSVPtest,21,g,true,875.2999999523163,0,b,,0,3,0,
bg9,RSVPtest,22,g,true,1066.6999999284744,2,g,,0,2,1,
bg9,RSVPtest,23,g,true,541.3999999761581,2,g,,2,0,1,
bg9,RSVPtest,24,g,false,1290.6000000238419,2,g,,1,0,1,
bg9,RSVPtest,25,g,true,586.7000000476837,2,g,,0,2,1,
bg9,RSVPtest,26,g,true,905,1,r,,0,1,1,
bg9,RSVPtest,27,g,true,1116.8999999761581,2,g,,3,1,1,
bg9,RSVPtest,28,g,true,539,1,r,,2,2,2,
bg9,RSVPtest,29,g,true,683.7000000476837,1,r,,1,1,2,
bg9,RSVPtest,30,g,true,553.8999999761581,2,g,,2,1,1,
bg9,RSVPtest,31,g,true,652.1999999284744,1,r,,1,2,1,
bg9,RSVPtest,32,g,true,714.7999999523163,1,r,,2,2,2,
bg9,RSVPtest,33,g,true,570.6999999284744,2,g,,0,1,1,
bg9,RSVPtest,34,g,false,778.6999999284744,1,r,,1,2,1,
bg9,RSVPtest,35,g,true,714.9000000953674,1,r,,2,1,1,
bg9,RSVPtest,36,g,true,700.2000000476837,2,g,,2,2,2,
bg9,RSVPtest,37,g,true,476.5,1,r,,0,0,2,
bg9,RSVPtest,38,g,true,537.8999999761581,1,r,,0,2,1,
bg9,RSVPtest,39,g,true,459.2000000476837,2,g,,2,2,2,
bg9,RSVPtest,40,g,false,825.3999999761581,1,r,,2,1,1,
bg9,RSVPtest,41,g,false,907,2,g,,3,0,1,
bg9,RSVPtest,42,g,true,811.8999999761581,0,b,,3,3,0,
bg9,RSVPtest,43,g,true,714.6000000238419,1,r,,3,0,1,
bg9,RSVPtest,44,g,true,521.5999999046326,2,g,,0,2,1,
bg9,RSVPtest,45,g,true,842.1999999284744,2,g,,3,2,1,
bg9,RSVPtest,46,g,false,778.4000000953674,2,g,,1,1,2,
bg9,RSVPtest,47,g,true,523.7999999523163,0,b,,2,3,0,
bg9,RSVPtest,48,g,true,732.5,2,g,,0,2,1,
bg9,RSVPtest,49,g,true,634.8999999761581,1,r,,3,1,1,
bg9,RSVPtest,50,g,false,522.1000000238419,0,b,,3,3,0,
bg9,RSVPtest,51,g,true,634.6999999284744,2,g,,2,1,1,
bg9,RSVPtest,52,g,true,666.8999999761581,2,g,,3,1,1,
bg9,RSVPtest,53,g,true,540.8999999761581,2,g,,0,0,2,
bg9,RSVPtest,54,g,true,698.6000000238419,1,r,,2,2,2,
bg9,RSVPtest,55,g,false,731.8999999761581,1,r,,1,2,1,
bg9,RSVPtest,56,g,false,969.8999999761581,2,g,,3,1,1,
bg9,RSVPtest,57,g,false,1019.9000000953674,2,g,,2,2,2,
bg9,RSVPtest,58,g,true,635.7999999523163,2,g,,3,0,1,
bg9,RSVPtest,59,g,true,762.3000000715256,2,g,,3,2,1,
bg9,RSVPtest,60,g,true,536.1999999284744,2,g,,2,0,1,
brk,brk,brk,brk,brk,brk,brk,brk,brk,brk,brk,brk,
bg9,RSVPtest,61,g,true,695.8999999761581,2,g,,3,2,1,
bg9,RSVPtest,62,g,true,568.7000000476837,1,r,,1,0,1,
bg9,RSVPtest,63,g,true,682.2999999523163,0,b,,3,3,0,
bg9,RSVPtest,64,g,true,761.2000000476837,0,b,,1,3,0,
bg9,RSVPtest,65,g,false,889.2999999523163,1,r,,0,2,1,
bg9,RSVPtest,66,g,true,954.5,2,g,,1,1,2,
bg9,RSVPtest,67,g,true,954.2000000476837,2,g,,0,2,1,
bg9,RSVPtest,68,g,true,586.2999999523163,2,g,,2,1,1,
bg9,RSVPtest,69,g,true,634.2999999523163,2,g,,3,2,1,
bg9,RSVPtest,70,g,true,872.7999999523163,2,g,,0,1,1,
bg9,RSVPtest,71,g,false,906.7000000476837,1,r,,0,0,2,
bg9,RSVPtest,72,g,false,889.0999999046326,0,b,,2,3,0,
bg9,RSVPtest,73,g,true,699.8999999761581,2,g,,3,0,1,
bg9,RSVPtest,74,g,true,712.5999999046326,1,r,,0,1,1,
bg9,RSVPtest,75,g,false,1257.8999999761581,2,g,,1,0,1,
bg9,RSVPtest,76,g,false,1083.2999999523163,2,g,,1,2,1,
bg9,RSVPtest,77,g,false,1113.7000000476837,1,r,,3,2,1,
bg9,RSVPtest,78,g,true,618.7999999523163,2,g,,0,1,1,
bg9,RSVPtest,79,g,true,649.3999999761581,1,r,,3,2,1,
bg9,RSVPtest,80,g,true,586.7000000476837,0,b,,3,3,0,
bg9,RSVPtest,81,g,true,795.2999999523163,1,r,,2,1,1,
bg9,RSVPtest,82,g,false,1081.6000000238419,2,g,,2,1,1,
bg9,RSVPtest,83,g,true,746.2000000476837,2,g,,3,1,1,
bg9,RSVPtest,84,g,true,826.5,2,g,,3,1,1,
bg9,RSVPtest,85,g,false,951.8999999761581,0,b,,2,3,0,
bg9,RSVPtest,86,g,true,920.5,1,r,,3,2,1,
bg9,RSVPtest,87,g,true,794.5,1,r,,3,1,1,
bg9,RSVPtest,88,g,true,728.2000000476837,1,r,,3,2,1,
bg9,RSVPtest,89,g,true,940.3999999761581,2,g,,2,0,1,
bg9,RSVPtest,90,g,true,761.7999999523163,1,r,,3,2,1,
bg9,RSVPtest,91,g,true,987.2000000476837,1,r,,3,0,1,
bg9,RSVPtest,92,g,true,809.7999999523163,0,b,,0,3,0,
bg9,RSVPtest,93,g,true,666.7000000476837,1,r,,0,0,2,
bg9,RSVPtest,94,g,false,857,1,r,,3,0,1,
bg9,RSVPtest,95,g,true,729.1000000238419,1,r,,3,2,1,
bg9,RSVPtest,96,g,true,842.1999999284744,2,g,,2,0,1,
bg9,RSVPtest,97,g,true,586.2000000476837,0,b,,1,3,0,
bg9,RSVPtest,98,g,true,889.0999999046326,1,r,,3,1,1,
bg9,RSVPtest,99,g,false,857,2,g,,1,2,1,
bg9,RSVPtest,100,g,true,583.8999999761581,0,b,,1,3,0,
bg9,RSVPtest,101,g,true,747.6000000238419,1,r,,3,1,1,
bg9,RSVPtest,102,g,true,443.89999997615814,0,b,,2,3,0,
bg9,RSVPtest,103,g,false,1355.1000000238419,2,g,,3,1,1,
bg9,RSVPtest,104,g,false,569.8999999761581,0,b,,1,3,0,
bg9,RSVPtest,105,g,true,601.1999999284744,2,g,,3,2,1,
bg9,RSVPtest,106,g,true,633.1000000238419,1,r,,3,0,1,
bg9,RSVPtest,107,g,true,760.2000000476837,1,r,,3,2,1,
bg9,RSVPtest,108,g,true,858.7000000476837,2,g,,0,1,1,
bg9,RSVPtest,109,g,false,731.6999999284744,1,r,,2,2,2,
bg9,RSVPtest,110,g,false,675.5,1,r,,3,0,1,
bg9,RSVPtest,111,g,true,698.1000000238419,0,b,,3,3,0,
bg9,RSVPtest,112,g,true,617.2000000476837,2,g,,3,0,1,
bg9,RSVPtest,113,g,false,616.3999999761581,0,b,,2,3,0,
bg9,RSVPtest,114,g,true,774.6000000238419,0,b,,3,3,0,
bg9,RSVPtest,115,g,false,697.6000000238419,2,g,,2,2,2,
bg9,RSVPtest,116,g,true,729.6999999284744,2,g,,1,2,1,
bg9,RSVPtest,117,g,true,601.3000000715256,0,b,,0,3,0,
bg9,RSVPtest,118,g,true,583.2999999523163,1,r,,0,2,1,
bg9,RSVPtest,119,g,true,921.6999999284744,2,g,,3,0,1,
bg9,RSVPtest,120,g,true,715.1999999284744,1,r,,1,1,2,
brk,brk,brk,brk,brk,brk,brk,brk,brk,brk,brk,brk,
bg9,RSVPtest,121,g,true,562.1000000238419,0,b,,2,3,0,
bg9,RSVPtest,122,g,true,631.2000000476837,2,g,,2,0,1,
bg9,RSVPtest,123,g,false,665.1000000238419,1,r,,2,1,1,
bg9,RSVPtest,124,g,true,569.5,0,b,,3,3,0,
bg9,RSVPtest,125,g,true,823.5999999046326,1,r,,3,2,1,
bg9,RSVPtest,126,g,true,567.3999999761581,0,b,,3,3,0,
bg9,RSVPtest,127,g,false,666,1,r,,2,1,1,
bg9,RSVPtest,128,g,true,537.6000000238419,2,g,,3,1,1,
bg9,RSVPtest,129,g,true,696.8999999761581,1,r,,3,2,1,
bg9,RSVPtest,130,g,true,600.2999999523163,1,r,,0,1,1,
bg9,RSVPtest,131,g,true,712.7999999523163,1,r,,3,0,1,
bg9,RSVPtest,132,g,true,711.6999999284744,0,b,,0,3,0,
bg9,RSVPtest,133,g,true,696.7000000476837,1,r,,1,0,1,
bg9,RSVPtest,134,g,true,921.1000000238419,2,g,,2,1,1,
bg9,RSVPtest,135,g,true,439.2999999523163,2,g,,2,2,2,
bg9,RSVPtest,136,g,true,587.3000000715256,1,r,,3,1,1,
bg9,RSVPtest,137,g,true,665.8999999761581,2,g,,3,0,1,
bg9,RSVPtest,138,g,true,745,2,g,,3,1,1,
bg9,RSVPtest,139,g,true,712.3999999761581,0,b,,0,3,0,
bg9,RSVPtest,140,g,true,585.5,2,g,,0,0,2,
bg9,RSVPtest,141,g,true,633.5,1,r,,2,2,2,
bg9,RSVPtest,142,g,true,568.8999999761581,1,r,,1,0,1,
bg9,RSVPtest,143,g,true,920.3999999761581,0,b,,2,3,0,
bg9,RSVPtest,144,g,true,727.6000000238419,1,r,,3,0,1,
bg9,RSVPtest,145,g,true,680.7999999523163,2,g,,0,0,2,
bg9,RSVPtest,146,g,true,487.6999999284744,1,r,,2,0,1,
bg9,RSVPtest,147,g,false,568.9000000953674,2,g,,3,2,1,
bg9,RSVPtest,148,g,true,790.8999999761581,1,r,,3,1,1,
bg9,RSVPtest,149,g,true,761.2000000476837,2,g,,0,2,1,
bg9,RSVPtest,150,g,true,873.1999999284744,2,g,,3,0,1,
bg9,RSVPtest,151,g,true,777.6000000238419,0,b,,3,3,0,
bg9,RSVPtest,152,g,true,792.6999999284744,0,b,,1,3,0,
bg9,RSVPtest,153,g,true,680.7000000476837,1,r,,2,2,2,
bg9,RSVPtest,154,g,true,695.6999999284744,2,g,,0,0,2,
bg9,RSVPtest,155,g,true,742.3999999761581,2,g,,3,2,1,
bg9,RSVPtest,156,g,true,565,1,r,,2,0,1,
bg9,RSVPtest,157,g,true,536.1000000238419,2,g,,1,0,1,
bg9,RSVPtest,158,g,true,648.1999999284744,1,r,,0,1,1,
bg9,RSVPtest,159,g,true,759,0,b,,1,3,0,
bg9,RSVPtest,160,g,true,584.2000000476837,0,b,,1,3,0,
bg9,RSVPtest,161,g,true,682.1000000238419,2,g,,3,2,1,
bg9,RSVPtest,162,g,true,518.8999999761581,0,b,,0,3,0,
bg9,RSVPtest,163,g,true,520.2999999523163,0,b,,0,3,0,
bg9,RSVPtest,164,g,true,745.1999999284744,0,b,,0,3,0,
bg9,RSVPtest,165,g,false,874.7999999523163,1,r,,3,0,1,
bg9,RSVPtest,166,g,true,711.2000000476837,0,b,,3,3,0,
bg9,RSVPtest,167,g,true,649.6000000238419,1,r,,1,2,1,
bg9,RSVPtest,168,g,false,616.8999999761581,0,b,,3,3,0,
bg9,RSVPtest,169,g,true,602,1,r,,0,2,1,
bg9,RSVPtest,170,g,false,519.6999999284744,1,r,,1,2,1,
bg9,RSVPtest,171,g,false,809.4000000953674,0,b,,2,3,0,
bg9,RSVPtest,172,g,true,745,1,r,,3,0,1,
bg9,RSVPtest,173,g,false,838.5,2,g,,2,0,1,
bg9,RSVPtest,174,g,true,775.6000000238419,0,b,,2,3,0,
bg9,RSVPtest,175,g,true,567.3999999761581,2,g,,1,0,1,
bg9,RSVPtest,176,g,true,840,0,b,,1,3,0,
bg9,RSVPtest,177,g,false,681.3999999761581,2,g,,3,2,1,
bg9,RSVPtest,178,g,true,618.5,0,b,,1,3,0,
bg9,RSVPtest,179,g,false,743,0,b,,2,3,0,
bg9,RSVPtest,180,g,true,631.8999999761581,2,g,,0,0,2,
brk,brk,brk,brk,brk,brk,brk,brk,brk,brk,brk,brk,
bg9,RSVPtest,181,g,true,653.1999999284744,2,g,,3,0,1,
bg9,RSVPtest,182,g,true,823.8999999761581,1,r,,1,1,2,
bg9,RSVPtest,183,g,true,902.5,0,b,,0,3,0,
bg9,RSVPtest,184,g,true,648,0,b,,1,3,0,
bg9,RSVPtest,185,g,true,567.8000000715256,1,r,,2,0,1,
bg9,RSVPtest,186,g,true,727.1000000238419,2,g,,3,1,1,
bg9,RSVPtest,187,g,true,1161.5,0,b,,3,3,0,
bg9,RSVPtest,188,g,true,503.39999997615814,0,b,,0,3,0,
bg9,RSVPtest,189,g,true,728.7000000476837,0,b,,3,3,0,
bg9,RSVPtest,190,g,false,597.6999999284744,2,g,,3,1,1,
bg9,RSVPtest,191,g,true,759.8000000715256,1,r,,3,2,1,
bg9,RSVPtest,192,g,false,791.1999999284744,0,b,,3,3,0,
bg9,RSVPtest,193,g,true,680.5,1,r,,3,1,1,
bg9,RSVPtest,194,g,true,614.7999999523163,0,b,,0,3,0,
bg9,RSVPtest,195,g,true,505.60000002384186,2,g,,1,1,2,
bg9,RSVPtest,196,g,true,853.6000000238419,1,r,,3,1,1,
bg9,RSVPtest,197,g,true,695,2,g,,1,0,1,
bg9,RSVPtest,198,g,true,1125.9000000953674,0,b,,3,3,0,
bg9,RSVPtest,199,g,true,726.6999999284744,1,r,,3,2,1,
bg9,RSVPtest,200,g,true,792.7000000476837,1,r,,3,1,1,
bg9,RSVPtest,201,g,false,792.1000000238419,2,g,,2,1,1,
bg9,RSVPtest,202,g,false,645.8999999761581,0,b,,3,3,0,
bg9,RSVPtest,203,g,true,1017.0999999046326,2,g,,3,0,1,
bg9,RSVPtest,204,g,true,581.6000000238419,1,r,,0,0,2,
bg9,RSVPtest,205,g,true,649.3000000715256,2,g,,3,2,1,
bg9,RSVPtest,206,g,false,663.7999999523163,1,r,,3,1,1,
bg9,RSVPtest,207,g,true,646.2000000476837,1,r,,3,0,1,
bg9,RSVPtest,208,g,true,698.6999999284744,1,r,,2,1,1,
bg9,RSVPtest,209,g,true,679.5,1,r,,2,0,1,
bg9,RSVPtest,210,g,true,568.3999999761581,1,r,,2,0,1,
bg9,RSVPtest,211,g,true,823.3000000715256,0,b,,3,3,0,
bg9,RSVPtest,212,g,true,694,0,b,,2,3,0,
bg9,RSVPtest,213,g,true,1001.1000000238419,2,g,,1,2,1,
bg9,RSVPtest,214,g,true,534.7999999523163,0,b,,1,3,0,
bg9,RSVPtest,215,g,true,616.8000000715256,1,r,,0,0,2,
bg9,RSVPtest,216,g,false,744.6999999284744,1,r,,3,0,1,
bg9,RSVPtest,217,g,true,600.6000000238419,0,b,,1,3,0,
bg9,RSVPtest,218,g,true,552.2000000476837,2,g,,3,0,1,
bg9,RSVPtest,219,g,true,648,1,r,,1,0,1,
bg9,RSVPtest,220,g,false,789.6000000238419,0,b,,3,3,0,
bg9,RSVPtest,221,g,true,742.2999999523163,1,r,,1,1,2,
bg9,RSVPtest,222,g,true,1206.5,1,r,,1,0,1,
bg9,RSVPtest,223,g,true,759.7999999523163,2,g,,1,1,2,
bg9,RSVPtest,224,g,false,1382,0,b,,3,3,0,
bg9,RSVPtest,225,g,true,455.60000002384186,0,b,,0,3,0,
bg9,RSVPtest,226,g,true,775.2000000476837,2,g,,3,0,1,
bg9,RSVPtest,227,g,true,663.5,2,g,,0,1,1,
bg9,RSVPtest,228,g,false,1047.5,1,r,,3,1,1,
bg9,RSVPtest,229,g,true,775.3000000715256,1,r,,1,1,2,
bg9,RSVPtest,230,g,false,776.2999999523163,2,g,,1,0,1,
bg9,RSVPtest,231,g,true,629.8999999761581,1,r,,1,1,2,
bg9,RSVPtest,232,g,true,868.7999999523163,0,b,,3,3,0,
bg9,RSVPtest,233,g,true,759.2000000476837,0,b,,3,3,0,
bg9,RSVPtest,234,g,true,807.3999999761581,1,r,,0,0,2,
bg9,RSVPtest,235,g,true,501.7000000476837,1,r,,0,2,1,
bg9,RSVPtest,236,g,true,886.6000000238419,1,r,,1,0,1,
bg9,RSVPtest,237,g,false,1108.2999999523163,1,r,,3,2,1,
bg9,RSVPtest,238,g,false,759.2999999523163,0,b,,3,3,0,
bg9,RSVPtest,239,g,true,838.1000000238419,2,g,,3,2,1,
bg9,RSVPtest,240,g,true,534.5,2,g,,1,1,2,
