subID,trialType,trialNum,cntBalance,correct,rt,rwdType,tgtCol,tgtDir,tgtPos,colPos,colMatch,
ldu,VDACtrain,0,g,null,null,2,g,v,5,,,
ldu,VDACtrain,0,g,true,607.5,2,g,h,3,,,
ldu,VDACtrain,0,g,true,685.2999999523163,1,r,v,3,,,
ldu,VDACtrain,0,g,false,588.2999999523163,1,r,v,4,,,
ldu,VDACtrain,0,g,true,893.3000000715256,1,r,h,1,,,
ldu,VDACtrain,0,g,false,684.3999999761581,2,g,v,2,,,
ldu,VDACtrain,0,g,false,814.7999999523163,1,r,h,0,,,
ldu,VDACtrain,0,g,true,718.8999999761581,1,r,h,2,,,
ldu,VDACtrain,0,g,true,783,2,g,h,5,,,
ldu,VDACtrain,0,g,null,null,2,g,v,0,,,
ldu,VDACtest,1,g,true,736.2000000476837,2,g,h,4,,,
ldu,VDACtest,2,g,true,892.8999999761581,2,g,h,1,,,
ldu,VDACtest,3,g,null,null,1,r,v,3,,,
ldu,VDACtest,4,g,true,769.6000000238419,2,g,h,2,,,
ldu,VDACtest,5,g,true,719.1000000238419,1,r,h,0,,,
ldu,VDACtest,6,g,true,797.6000000238419,1,r,v,4,,,
ldu,VDACtest,7,g,true,637.5,2,g,v,5,,,
ldu,VDACtest,8,g,false,846.7000000476837,1,r,v,5,,,
ldu,VDACtest,9,g,true,989.1000000238419,2,g,h,4,,,
ldu,VDACtest,10,g,true,764.8999999761581,1,r,v,5,,,
ldu,VDACtest,11,g,true,717.1999999284744,1,r,v,0,,,
ldu,VDACtest,12,g,true,702.8999999761581,1,r,v,1,,,
ldu,VDACtest,13,g,true,686.1000000238419,2,g,v,3,,,
ldu,VDACtest,14,g,true,845.1999999284744,1,r,v,0,,,
ldu,VDACtest,15,g,true,559.5,1,r,v,1,,,
ldu,VDACtest,16,g,true,541.1999999284744,1,r,v,5,,,
ldu,VDACtest,17,g,false,685.7000000476837,2,g,v,4,,,
ldu,VDACtest,18,g,true,623.6000000238419,2,g,h,3,,,
ldu,VDACtest,19,g,false,589.8999999761581,2,g,v,2,,,
ldu,VDACtest,20,g,true,669.4000000953674,2,g,v,0,,,
ldu,VDACtest,21,g,true,653.1000000238419,2,g,v,0,,,
ldu,VDACtest,22,g,true,526.6999999284744,2,g,v,3,,,
ldu,VDACtest,23,g,false,478.40000009536743,2,g,h,5,,,
ldu,VDACtest,24,g,false,573.2999999523163,2,g,h,5,,,
ldu,VDACtest,25,g,true,910.6000000238419,1,r,h,1,,,
ldu,VDACtest,26,g,true,652.7000000476837,1,r,h,1,,,
ldu,VDACtest,27,g,true,751,2,g,v,5,,,
ldu,VDACtest,28,g,true,622.1999999284744,1,r,h,2,,,
ldu,VDACtest,29,g,true,653.3999999761581,1,r,h,1,,,
ldu,VDACtest,30,g,true,943.1999999284744,2,g,v,1,,,
ldu,VDACtest,31,g,null,null,2,g,v,2,,,
ldu,VDACtest,32,g,false,833.5,2,g,h,2,,,
ldu,VDACtest,33,g,true,686.3000000715256,2,g,v,3,,,
ldu,VDACtest,34,g,true,733.5,1,r,h,3,,,
ldu,VDACtest,35,g,false,860.5,2,g,h,0,,,
ldu,VDACtest,36,g,true,781.3000000715256,2,g,v,3,,,
ldu,VDACtest,37,g,true,812.8999999761581,1,r,h,0,,,
ldu,VDACtest,38,g,true,783.0999999046326,2,g,h,4,,,
ldu,VDACtest,39,g,true,717.8999999761581,1,r,h,3,,,
ldu,VDACtest,40,g,true,719.5,2,g,h,5,,,
ldu,VDACtest,41,g,true,717.8000000715256,1,r,v,5,,,
ldu,VDACtest,42,g,false,957.8000000715256,1,r,v,1,,,
ldu,VDACtest,43,g,true,782.7999999523163,1,r,v,4,,,
ldu,VDACtest,44,g,true,876.3999999761581,2,g,h,2,,,
ldu,VDACtest,45,g,true,766.8000000715256,2,g,h,5,,,
ldu,VDACtest,46,g,null,null,1,r,h,4,,,
ldu,VDACtest,47,g,true,897.1000000238419,2,g,v,0,,,
ldu,VDACtest,48,g,true,974,1,r,h,0,,,
ldu,VDACtest,49,g,true,719.6999999284744,1,r,h,5,,,
ldu,VDACtest,50,g,true,605.3999999761581,2,g,h,5,,,
brk,brk,brk,brk,brk,brk,brk,brk,brk,brk,brk,brk,
ldu,VDACtest,51,g,null,null,2,g,h,1,,,
ldu,VDACtest,52,g,true,779.7000000476837,1,r,h,5,,,
ldu,VDACtest,53,g,true,734.7999999523163,2,g,v,5,,,
ldu,VDACtest,54,g,true,892.7000000476837,1,r,h,0,,,
ldu,VDACtest,55,g,true,878.6000000238419,1,r,v,2,,,
ldu,VDACtest,56,g,true,717.2999999523163,2,g,v,3,,,
ldu,VDACtest,57,g,true,718.3999999761581,1,r,v,4,,,
ldu,VDACtest,58,g,true,716.8000000715256,1,r,h,1,,,
ldu,VDACtest,59,g,true,941.1000000238419,2,g,h,1,,,
ldu,VDACtest,60,g,true,750.1000000238419,2,g,h,3,,,
ldu,VDACtest,61,g,true,621.5,2,g,v,4,,,
ldu,VDACtest,62,g,true,685.8999999761581,2,g,h,1,,,
ldu,VDACtest,63,g,true,767,1,r,v,1,,,
ldu,VDACtest,64,g,null,null,2,g,h,4,,,
ldu,VDACtest,65,g,true,704.8999999761581,2,g,h,2,,,
ldu,VDACtest,66,g,true,718.5,2,g,h,5,,,
ldu,VDACtest,67,g,true,670,1,r,h,4,,,
ldu,VDACtest,68,g,true,670.5,2,g,v,4,,,
ldu,VDACtest,69,g,true,747.9000000953674,2,g,h,4,,,
ldu,VDACtest,70,g,true,654.2999999523163,1,r,h,4,,,
ldu,VDACtest,71,g,true,814.6000000238419,2,g,v,2,,,
ldu,VDACtest,72,g,true,748.3999999761581,2,g,h,2,,,
ldu,VDACtest,73,g,true,814,2,g,v,1,,,
ldu,VDACtest,74,g,true,636.6999999284744,2,g,v,0,,,
ldu,VDACtest,75,g,true,654.8000000715256,2,g,h,5,,,
ldu,VDACtest,76,g,true,716.6999999284744,1,r,h,4,,,
ldu,VDACtest,77,g,true,668.8999999761581,2,g,h,3,,,
ldu,VDACtest,78,g,true,669,2,g,v,2,,,
ldu,VDACtest,79,g,true,924.6999999284744,1,r,v,1,,,
ldu,VDACtest,80,g,true,669.6000000238419,1,r,h,4,,,
ldu,VDACtest,81,g,true,652.7999999523163,2,g,v,4,,,
ldu,VDACtest,82,g,true,653.5,1,r,v,3,,,
ldu,VDACtest,83,g,true,796.8000000715256,2,g,v,1,,,
ldu,VDACtest,84,g,true,735,1,r,v,5,,,
ldu,VDACtest,85,g,true,668.2000000476837,1,r,v,2,,,
ldu,VDACtest,86,g,true,668.8000000715256,2,g,v,4,,,
ldu,VDACtest,87,g,true,557.8999999761581,2,g,v,3,,,
ldu,VDACtest,88,g,true,829.5999999046326,1,r,v,1,,,
ldu,VDACtest,89,g,true,973.9000000953674,2,g,h,0,,,
ldu,VDACtest,90,g,true,590.8999999761581,1,r,h,3,,,
ldu,VDACtest,91,g,true,829.7000000476837,2,g,h,0,,,
ldu,VDACtest,92,g,true,557.3000000715256,2,g,h,2,,,
ldu,VDACtest,93,g,true,830.5999999046326,1,r,h,2,,,
ldu,VDACtest,94,g,true,685.6000000238419,1,r,v,2,,,
ldu,VDACtest,95,g,true,844.3000000715256,1,r,v,1,,,
ldu,VDACtest,96,g,true,637.5,1,r,v,0,,,
ldu,VDACtest,97,g,true,621.6000000238419,1,r,v,4,,,
ldu,VDACtest,98,g,null,null,1,r,h,0,,,
ldu,VDACtest,99,g,true,691.6000000238419,2,g,v,0,,,
ldu,VDACtest,100,g,false,815,1,r,v,0,,,
brk,brk,brk,brk,brk,brk,brk,brk,brk,brk,brk,brk,
ldu,VDACtest,101,g,null,null,1,r,v,3,,,
ldu,VDACtest,102,g,true,617.7999999523163,1,r,v,0,,,
ldu,VDACtest,103,g,true,558.5,1,r,v,5,,,
ldu,VDACtest,104,g,true,942.3000000715256,2,g,v,1,,,
ldu,VDACtest,105,g,true,702.5999999046326,2,g,h,4,,,
ldu,VDACtest,106,g,true,733.5,2,g,v,5,,,
ldu,VDACtest,107,g,true,574.8999999761581,2,g,v,0,,,
ldu,VDACtest,108,g,true,638.4000000953674,2,g,h,2,,,
ldu,VDACtest,109,g,true,653.8000000715256,1,r,v,4,,,
ldu,VDACtest,110,g,true,718.6000000238419,1,r,h,1,,,
ldu,VDACtest,111,g,true,813.1000000238419,1,r,h,5,,,
ldu,VDACtest,112,g,null,null,2,g,v,2,,,
ldu,VDACtest,113,g,true,593.7999999523163,2,g,v,2,,,
ldu,VDACtest,114,g,true,717.6000000238419,1,r,h,2,,,
ldu,VDACtest,115,g,true,556.8000000715256,2,g,v,5,,,
ldu,VDACtest,116,g,true,622.3999999761581,2,g,v,4,,,
ldu,VDACtest,117,g,true,637.6000000238419,1,r,h,2,,,
ldu,VDACtest,118,g,true,813.1000000238419,2,g,v,1,,,
ldu,VDACtest,119,g,true,814.5,1,r,v,2,,,
ldu,VDACtest,120,g,true,652.7000000476837,1,r,v,1,,,
ldu,VDACtest,121,g,true,572.3999999761581,2,g,v,4,,,
ldu,VDACtest,122,g,true,781.8000000715256,1,r,h,1,,,
ldu,VDACtest,123,g,true,989.2000000476837,2,g,h,0,,,
ldu,VDACtest,124,g,true,748.6000000238419,1,r,v,4,,,
ldu,VDACtest,125,g,true,655.1000000238419,1,r,h,2,,,
ldu,VDACtest,126,g,true,700.8999999761581,1,r,h,1,,,
ldu,VDACtest,127,g,true,701.6000000238419,2,g,h,1,,,
ldu,VDACtest,128,g,true,813.7000000476837,1,r,v,0,,,
ldu,VDACtest,129,g,true,763,2,g,h,3,,,
ldu,VDACtest,130,g,true,798.3999999761581,1,r,v,2,,,
ldu,VDACtest,131,g,false,781.7000000476837,1,r,h,0,,,
ldu,VDACtest,132,g,true,876.1000000238419,2,g,v,1,,,
ldu,VDACtest,133,g,null,null,2,g,h,1,,,
ldu,VDACtest,134,g,true,836.3000000715256,1,r,h,5,,,
ldu,VDACtest,135,g,true,669.2000000476837,2,g,h,3,,,
ldu,VDACtest,136,g,false,813.8000000715256,2,g,h,0,,,
ldu,VDACtest,137,g,true,956.1000000238419,2,g,h,0,,,
ldu,VDACtest,138,g,true,749.2000000476837,2,g,h,4,,,
ldu,VDACtest,139,g,true,685.5,2,g,h,0,,,
ldu,VDACtest,140,g,true,780.8000000715256,1,r,v,4,,,
ldu,VDACtest,141,g,true,798,1,r,h,3,,,
ldu,VDACtest,142,g,true,876.5,2,g,v,1,,,
ldu,VDACtest,143,g,true,718,2,g,h,3,,,
ldu,VDACtest,144,g,true,828.7000000476837,2,g,h,5,,,
ldu,VDACtest,145,g,true,605.7999999523163,2,g,h,4,,,
ldu,VDACtest,146,g,true,669,1,r,h,0,,,
ldu,VDACtest,147,g,true,526.6000000238419,1,r,h,5,,,
ldu,VDACtest,148,g,true,653.6999999284744,1,r,v,5,,,
ldu,VDACtest,149,g,false,779.5,1,r,v,5,,,
ldu,VDACtest,150,g,true,765.8000000715256,1,r,v,3,,,
brk,brk,brk,brk,brk,brk,brk,brk,brk,brk,brk,brk,
ldu,VDACtest,151,g,true,756.5,1,r,h,3,,,
ldu,VDACtest,152,g,true,653.5,2,g,v,5,,,
ldu,VDACtest,153,g,true,847,2,g,v,1,,,
ldu,VDACtest,154,g,true,861.3999999761581,1,r,h,5,,,
ldu,VDACtest,155,g,true,603.7000000476837,2,g,v,0,,,
ldu,VDACtest,156,g,true,622.1999999284744,2,g,v,2,,,
ldu,VDACtest,157,g,true,637.0999999046326,2,g,h,2,,,
ldu,VDACtest,158,g,true,701,1,r,v,3,,,
ldu,VDACtest,159,g,true,716,2,g,v,0,,,
ldu,VDACtest,160,g,true,733.1000000238419,1,r,v,3,,,
ldu,VDACtest,161,g,true,829.2000000476837,1,r,h,1,,,
ldu,VDACtest,162,g,false,732.8000000715256,1,r,v,2,,,
ldu,VDACtest,163,g,true,652.6000000238419,1,r,v,4,,,
ldu,VDACtest,164,g,true,605.1000000238419,1,r,v,2,,,
ldu,VDACtest,165,g,true,653.5,1,r,h,2,,,
ldu,VDACtest,166,g,true,764.8999999761581,1,r,v,4,,,
ldu,VDACtest,167,g,true,845.7000000476837,2,g,v,5,,,
ldu,VDACtest,168,g,true,621.3000000715256,1,r,h,5,,,
ldu,VDACtest,169,g,true,654.1000000238419,1,r,v,1,,,
ldu,VDACtest,170,g,true,653.8000000715256,1,r,h,2,,,
ldu,VDACtest,171,g,true,654.7000000476837,1,r,v,0,,,
ldu,VDACtest,172,g,true,684.8999999761581,2,g,v,5,,,
ldu,VDACtest,173,g,true,606,2,g,v,1,,,
ldu,VDACtest,174,g,true,860.3999999761581,2,g,h,3,,,
ldu,VDACtest,175,g,true,797.1999999284744,1,r,v,2,,,
ldu,VDACtest,176,g,true,683.6000000238419,1,r,h,4,,,
ldu,VDACtest,177,g,false,670.5,2,g,h,0,,,
ldu,VDACtest,178,g,true,540.8000000715256,2,g,v,4,,,
ldu,VDACtest,179,g,false,829.1000000238419,1,r,v,3,,,
ldu,VDACtest,180,g,true,622.5,1,r,h,4,,,
ldu,VDACtest,181,g,true,590.7000000476837,1,r,h,5,,,
ldu,VDACtest,182,g,true,812.1000000238419,2,g,h,4,,,
ldu,VDACtest,183,g,true,700.8999999761581,1,r,h,3,,,
ldu,VDACtest,184,g,true,814.7999999523163,2,g,h,1,,,
ldu,VDACtest,185,g,true,764.7999999523163,2,g,v,3,,,
ldu,VDACtest,186,g,true,701.7999999523163,1,r,v,3,,,
ldu,VDACtest,187,g,true,573.6000000238419,2,g,v,4,,,
ldu,VDACtest,188,g,true,764.5,1,r,h,4,,,
ldu,VDACtest,189,g,true,702.8999999761581,2,g,v,3,,,
ldu,VDACtest,190,g,true,732.3999999761581,1,r,h,4,,,
ldu,VDACtest,191,g,true,939.6000000238419,1,r,h,0,,,
ldu,VDACtest,192,g,true,750,1,r,v,0,,,
ldu,VDACtest,193,g,true,974,2,g,h,1,,,
ldu,VDACtest,194,g,true,750.6000000238419,1,r,h,3,,,
ldu,VDACtest,195,g,true,605.8000000715256,2,g,h,3,,,
ldu,VDACtest,196,g,true,765.3999999761581,2,g,v,2,,,
ldu,VDACtest,197,g,true,605,1,r,h,3,,,
ldu,VDACtest,198,g,true,830,2,g,h,1,,,
ldu,VDACtest,199,g,true,605.1000000238419,1,r,h,1,,,
ldu,VDACtest,200,g,true,588.7000000476837,1,r,h,2,,,
ldu,RSVPtrain,0,g,true,1117.6999999284744,0,b,,1,3,0,
ldu,RSVPtrain,0,g,true,1536.8000000715256,1,r,,1,1,2,
ldu,RSVPtrain,0,g,true,865,2,g,,1,0,1,
ldu,RSVPtrain,0,g,false,576.5,1,r,,0,0,2,
ldu,RSVPtrain,0,g,true,1233.7000000476837,0,b,,3,3,0,
ldu,RSVPtrain,0,g,true,1009.7000000476837,2,g,,3,1,1,
ldu,RSVPtrain,0,g,false,1327.5,2,g,,2,2,2,
ldu,RSVPtrain,0,g,true,1456.6999999284744,2,g,,3,0,1,
ldu,RSVPtrain,0,g,true,866.3000000715256,1,r,,3,2,1,
ldu,RSVPtrain,0,g,true,1584.6000000238419,0,b,,0,3,0,
ldu,RSVPtest,1,g,true,1651,2,g,,3,0,1,
ldu,RSVPtest,2,g,true,896.8999999761581,2,g,,0,0,2,
ldu,RSVPtest,3,g,true,1058,1,r,,1,0,1,
ldu,RSVPtest,4,g,true,783.1999999284744,1,r,,3,2,1,
ldu,RSVPtest,5,g,true,1263.3000000715256,1,r,,2,1,1,
ldu,RSVPtest,6,g,true,929.6999999284744,0,b,,0,3,0,
ldu,RSVPtest,7,g,true,1695.2999999523163,2,g,,2,0,1,
ldu,RSVPtest,8,g,true,989.6000000238419,0,b,,3,3,0,
ldu,RSVPtest,9,g,false,993,2,g,,1,0,1,
ldu,RSVPtest,10,g,true,925.6999999284744,2,g,,3,2,1,
ldu,RSVPtest,11,g,true,799.3000000715256,2,g,,3,0,1,
ldu,RSVPtest,12,g,true,991.2999999523163,1,r,,2,2,2,
ldu,RSVPtest,13,g,true,865.2999999523163,1,r,,0,2,1,
ldu,RSVPtest,14,g,true,847.2999999523163,0,b,,0,3,0,
ldu,RSVPtest,15,g,true,897.7000000476837,2,g,,3,1,1,
ldu,RSVPtest,16,g,true,799.6000000238419,0,b,,2,3,0,
ldu,RSVPtest,17,g,true,881,0,b,,1,3,0,
ldu,RSVPtest,18,g,true,798.9000000953674,1,r,,1,0,1,
ldu,RSVPtest,19,g,true,831.2999999523163,0,b,,1,3,0,
ldu,RSVPtest,20,g,true,1312,0,b,,1,3,0,
ldu,RSVPtest,21,g,true,946.8999999761581,1,r,,3,1,1,
ldu,RSVPtest,22,g,true,751.1000000238419,2,g,,1,0,1,
ldu,RSVPtest,23,g,false,898.1999999284744,1,r,,1,1,2,
ldu,RSVPtest,24,g,true,1089.3999999761581,1,r,,3,1,1,
ldu,RSVPtest,25,g,true,1298.1999999284744,0,b,,3,3,0,
ldu,RSVPtest,26,g,true,1102.8999999761581,2,g,,3,0,1,
ldu,RSVPtest,27,g,true,835.3999999761581,0,b,,0,3,0,
ldu,RSVPtest,28,g,true,1040.6000000238419,1,r,,2,2,2,
ldu,RSVPtest,29,g,true,1745.2000000476837,2,g,,3,1,1,
ldu,RSVPtest,30,g,true,1231.2999999523163,0,b,,0,3,0,
ldu,RSVPtest,31,g,true,1009.2000000476837,1,r,,3,0,1,
ldu,RSVPtest,32,g,false,974.2999999523163,2,g,,2,1,1,
ldu,RSVPtest,33,g,true,801.5,1,r,,3,0,1,
ldu,RSVPtest,34,g,true,1118.5,2,g,,2,1,1,
ldu,RSVPtest,35,g,true,880.7999999523163,1,r,,3,0,1,
ldu,RSVPtest,36,g,true,958.7999999523163,1,r,,2,0,1,
ldu,RSVPtest,37,g,true,1872.2999999523163,1,r,,1,2,1,
ldu,RSVPtest,38,g,true,1758.6000000238419,1,r,,3,2,1,
ldu,RSVPtest,39,g,true,1008.5,2,g,,3,0,1,
ldu,RSVPtest,40,g,true,1296,1,r,,3,1,1,
ldu,RSVPtest,41,g,true,992.3999999761581,1,r,,1,1,2,
ldu,RSVPtest,42,g,true,783.1000000238419,1,r,,3,2,1,
ldu,RSVPtest,43,g,false,1426.0999999046326,2,g,,0,1,1,
ldu,RSVPtest,44,g,true,686.3000000715256,2,g,,3,0,1,
ldu,RSVPtest,45,g,true,799.1999999284744,0,b,,3,3,0,
ldu,RSVPtest,46,g,true,718.7000000476837,1,r,,3,1,1,
ldu,RSVPtest,47,g,false,703.1000000238419,0,b,,3,3,0,
ldu,RSVPtest,48,g,true,1021.8999999761581,0,b,,1,3,0,
ldu,RSVPtest,49,g,true,783.1000000238419,2,g,,3,1,1,
ldu,RSVPtest,50,g,true,1199.2999999523163,0,b,,3,3,0,
ldu,RSVPtest,51,g,false,1597.2000000476837,1,r,,0,2,1,
ldu,RSVPtest,52,g,true,816.8999999761581,1,r,,2,0,1,
ldu,RSVPtest,53,g,true,799.6000000238419,2,g,,3,0,1,
ldu,RSVPtest,54,g,true,1247.5999999046326,2,g,,0,2,1,
ldu,RSVPtest,55,g,true,815,2,g,,2,2,2,
ldu,RSVPtest,56,g,false,1518.0999999046326,1,r,,0,1,1,
ldu,RSVPtest,57,g,true,863.8999999761581,2,g,,3,2,1,
ldu,RSVPtest,58,g,true,1248,1,r,,3,0,1,
ldu,RSVPtest,59,g,true,671.8999999761581,2,g,,1,1,2,
ldu,RSVPtest,60,g,true,767.0999999046326,0,b,,3,3,0,
brk,brk,brk,brk,brk,brk,brk,brk,brk,brk,brk,brk,
ldu,RSVPtest,61,g,false,1009.2999999523163,2,g,,0,2,1,
ldu,RSVPtest,62,g,true,1022.6000000238419,2,g,,3,2,1,
ldu,RSVPtest,63,g,true,832.3000000715256,1,r,,3,1,1,
ldu,RSVPtest,64,g,true,784.6000000238419,0,b,,3,3,0,
ldu,RSVPtest,65,g,true,639.8000000715256,0,b,,3,3,0,
ldu,RSVPtest,66,g,false,975.5,1,r,,1,2,1,
ldu,RSVPtest,67,g,true,607.5,1,r,,2,2,2,
ldu,RSVPtest,68,g,true,1183.3999999761581,1,r,,3,0,1,
ldu,RSVPtest,69,g,true,895,0,b,,3,3,0,
ldu,RSVPtest,70,g,false,928.6000000238419,2,g,,2,0,1,
ldu,RSVPtest,71,g,true,717.3000000715256,1,r,,2,0,1,
ldu,RSVPtest,72,g,true,862.9000000953674,2,g,,2,1,1,
ldu,RSVPtest,73,g,true,816.7000000476837,0,b,,3,3,0,
ldu,RSVPtest,74,g,true,910.2000000476837,0,b,,1,3,0,
ldu,RSVPtest,75,g,true,1024.8999999761581,1,r,,3,2,1,
ldu,RSVPtest,76,g,true,1373.2000000476837,0,b,,2,3,0,
ldu,RSVPtest,77,g,true,1087.5999999046326,1,r,,3,2,1,
ldu,RSVPtest,78,g,true,1199.2000000476837,2,g,,3,2,1,
ldu,RSVPtest,79,g,true,973.6999999284744,0,b,,2,3,0,
ldu,RSVPtest,80,g,true,780.7000000476837,1,r,,3,2,1,
ldu,RSVPtest,81,g,true,655.5,2,g,,1,1,2,
ldu,RSVPtest,82,g,true,719.1000000238419,2,g,,1,0,1,
ldu,RSVPtest,83,g,true,784.7000000476837,2,g,,2,0,1,
ldu,RSVPtest,84,g,true,719,2,g,,2,2,2,
ldu,RSVPtest,85,g,true,928.6000000238419,1,r,,3,0,1,
ldu,RSVPtest,86,g,true,1230.6999999284744,2,g,,2,2,2,
ldu,RSVPtest,87,g,true,864.4000000953674,2,g,,1,1,2,
ldu,RSVPtest,88,g,true,974.7999999523163,2,g,,3,1,1,
ldu,RSVPtest,89,g,true,957.7000000476837,2,g,,1,2,1,
ldu,RSVPtest,90,g,true,717.1999999284744,1,r,,1,0,1,
ldu,RSVPtest,91,g,true,1023.2999999523163,0,b,,1,3,0,
ldu,RSVPtest,92,g,true,942.7000000476837,2,g,,1,0,1,
ldu,RSVPtest,93,g,true,737.2000000476837,0,b,,3,3,0,
ldu,RSVPtest,94,g,false,1499.5,1,r,,3,2,1,
ldu,RSVPtest,95,g,true,814.2999999523163,0,b,,0,3,0,
ldu,RSVPtest,96,g,false,1502.9000000953674,2,g,,1,0,1,
ldu,RSVPtest,97,g,true,1165.1000000238419,1,r,,3,0,1,
ldu,RSVPtest,98,g,true,830.3000000715256,2,g,,3,0,1,
ldu,RSVPtest,99,g,true,766.6000000238419,0,b,,3,3,0,
ldu,RSVPtest,100,g,true,862.8999999761581,0,b,,1,3,0,
ldu,RSVPtest,101,g,true,704.7000000476837,1,r,,3,0,1,
ldu,RSVPtest,102,g,true,990.1999999284744,1,r,,0,0,2,
ldu,RSVPtest,103,g,true,784.2000000476837,0,b,,3,3,0,
ldu,RSVPtest,104,g,true,1775.3999999761581,2,g,,3,1,1,
ldu,RSVPtest,105,g,true,573.7000000476837,1,r,,0,1,1,
ldu,RSVPtest,106,g,true,863.6000000238419,0,b,,2,3,0,
ldu,RSVPtest,107,g,true,766.4000000953674,2,g,,0,2,1,
ldu,RSVPtest,108,g,true,718.3999999761581,1,r,,0,0,2,
ldu,RSVPtest,109,g,true,735.7999999523163,0,b,,3,3,0,
ldu,RSVPtest,110,g,true,813.6999999284744,2,g,,3,1,1,
ldu,RSVPtest,111,g,true,846.2000000476837,1,r,,0,2,1,
ldu,RSVPtest,112,g,true,830.2999999523163,1,r,,0,2,1,
ldu,RSVPtest,113,g,true,750,1,r,,3,2,1,
ldu,RSVPtest,114,g,true,1518.2999999523163,2,g,,3,2,1,
ldu,RSVPtest,115,g,true,814.3999999761581,0,b,,3,3,0,
ldu,RSVPtest,116,g,true,672.1000000238419,2,g,,3,2,1,
ldu,RSVPtest,117,g,true,1180.7000000476837,1,r,,0,0,2,
ldu,RSVPtest,118,g,true,734.3999999761581,2,g,,2,2,2,
ldu,RSVPtest,119,g,true,752.2999999523163,0,b,,3,3,0,
ldu,RSVPtest,120,g,true,765,2,g,,2,1,1,
brk,brk,brk,brk,brk,brk,brk,brk,brk,brk,brk,brk,
ldu,RSVPtest,121,g,true,773.1000000238419,2,g,,1,1,2,
ldu,RSVPtest,122,g,true,685.1000000238419,0,b,,2,3,0,
ldu,RSVPtest,123,g,true,908.2000000476837,1,r,,1,2,1,
ldu,RSVPtest,124,g,false,1277.6000000238419,1,r,,3,1,1,
ldu,RSVPtest,125,g,true,843.5,0,b,,0,3,0,
ldu,RSVPtest,126,g,true,1054.2999999523163,2,g,,3,0,1,
ldu,RSVPtest,127,g,false,1261,2,g,,2,1,1,
ldu,RSVPtest,128,g,true,653.1999999284744,2,g,,0,0,2,
ldu,RSVPtest,129,g,false,1070,0,b,,0,3,0,
ldu,RSVPtest,130,g,false,987,2,g,,0,0,2,
ldu,RSVPtest,131,g,true,686,0,b,,2,3,0,
ldu,RSVPtest,132,g,true,1595.3000000715256,0,b,,3,3,0,
ldu,RSVPtest,133,g,true,988.6999999284744,1,r,,2,0,1,
ldu,RSVPtest,134,g,false,1070.2000000476837,2,g,,2,2,2,
ldu,RSVPtest,135,g,true,587.7000000476837,0,b,,2,3,0,
ldu,RSVPtest,136,g,true,716.1000000238419,2,g,,0,0,2,
ldu,RSVPtest,137,g,true,863.8999999761581,1,r,,1,1,2,
ldu,RSVPtest,138,g,true,829.1000000238419,2,g,,2,0,1,
ldu,RSVPtest,139,g,true,814.2999999523163,0,b,,3,3,0,
ldu,RSVPtest,140,g,true,781.3000000715256,2,g,,2,0,1,
ldu,RSVPtest,141,g,true,557.4000000953674,0,b,,1,3,0,
ldu,RSVPtest,142,g,true,668.8999999761581,0,b,,1,3,0,
ldu,RSVPtest,143,g,true,845.5,1,r,,3,0,1,
ldu,RSVPtest,144,g,true,670.2999999523163,2,g,,0,0,2,
ldu,RSVPtest,145,g,false,1356.6000000238419,1,r,,1,0,1,
ldu,RSVPtest,146,g,true,765.3999999761581,2,g,,1,2,1,
ldu,RSVPtest,147,g,true,703.1000000238419,2,g,,3,2,1,
ldu,RSVPtest,148,g,true,685,2,g,,0,0,2,
ldu,RSVPtest,149,g,true,749.3999999761581,1,r,,2,1,1,
ldu,RSVPtest,150,g,true,669.7000000476837,0,b,,0,3,0,
ldu,RSVPtest,151,g,true,587.6000000238419,2,g,,1,2,1,
ldu,RSVPtest,152,g,true,765.4000000953674,2,g,,3,2,1,
ldu,RSVPtest,153,g,true,925.6000000238419,1,r,,3,1,1,
ldu,RSVPtest,154,g,true,2253.8000000715256,2,g,,1,1,2,
ldu,RSVPtest,155,g,true,605.2999999523163,1,r,,1,2,1,
ldu,RSVPtest,156,g,true,765.5,1,r,,0,1,1,
ldu,RSVPtest,157,g,true,877.6000000238419,1,r,,3,1,1,
ldu,RSVPtest,158,g,true,845.5,0,b,,3,3,0,
ldu,RSVPtest,159,g,true,893,2,g,,3,2,1,
ldu,RSVPtest,160,g,true,635.2000000476837,1,r,,2,2,2,
ldu,RSVPtest,161,g,true,957,1,r,,1,2,1,
ldu,RSVPtest,162,g,true,733.3000000715256,2,g,,3,1,1,
ldu,RSVPtest,163,g,true,605.7000000476837,0,b,,2,3,0,
ldu,RSVPtest,164,g,true,1067.6000000238419,2,g,,2,1,1,
ldu,RSVPtest,165,g,true,862.3000000715256,0,b,,1,3,0,
ldu,RSVPtest,166,g,false,603.6999999284744,1,r,,3,1,1,
ldu,RSVPtest,167,g,true,1164.6000000238419,1,r,,3,2,1,
ldu,RSVPtest,168,g,true,877,1,r,,1,0,1,
ldu,RSVPtest,169,g,true,1005.6000000238419,1,r,,2,1,1,
ldu,RSVPtest,170,g,true,875.8000000715256,1,r,,1,2,1,
ldu,RSVPtest,171,g,true,698.8999999761581,1,r,,3,2,1,
ldu,RSVPtest,172,g,true,700.6999999284744,0,b,,2,3,0,
ldu,RSVPtest,173,g,true,764.7999999523163,2,g,,3,1,1,
ldu,RSVPtest,174,g,true,733.1999999284744,0,b,,3,3,0,
ldu,RSVPtest,175,g,true,1052.3999999761581,0,b,,0,3,0,
ldu,RSVPtest,176,g,true,907.9000000953674,0,b,,0,3,0,
ldu,RSVPtest,177,g,true,1325.8999999761581,0,b,,0,3,0,
ldu,RSVPtest,178,g,true,651.3000000715256,0,b,,1,3,0,
ldu,RSVPtest,179,g,true,842.6999999284744,0,b,,0,3,0,
ldu,RSVPtest,180,g,true,1100.8999999761581,1,r,,2,2,2,
brk,brk,brk,brk,brk,brk,brk,brk,brk,brk,brk,brk,
ldu,RSVPtest,181,g,false,1007.2000000476837,2,g,,3,2,1,
ldu,RSVPtest,182,g,true,716.8999999761581,2,g,,0,2,1,
ldu,RSVPtest,183,g,true,780.1000000238419,1,r,,0,1,1,
ldu,RSVPtest,184,g,true,797,1,r,,0,1,1,
ldu,RSVPtest,185,g,true,1389.3000000715256,1,r,,3,1,1,
ldu,RSVPtest,186,g,true,941.5,2,g,,3,1,1,
ldu,RSVPtest,187,g,true,588.2999999523163,1,r,,2,1,1,
ldu,RSVPtest,188,g,false,958,1,r,,1,1,2,
ldu,RSVPtest,189,g,true,1644.8999999761581,2,g,,3,0,1,
ldu,RSVPtest,190,g,true,877.6000000238419,2,g,,1,2,1,
ldu,RSVPtest,191,g,true,924.5,2,g,,0,1,1,
ldu,RSVPtest,192,g,true,701.1000000238419,2,g,,3,1,1,
ldu,RSVPtest,193,g,true,1212.3999999761581,0,b,,1,3,0,
ldu,RSVPtest,194,g,true,605.6000000238419,1,r,,2,1,1,
ldu,RSVPtest,195,g,true,814.5,1,r,,1,1,2,
ldu,RSVPtest,196,g,true,666.7999999523163,0,b,,2,3,0,
ldu,RSVPtest,197,g,true,638.8999999761581,1,r,,2,0,1,
ldu,RSVPtest,198,g,false,1101.1000000238419,1,r,,0,0,2,
ldu,RSVPtest,199,g,true,492,1,r,,2,2,2,
ldu,RSVPtest,200,g,true,812.2999999523163,1,r,,0,1,1,
ldu,RSVPtest,201,g,true,812.6000000238419,2,g,,0,1,1,
ldu,RSVPtest,202,g,true,461,1,r,,2,0,1,
ldu,RSVPtest,203,g,true,731.1000000238419,2,g,,1,0,1,
ldu,RSVPtest,204,g,false,698.5,2,g,,3,2,1,
ldu,RSVPtest,205,g,true,812.5,1,r,,0,2,1,
ldu,RSVPtest,206,g,true,793.7999999523163,1,r,,0,2,1,
ldu,RSVPtest,207,g,false,685.7000000476837,2,g,,2,0,1,
ldu,RSVPtest,208,g,true,904.2000000476837,0,b,,3,3,0,
ldu,RSVPtest,209,g,true,1838.1000000238419,0,b,,3,3,0,
ldu,RSVPtest,210,g,true,891.6000000238419,2,g,,3,0,1,
ldu,RSVPtest,211,g,true,717.7999999523163,2,g,,2,2,2,
ldu,RSVPtest,212,g,true,1066.6000000238419,2,g,,3,1,1,
ldu,RSVPtest,213,g,true,893.1000000238419,2,g,,0,2,1,
ldu,RSVPtest,214,g,true,791.8999999761581,0,b,,2,3,0,
ldu,RSVPtest,215,g,true,571.5999999046326,1,r,,0,0,2,
ldu,RSVPtest,216,g,true,668.9000000953674,1,r,,3,0,1,
ldu,RSVPtest,217,g,true,636.0999999046326,1,r,,0,0,2,
ldu,RSVPtest,218,g,true,891.7999999523163,1,r,,3,0,1,
ldu,RSVPtest,219,g,true,1148.2999999523163,1,r,,3,2,1,
ldu,RSVPtest,220,g,true,555.3999999761581,2,g,,1,1,2,
ldu,RSVPtest,221,g,true,908,1,r,,3,1,1,
ldu,RSVPtest,222,g,true,810,2,g,,3,1,1,
ldu,RSVPtest,223,g,true,875.5,2,g,,0,1,1,
ldu,RSVPtest,224,g,true,813.5999999046326,2,g,,3,0,1,
ldu,RSVPtest,225,g,true,509.89999997615814,1,r,,2,1,1,
ldu,RSVPtest,226,g,true,762.8999999761581,2,g,,3,2,1,
ldu,RSVPtest,227,g,true,878.3000000715256,2,g,,3,0,1,
ldu,RSVPtest,228,g,true,1005.7000000476837,2,g,,0,1,1,
ldu,RSVPtest,229,g,true,891.5,2,g,,1,2,1,
ldu,RSVPtest,230,g,true,1069.8999999761581,1,r,,3,0,1,
ldu,RSVPtest,231,g,true,763,2,g,,0,2,1,
ldu,RSVPtest,232,g,true,1084.7000000476837,1,r,,3,2,1,
ldu,RSVPtest,233,g,true,939.8999999761581,1,r,,3,1,1,
ldu,RSVPtest,234,g,false,1004.5,2,g,,0,1,1,
ldu,RSVPtest,235,g,true,621.3999999761581,1,r,,1,0,1,
ldu,RSVPtest,236,g,true,747.6000000238419,1,r,,1,1,2,
ldu,RSVPtest,237,g,true,571.8999999761581,2,g,,1,2,1,
ldu,RSVPtest,238,g,false,716.2999999523163,0,b,,3,3,0,
ldu,RSVPtest,239,g,true,779.1999999284744,0,b,,3,3,0,
ldu,RSVPtest,240,g,true,730.5,0,b,,2,3,0,
