subID,trialType,trialNum,cntBalance,correct,rt,rwdType,tgtCol,tgtDir,tgtPos,colPos,colMatch,
qoq,VDACtrain,0,g,null,null,1,r,v,4,,,
qoq,VDACtrain,0,g,true,395.6999999284744,2,g,h,3,,,
qoq,VDACtrain,0,g,true,394.10000002384186,2,g,v,5,,,
qoq,VDACtrain,0,g,true,470.3000000715256,2,g,v,0,,,
qoq,VDACtrain,0,g,true,249.5,2,g,h,5,,,
qoq,VDACtrain,0,g,false,280.39999997615814,1,r,h,2,,,
qoq,VDACtrain,0,g,null,null,1,r,h,1,,,
qoq,VDACtrain,0,g,true,617.1000000238419,1,r,h,0,,,
qoq,VDACtrain,0,g,true,522.1999999284744,2,g,v,2,,,
qoq,VDACtrain,0,g,false,410.60000002384186,1,r,v,3,,,
qoq,VDACtest,1,g,true,493.6999999284744,2,g,h,3,,,
qoq,VDACtest,2,g,false,507.2000000476837,2,g,h,4,,,
qoq,VDACtest,3,g,true,570.2000000476837,2,g,h,3,,,
qoq,VDACtest,4,g,false,364.2000000476837,1,r,h,3,,,
qoq,VDACtest,5,g,true,748.7000000476837,1,r,h,4,,,
qoq,VDACtest,6,g,true,441.89999997615814,2,g,v,4,,,
qoq,VDACtest,7,g,true,538.8000000715256,2,g,h,5,,,
qoq,VDACtest,8,g,true,523.7999999523163,1,r,v,3,,,
qoq,VDACtest,9,g,true,555.1000000238419,2,g,v,0,,,
qoq,VDACtest,10,g,true,490.10000002384186,1,r,h,3,,,
qoq,VDACtest,11,g,false,444.5,1,r,v,2,,,
qoq,VDACtest,12,g,true,666.6000000238419,2,g,h,5,,,
qoq,VDACtest,13,g,true,428.5,1,r,h,3,,,
qoq,VDACtest,14,g,true,522.2999999523163,1,r,h,4,,,
qoq,VDACtest,15,g,true,555,2,g,v,0,,,
qoq,VDACtest,16,g,true,650.8000000715256,1,r,h,4,,,
qoq,VDACtest,17,g,true,651.5,1,r,v,4,,,
qoq,VDACtest,18,g,true,777.1999999284744,2,g,h,3,,,
qoq,VDACtest,19,g,true,667.2999999523163,2,g,h,2,,,
qoq,VDACtest,20,g,false,314.5,2,g,h,0,,,
qoq,VDACtest,21,g,true,411.2000000476837,1,r,v,4,,,
qoq,VDACtest,22,g,true,571.6999999284744,2,g,h,4,,,
qoq,VDACtest,23,g,false,683.7000000476837,2,g,v,2,,,
qoq,VDACtest,24,g,true,475.7000000476837,1,r,h,4,,,
qoq,VDACtest,25,g,null,null,1,r,h,2,,,
qoq,VDACtest,26,g,true,700.4000000953674,2,g,h,0,,,
qoq,VDACtest,27,g,true,683.6000000238419,2,g,h,4,,,
qoq,VDACtest,28,g,true,698.8999999761581,1,r,h,0,,,
qoq,VDACtest,29,g,true,747.8999999761581,2,g,h,1,,,
qoq,VDACtest,30,g,true,617.3999999761581,2,g,v,1,,,
qoq,VDACtest,31,g,true,507.39999997615814,1,r,v,4,,,
qoq,VDACtest,32,g,true,603.8000000715256,1,r,h,4,,,
qoq,VDACtest,33,g,true,571,2,g,v,1,,,
qoq,VDACtest,34,g,true,618.1000000238419,2,g,h,1,,,
qoq,VDACtest,35,g,false,551.8000000715256,2,g,h,1,,,
qoq,VDACtest,36,g,true,620.0999999046326,1,r,h,5,,,
qoq,VDACtest,37,g,true,539.0999999046326,1,r,h,5,,,
qoq,VDACtest,38,g,true,506.89999997615814,2,g,v,1,,,
qoq,VDACtest,39,g,false,475.60000002384186,1,r,v,3,,,
qoq,VDACtest,40,g,true,507.2000000476837,2,g,v,1,,,
qoq,VDACtest,41,g,true,649.7000000476837,2,g,v,2,,,
qoq,VDACtest,42,g,null,null,2,g,v,1,,,
qoq,VDACtest,43,g,true,766.8000000715256,2,g,v,1,,,
qoq,VDACtest,44,g,true,522.8999999761581,2,g,v,4,,,
qoq,VDACtest,45,g,true,699.7000000476837,1,r,h,4,,,
qoq,VDACtest,46,g,true,634.3999999761581,2,g,h,4,,,
qoq,VDACtest,47,g,true,635.6000000238419,2,g,h,0,,,
qoq,VDACtest,48,g,true,555.6000000238419,1,r,h,0,,,
qoq,VDACtest,49,g,false,506.7000000476837,1,r,v,5,,,
qoq,VDACtest,50,g,true,650,2,g,h,1,,,
brk,brk,brk,brk,brk,brk,brk,brk,brk,brk,brk,brk,
qoq,VDACtest,51,g,false,630.6000000238419,1,r,v,3,,,
qoq,VDACtest,52,g,true,725.1000000238419,1,r,h,2,,,
qoq,VDACtest,53,g,true,411.7999999523163,2,g,v,0,,,
qoq,VDACtest,54,g,true,427.2000000476837,2,g,h,4,,,
qoq,VDACtest,55,g,true,810.8000000715256,1,r,h,3,,,
qoq,VDACtest,56,g,true,473.7999999523163,2,g,v,4,,,
qoq,VDACtest,57,g,true,507.60000002384186,2,g,h,2,,,
qoq,VDACtest,58,g,true,506.8000000715256,2,g,h,5,,,
qoq,VDACtest,59,g,true,474.2999999523163,2,g,h,5,,,
qoq,VDACtest,60,g,true,586.6000000238419,1,r,v,2,,,
qoq,VDACtest,61,g,true,637,2,g,v,2,,,
qoq,VDACtest,62,g,null,null,1,r,h,1,,,
qoq,VDACtest,63,g,true,557.2000000476837,2,g,v,3,,,
qoq,VDACtest,64,g,true,539.4000000953674,1,r,v,3,,,
qoq,VDACtest,65,g,true,506.60000002384186,1,r,v,0,,,
qoq,VDACtest,66,g,true,587.1999999284744,1,r,h,1,,,
qoq,VDACtest,67,g,true,603.1000000238419,1,r,h,1,,,
qoq,VDACtest,68,g,false,651.6000000238419,1,r,h,1,,,
qoq,VDACtest,69,g,true,651.5,1,r,h,5,,,
qoq,VDACtest,70,g,true,459.10000002384186,1,r,h,2,,,
qoq,VDACtest,71,g,true,571.4000000953674,1,r,v,5,,,
qoq,VDACtest,72,g,true,745.3999999761581,1,r,h,2,,,
qoq,VDACtest,73,g,true,648.8999999761581,1,r,h,4,,,
qoq,VDACtest,74,g,true,488.2000000476837,1,r,v,5,,,
qoq,VDACtest,75,g,true,698.3999999761581,2,g,h,3,,,
qoq,VDACtest,76,g,true,603,1,r,h,1,,,
qoq,VDACtest,77,g,true,507.10000002384186,1,r,h,0,,,
qoq,VDACtest,78,g,true,491.1999999284744,1,r,h,0,,,
qoq,VDACtest,79,g,true,424.39999997615814,2,g,v,5,,,
qoq,VDACtest,80,g,null,null,1,r,v,1,,,
qoq,VDACtest,81,g,true,397.40000009536743,2,g,v,0,,,
qoq,VDACtest,82,g,true,505.7000000476837,2,g,h,2,,,
qoq,VDACtest,83,g,true,425.89999997615814,2,g,v,2,,,
qoq,VDACtest,84,g,true,377.5,2,g,h,2,,,
qoq,VDACtest,85,g,true,522.6999999284744,1,r,v,1,,,
qoq,VDACtest,86,g,true,779.1999999284744,2,g,h,4,,,
qoq,VDACtest,87,g,true,556.3999999761581,1,r,v,3,,,
qoq,VDACtest,88,g,true,555.2999999523163,2,g,v,5,,,
qoq,VDACtest,89,g,true,459.7999999523163,1,r,v,5,,,
qoq,VDACtest,90,g,true,507.5,1,r,v,1,,,
qoq,VDACtest,91,g,true,570.1000000238419,2,g,h,2,,,
qoq,VDACtest,92,g,true,378.90000009536743,2,g,v,0,,,
qoq,VDACtest,93,g,true,698.7000000476837,1,r,h,0,,,
qoq,VDACtest,94,g,false,459.10000002384186,2,g,h,0,,,
qoq,VDACtest,95,g,true,570.8000000715256,2,g,v,2,,,
qoq,VDACtest,96,g,true,524.2999999523163,2,g,v,5,,,
qoq,VDACtest,97,g,true,538.7000000476837,1,r,h,2,,,
qoq,VDACtest,98,g,true,443.39999997615814,2,g,v,0,,,
qoq,VDACtest,99,g,true,555.2000000476837,1,r,v,5,,,
qoq,VDACtest,100,g,true,555.2000000476837,1,r,v,0,,,
brk,brk,brk,brk,brk,brk,brk,brk,brk,brk,brk,brk,
qoq,VDACtest,101,g,true,697,1,r,v,0,,,
qoq,VDACtest,102,g,true,475.10000002384186,1,r,h,2,,,
qoq,VDACtest,103,g,true,891,2,g,h,3,,,
qoq,VDACtest,104,g,true,425.7999999523163,2,g,h,0,,,
qoq,VDACtest,105,g,true,473.5,1,r,h,5,,,
qoq,VDACtest,106,g,true,473.2999999523163,2,g,h,5,,,
qoq,VDACtest,107,g,false,571.5,1,r,v,4,,,
qoq,VDACtest,108,g,true,473.6999999284744,2,g,h,1,,,
qoq,VDACtest,109,g,true,408,1,r,v,5,,,
qoq,VDACtest,110,g,true,572.1000000238419,1,r,v,4,,,
qoq,VDACtest,111,g,true,507.5,2,g,h,3,,,
qoq,VDACtest,112,g,true,619,2,g,v,4,,,
qoq,VDACtest,113,g,true,794.3999999761581,2,g,h,0,,,
qoq,VDACtest,114,g,true,475.7999999523163,2,g,h,3,,,
qoq,VDACtest,115,g,true,411.39999997615814,1,r,v,4,,,
qoq,VDACtest,116,g,false,442.5,1,r,v,2,,,
qoq,VDACtest,117,g,true,889.3000000715256,2,g,v,1,,,
qoq,VDACtest,118,g,true,506.7000000476837,1,r,v,1,,,
qoq,VDACtest,119,g,true,540.1999999284744,1,r,v,0,,,
qoq,VDACtest,120,g,true,474.2000000476837,1,r,v,1,,,
qoq,VDACtest,121,g,true,473.10000002384186,2,g,v,4,,,
qoq,VDACtest,122,g,true,475.10000002384186,1,r,v,0,,,
qoq,VDACtest,123,g,false,649.8999999761581,2,g,v,3,,,
qoq,VDACtest,124,g,true,522.6000000238419,1,r,v,1,,,
qoq,VDACtest,125,g,true,489.10000002384186,2,g,v,3,,,
qoq,VDACtest,126,g,true,362.3000000715256,2,g,v,3,,,
qoq,VDACtest,127,g,true,666.3999999761581,2,g,h,0,,,
qoq,VDACtest,128,g,null,null,2,g,v,0,,,
qoq,VDACtest,129,g,true,733,1,r,h,1,,,
qoq,VDACtest,130,g,true,745.8000000715256,2,g,h,1,,,
qoq,VDACtest,131,g,true,714.8000000715256,2,g,h,5,,,
qoq,VDACtest,132,g,true,555.5,1,r,v,0,,,
qoq,VDACtest,133,g,true,602.1000000238419,1,r,h,5,,,
qoq,VDACtest,134,g,null,null,1,r,v,3,,,
qoq,VDACtest,135,g,true,702.1000000238419,2,g,v,3,,,
qoq,VDACtest,136,g,true,490.10000002384186,2,g,v,3,,,
qoq,VDACtest,137,g,true,538.6000000238419,2,g,v,1,,,
qoq,VDACtest,138,g,true,554.8999999761581,2,g,v,5,,,
qoq,VDACtest,139,g,true,587.1000000238419,2,g,h,0,,,
qoq,VDACtest,140,g,true,601.6000000238419,1,r,v,5,,,
qoq,VDACtest,141,g,true,507.6999999284744,1,r,v,1,,,
qoq,VDACtest,142,g,true,490,1,r,v,4,,,
qoq,VDACtest,143,g,true,857.8000000715256,2,g,h,3,,,
qoq,VDACtest,144,g,true,601.6999999284744,1,r,h,4,,,
qoq,VDACtest,145,g,true,618.2999999523163,1,r,h,3,,,
qoq,VDACtest,146,g,true,555.3999999761581,1,r,h,3,,,
qoq,VDACtest,147,g,true,553.0999999046326,2,g,v,4,,,
qoq,VDACtest,148,g,false,779.1000000238419,2,g,v,2,,,
qoq,VDACtest,149,g,true,746.1000000238419,1,r,v,2,,,
qoq,VDACtest,150,g,true,616.5,2,g,h,2,,,
brk,brk,brk,brk,brk,brk,brk,brk,brk,brk,brk,brk,
qoq,VDACtest,151,g,true,654.6999999284744,2,g,h,1,,,
qoq,VDACtest,152,g,true,617.1000000238419,1,r,h,3,,,
qoq,VDACtest,153,g,true,538.6000000238419,1,r,h,1,,,
qoq,VDACtest,154,g,true,458.90000009536743,1,r,h,4,,,
qoq,VDACtest,155,g,true,474.7000000476837,1,r,h,2,,,
qoq,VDACtest,156,g,true,410.60000002384186,1,r,h,2,,,
qoq,VDACtest,157,g,true,442.8000000715256,2,g,v,4,,,
qoq,VDACtest,158,g,true,553.6000000238419,1,r,v,3,,,
qoq,VDACtest,159,g,true,553.5999999046326,2,g,h,4,,,
qoq,VDACtest,160,g,true,490,1,r,v,1,,,
qoq,VDACtest,161,g,true,507.10000002384186,1,r,v,2,,,
qoq,VDACtest,162,g,false,874.3999999761581,1,r,h,5,,,
qoq,VDACtest,163,g,true,570.2999999523163,2,g,v,3,,,
qoq,VDACtest,164,g,true,635.2999999523163,2,g,h,2,,,
qoq,VDACtest,165,g,true,393.10000002384186,1,r,h,1,,,
qoq,VDACtest,166,g,true,475.10000002384186,1,r,v,4,,,
qoq,VDACtest,167,g,true,522.1999999284744,1,r,h,1,,,
qoq,VDACtest,168,g,true,778.1000000238419,1,r,v,2,,,
qoq,VDACtest,169,g,true,555.6000000238419,1,r,h,0,,,
qoq,VDACtest,170,g,true,808.2999999523163,1,r,v,0,,,
qoq,VDACtest,171,g,true,491.59999990463257,2,g,v,5,,,
qoq,VDACtest,172,g,null,null,2,g,v,2,,,
qoq,VDACtest,173,g,true,493.10000002384186,2,g,h,5,,,
qoq,VDACtest,174,g,true,778.5,1,r,v,4,,,
qoq,VDACtest,175,g,true,505.60000002384186,2,g,v,5,,,
qoq,VDACtest,176,g,true,539.8999999761581,1,r,h,0,,,
qoq,VDACtest,177,g,true,650.8000000715256,1,r,v,1,,,
qoq,VDACtest,178,g,true,492,1,r,h,0,,,
qoq,VDACtest,179,g,true,556,2,g,h,2,,,
qoq,VDACtest,180,g,true,602.4000000953674,1,r,v,3,,,
qoq,VDACtest,181,g,true,458.10000002384186,2,g,v,2,,,
qoq,VDACtest,182,g,true,459.6999999284744,2,g,v,4,,,
qoq,VDACtest,183,g,true,409.3000000715256,2,g,v,5,,,
qoq,VDACtest,184,g,true,568.3999999761581,2,g,h,5,,,
qoq,VDACtest,185,g,true,427.7999999523163,2,g,v,5,,,
qoq,VDACtest,186,g,true,618.6000000238419,2,g,v,3,,,
qoq,VDACtest,187,g,true,458.10000002384186,2,g,h,1,,,
qoq,VDACtest,188,g,true,617.3999999761581,1,r,v,2,,,
qoq,VDACtest,189,g,true,523.5,1,r,v,0,,,
qoq,VDACtest,190,g,true,363.5,2,g,v,1,,,
qoq,VDACtest,191,g,true,588,2,g,h,4,,,
qoq,VDACtest,192,g,true,442.6999999284744,1,r,v,5,,,
qoq,VDACtest,193,g,true,553.6999999284744,2,g,h,1,,,
qoq,VDACtest,194,g,true,475.10000002384186,2,g,v,0,,,
qoq,VDACtest,195,g,true,571.6999999284744,2,g,h,4,,,
qoq,VDACtest,196,g,true,682.8999999761581,1,r,v,2,,,
qoq,VDACtest,197,g,true,555.3000000715256,1,r,h,5,,,
qoq,VDACtest,198,g,true,572,2,g,v,4,,,
qoq,VDACtest,199,g,true,489.60000002384186,1,r,h,3,,,
qoq,VDACtest,200,g,true,649.5,1,r,h,5,,,
qoq,RSVPtrain,0,g,false,1332.8000000715256,2,g,,3,1,1,
qoq,RSVPtrain,0,g,true,1517.2999999523163,1,r,,0,0,2,
qoq,RSVPtrain,0,g,true,75.5,1,r,,1,1,2,
qoq,RSVPtrain,0,g,null,null,0,b,,0,3,0,
qoq,RSVPtrain,0,g,true,468.39999997615814,1,r,,3,2,1,
qoq,RSVPtrain,0,g,true,30.100000023841858,2,g,,1,0,1,
qoq,RSVPtrain,0,g,true,27.399999976158142,0,b,,3,3,0,
qoq,RSVPtrain,0,g,true,108.70000004768372,0,b,,1,3,0,
qoq,RSVPtrain,0,g,false,77.79999995231628,2,g,,2,2,2,
qoq,RSVPtrain,0,g,false,15.799999952316284,2,g,,3,0,1,
qoq,RSVPtest,1,g,true,445.10000002384186,2,g,,1,0,1,
qoq,RSVPtest,2,g,false,715.2000000476837,0,b,,2,3,0,
qoq,RSVPtest,3,g,true,75.89999997615814,2,g,,2,1,1,
qoq,RSVPtest,4,g,true,557,2,g,,3,0,1,
qoq,RSVPtest,5,g,false,573.6000000238419,1,r,,0,0,2,
qoq,RSVPtest,6,g,true,668.8000000715256,2,g,,2,1,1,
qoq,RSVPtest,7,g,true,798.5,2,g,,3,0,1,
qoq,RSVPtest,8,g,true,390.7000000476837,0,b,,0,3,0,
qoq,RSVPtest,9,g,false,238.80000007152557,1,r,,2,1,1,
qoq,RSVPtest,10,g,false,253,0,b,,3,3,0,
qoq,RSVPtest,11,g,true,383.39999997615814,2,g,,2,0,1,
qoq,RSVPtest,12,g,false,605.5,1,r,,1,1,2,
qoq,RSVPtest,13,g,true,717.1999999284744,1,r,,3,0,1,
qoq,RSVPtest,14,g,true,702.6000000238419,1,r,,3,0,1,
qoq,RSVPtest,15,g,true,862.3999999761581,0,b,,3,3,0,
qoq,RSVPtest,16,g,true,365.40000009536743,0,b,,2,3,0,
qoq,RSVPtest,17,g,true,637.4000000953674,2,g,,3,0,1,
qoq,RSVPtest,18,g,true,558.2000000476837,2,g,,3,0,1,
qoq,RSVPtest,19,g,false,557.2999999523163,2,g,,1,1,2,
qoq,RSVPtest,20,g,true,558.7000000476837,1,r,,1,2,1,
qoq,RSVPtest,21,g,false,606,2,g,,0,1,1,
qoq,RSVPtest,22,g,true,570.5,1,r,,3,2,1,
qoq,RSVPtest,23,g,true,364.5,1,r,,1,0,1,
qoq,RSVPtest,24,g,true,1179,2,g,,3,0,1,
qoq,RSVPtest,25,g,false,621.4000000953674,0,b,,3,3,0,
qoq,RSVPtest,26,g,false,331.89999997615814,0,b,,0,3,0,
qoq,RSVPtest,27,g,true,478.7000000476837,2,g,,3,1,1,
qoq,RSVPtest,28,g,true,749.2999999523163,1,r,,2,1,1,
qoq,RSVPtest,29,g,true,1020.7000000476837,0,b,,0,3,0,
qoq,RSVPtest,30,g,true,685.9000000953674,2,g,,2,2,2,
qoq,RSVPtest,31,g,true,701.6000000238419,2,g,,1,1,2,
qoq,RSVPtest,32,g,true,797.3000000715256,0,b,,2,3,0,
qoq,RSVPtest,33,g,false,538,0,b,,3,3,0,
qoq,RSVPtest,34,g,true,621.1000000238419,2,g,,3,0,1,
qoq,RSVPtest,35,g,true,524,2,g,,3,1,1,
qoq,RSVPtest,36,g,true,363.5,0,b,,0,3,0,
qoq,RSVPtest,37,g,true,665.7999999523163,2,g,,3,2,1,
qoq,RSVPtest,38,g,true,605.8999999761581,2,g,,2,2,2,
qoq,RSVPtest,39,g,true,508.89999997615814,0,b,,3,3,0,
qoq,RSVPtest,40,g,true,619.7999999523163,1,r,,3,2,1,
qoq,RSVPtest,41,g,false,811.6000000238419,2,g,,1,2,1,
qoq,RSVPtest,42,g,true,923.1000000238419,1,r,,1,0,1,
qoq,RSVPtest,43,g,true,573.6999999284744,1,r,,3,0,1,
qoq,RSVPtest,44,g,true,876.8999999761581,2,g,,3,1,1,
qoq,RSVPtest,45,g,true,669.1000000238419,1,r,,3,1,1,
qoq,RSVPtest,46,g,false,605.2999999523163,1,r,,3,2,1,
qoq,RSVPtest,47,g,true,636.3999999761581,1,r,,3,0,1,
qoq,RSVPtest,48,g,true,715.2999999523163,0,b,,1,3,0,
qoq,RSVPtest,49,g,true,715.3000000715256,0,b,,1,3,0,
qoq,RSVPtest,50,g,true,827.8999999761581,2,g,,0,0,2,
qoq,RSVPtest,51,g,true,668.7000000476837,2,g,,2,2,2,
qoq,RSVPtest,52,g,false,747.5,2,g,,2,1,1,
qoq,RSVPtest,53,g,true,1053,2,g,,2,1,1,
qoq,RSVPtest,54,g,true,699.2000000476837,1,r,,3,0,1,
qoq,RSVPtest,55,g,true,879,1,r,,3,2,1,
qoq,RSVPtest,56,g,true,748.3000000715256,0,b,,3,3,0,
qoq,RSVPtest,57,g,true,699,2,g,,0,2,1,
qoq,RSVPtest,58,g,true,686.4000000953674,0,b,,3,3,0,
qoq,RSVPtest,59,g,false,682.0999999046326,2,g,,2,0,1,
qoq,RSVPtest,60,g,true,426.2000000476837,1,r,,0,2,1,
brk,brk,brk,brk,brk,brk,brk,brk,brk,brk,brk,brk,
qoq,RSVPtest,61,g,true,601.4000000953674,1,r,,3,1,1,
qoq,RSVPtest,62,g,true,411.39999997615814,1,r,,1,1,2,
qoq,RSVPtest,63,g,true,762.6000000238419,0,b,,2,3,0,
qoq,RSVPtest,64,g,true,443.6999999284744,1,r,,0,1,1,
qoq,RSVPtest,65,g,true,509.7000000476837,2,g,,1,0,1,
qoq,RSVPtest,66,g,true,651.6999999284744,0,b,,3,3,0,
qoq,RSVPtest,67,g,true,428.7999999523163,0,b,,0,3,0,
qoq,RSVPtest,68,g,true,636.5,0,b,,0,3,0,
qoq,RSVPtest,69,g,true,461.5,1,r,,0,2,1,
qoq,RSVPtest,70,g,true,393.60000002384186,1,r,,1,0,1,
qoq,RSVPtest,71,g,true,665.2000000476837,1,r,,3,2,1,
qoq,RSVPtest,72,g,true,604.3000000715256,0,b,,3,3,0,
qoq,RSVPtest,73,g,true,444.7999999523163,1,r,,2,0,1,
qoq,RSVPtest,74,g,true,650.6000000238419,1,r,,2,0,1,
qoq,RSVPtest,75,g,true,491.60000002384186,1,r,,0,1,1,
qoq,RSVPtest,76,g,true,780.8999999761581,1,r,,1,1,2,
qoq,RSVPtest,77,g,true,682.6000000238419,2,g,,0,2,1,
qoq,RSVPtest,78,g,false,585.7000000476837,2,g,,3,2,1,
qoq,RSVPtest,79,g,true,603.9000000953674,1,r,,1,0,1,
qoq,RSVPtest,80,g,true,554.7999999523163,0,b,,0,3,0,
qoq,RSVPtest,81,g,true,652.7999999523163,0,b,,1,3,0,
qoq,RSVPtest,82,g,false,1179.7999999523163,1,r,,3,0,1,
qoq,RSVPtest,83,g,false,667.8000000715256,0,b,,3,3,0,
qoq,RSVPtest,84,g,false,2443,2,g,,3,1,1,
qoq,RSVPtest,85,g,true,1067.5,0,b,,3,3,0,
qoq,RSVPtest,86,g,true,426.2999999523163,0,b,,0,3,0,
qoq,RSVPtest,87,g,false,650.2000000476837,0,b,,3,3,0,
qoq,RSVPtest,88,g,false,825.3999999761581,2,g,,3,1,1,
qoq,RSVPtest,89,g,true,395.8000000715256,2,g,,0,1,1,
qoq,RSVPtest,90,g,false,841.1000000238419,1,r,,0,0,2,
qoq,RSVPtest,91,g,true,459.39999997615814,1,r,,0,0,2,
qoq,RSVPtest,92,g,true,441.40000009536743,1,r,,0,0,2,
qoq,RSVPtest,93,g,false,572.1000000238419,1,r,,3,2,1,
qoq,RSVPtest,94,g,false,812.7000000476837,2,g,,3,1,1,
qoq,RSVPtest,95,g,true,396.7999999523163,2,g,,0,0,2,
qoq,RSVPtest,96,g,true,425,0,b,,1,3,0,
qoq,RSVPtest,97,g,true,619.7999999523163,1,r,,3,2,1,
qoq,RSVPtest,98,g,true,459.7999999523163,2,g,,2,2,2,
qoq,RSVPtest,99,g,true,460,1,r,,1,0,1,
qoq,RSVPtest,100,g,false,493.1999999284744,2,g,,2,0,1,
qoq,RSVPtest,101,g,false,779.5,1,r,,0,0,2,
qoq,RSVPtest,102,g,true,617.7999999523163,2,g,,3,1,1,
qoq,RSVPtest,103,g,false,619.6999999284744,1,r,,3,1,1,
qoq,RSVPtest,104,g,true,1131.2000000476837,0,b,,3,3,0,
qoq,RSVPtest,105,g,true,666.2000000476837,2,g,,3,2,1,
qoq,RSVPtest,106,g,true,1178.3999999761581,1,r,,0,2,1,
qoq,RSVPtest,107,g,false,1579.5,2,g,,3,0,1,
qoq,RSVPtest,108,g,true,827,1,r,,3,1,1,
qoq,RSVPtest,109,g,false,698,0,b,,3,3,0,
qoq,RSVPtest,110,g,true,218.69999992847443,1,r,,2,0,1,
qoq,RSVPtest,111,g,true,521.6000000238419,2,g,,1,1,2,
qoq,RSVPtest,112,g,true,666,1,r,,2,2,2,
qoq,RSVPtest,113,g,true,681.7999999523163,0,b,,2,3,0,
qoq,RSVPtest,114,g,true,908.3000000715256,1,r,,0,1,1,
qoq,RSVPtest,115,g,false,1402.7999999523163,1,r,,2,0,1,
qoq,RSVPtest,116,g,false,857.3000000715256,2,g,,3,0,1,
qoq,RSVPtest,117,g,true,1210.7999999523163,2,g,,3,2,1,
qoq,RSVPtest,118,g,true,681,0,b,,0,3,0,
qoq,RSVPtest,119,g,true,572.5,2,g,,2,0,1,
qoq,RSVPtest,120,g,true,617.3999999761581,0,b,,3,3,0,
brk,brk,brk,brk,brk,brk,brk,brk,brk,brk,brk,brk,
qoq,RSVPtest,121,g,true,493.60000002384186,1,r,,2,2,2,
qoq,RSVPtest,122,g,true,506.59999990463257,0,b,,3,3,0,
qoq,RSVPtest,123,g,true,650.8999999761581,2,g,,3,2,1,
qoq,RSVPtest,124,g,true,635.5,2,g,,0,2,1,
qoq,RSVPtest,125,g,true,459,2,g,,0,0,2,
qoq,RSVPtest,126,g,true,473.60000002384186,2,g,,1,2,1,
qoq,RSVPtest,127,g,false,669,2,g,,3,0,1,
qoq,RSVPtest,128,g,true,729.5,2,g,,1,2,1,
qoq,RSVPtest,129,g,true,1020.3999999761581,1,r,,1,2,1,
qoq,RSVPtest,130,g,true,682.0999999046326,1,r,,2,1,1,
qoq,RSVPtest,131,g,false,601.6999999284744,0,b,,1,3,0,
qoq,RSVPtest,132,g,false,1226.3999999761581,1,r,,2,0,1,
qoq,RSVPtest,133,g,true,410.3000000715256,2,g,,0,1,1,
qoq,RSVPtest,134,g,true,810.7000000476837,2,g,,3,2,1,
qoq,RSVPtest,135,g,true,873.2999999523163,2,g,,2,0,1,
qoq,RSVPtest,136,g,true,683,0,b,,2,3,0,
qoq,RSVPtest,137,g,false,300.60000002384186,2,g,,2,1,1,
qoq,RSVPtest,138,g,true,873.3999999761581,0,b,,1,3,0,
qoq,RSVPtest,139,g,false,1178.6000000238419,0,b,,2,3,0,
qoq,RSVPtest,140,g,true,888.6000000238419,1,r,,3,1,1,
qoq,RSVPtest,141,g,true,873.5,1,r,,3,2,1,
qoq,RSVPtest,142,g,false,762.5999999046326,1,r,,3,0,1,
qoq,RSVPtest,143,g,true,682.1000000238419,2,g,,3,1,1,
qoq,RSVPtest,144,g,true,986.6999999284744,2,g,,3,1,1,
qoq,RSVPtest,145,g,false,1945.2999999523163,2,g,,2,2,2,
qoq,RSVPtest,146,g,true,905.1999999284744,1,r,,0,0,2,
qoq,RSVPtest,147,g,false,455.89999997615814,2,g,,3,0,1,
qoq,RSVPtest,148,g,true,698.1999999284744,1,r,,1,1,2,
qoq,RSVPtest,149,g,true,858.2999999523163,0,b,,3,3,0,
qoq,RSVPtest,150,g,true,570.5,1,r,,0,1,1,
qoq,RSVPtest,151,g,true,682.8999999761581,2,g,,3,1,1,
qoq,RSVPtest,152,g,true,681.1000000238419,2,g,,1,2,1,
qoq,RSVPtest,153,g,false,363.7999999523163,0,b,,0,3,0,
qoq,RSVPtest,154,g,null,null,0,b,,1,3,0,
qoq,RSVPtest,155,g,false,718.8999999761581,1,r,,2,1,1,
qoq,RSVPtest,156,g,true,376.3000000715256,1,r,,1,1,2,
qoq,RSVPtest,157,g,false,604.5,1,r,,1,2,1,
qoq,RSVPtest,158,g,true,633.2000000476837,0,b,,3,3,0,
qoq,RSVPtest,159,g,true,569.2999999523163,2,g,,2,1,1,
qoq,RSVPtest,160,g,true,407.89999997615814,2,g,,0,0,2,
qoq,RSVPtest,161,g,true,731.2000000476837,2,g,,3,0,1,
qoq,RSVPtest,162,g,false,763.7000000476837,1,r,,2,1,1,
qoq,RSVPtest,163,g,true,426.3000000715256,2,g,,0,0,2,
qoq,RSVPtest,164,g,true,697.3999999761581,1,r,,3,1,1,
qoq,RSVPtest,165,g,true,632.8000000715256,0,b,,1,3,0,
qoq,RSVPtest,166,g,true,665.5999999046326,2,g,,0,2,1,
qoq,RSVPtest,167,g,true,778.3999999761581,2,g,,3,1,1,
qoq,RSVPtest,168,g,false,712.6000000238419,2,g,,3,2,1,
qoq,RSVPtest,169,g,true,746.1000000238419,2,g,,1,0,1,
qoq,RSVPtest,170,g,true,666.9000000953674,1,r,,3,1,1,
qoq,RSVPtest,171,g,true,714,0,b,,3,3,0,
qoq,RSVPtest,172,g,true,795,1,r,,3,1,1,
qoq,RSVPtest,173,g,false,971.3999999761581,0,b,,2,3,0,
qoq,RSVPtest,174,g,true,314.7000000476837,0,b,,0,3,0,
qoq,RSVPtest,175,g,true,666,0,b,,1,3,0,
qoq,RSVPtest,176,g,true,634.3000000715256,2,g,,1,0,1,
qoq,RSVPtest,177,g,true,475.6999999284744,1,r,,2,2,2,
qoq,RSVPtest,178,g,true,586.2000000476837,2,g,,1,2,1,
qoq,RSVPtest,179,g,true,459.09999990463257,1,r,,0,2,1,
qoq,RSVPtest,180,g,false,905.7000000476837,1,r,,1,2,1,
brk,brk,brk,brk,brk,brk,brk,brk,brk,brk,brk,brk,
qoq,RSVPtest,181,g,false,347.89999997615814,1,r,,3,0,1,
qoq,RSVPtest,182,g,true,650,1,r,,3,0,1,
qoq,RSVPtest,183,g,false,683.8999999761581,2,g,,3,2,1,
qoq,RSVPtest,184,g,true,840.5,0,b,,1,3,0,
qoq,RSVPtest,185,g,true,969.3999999761581,1,r,,3,2,1,
qoq,RSVPtest,186,g,true,746.5,0,b,,3,3,0,
qoq,RSVPtest,187,g,true,568.2000000476837,0,b,,2,3,0,
qoq,RSVPtest,188,g,true,282.10000002384186,1,r,,3,2,1,
qoq,RSVPtest,189,g,true,394,1,r,,2,2,2,
qoq,RSVPtest,190,g,true,1049.7000000476837,1,r,,3,2,1,
qoq,RSVPtest,191,g,true,585.0999999046326,2,g,,0,0,2,
qoq,RSVPtest,192,g,false,1046.3000000715256,2,g,,3,2,1,
qoq,RSVPtest,193,g,true,939.0999999046326,1,r,,3,0,1,
qoq,RSVPtest,194,g,true,697.4000000953674,1,r,,3,1,1,
qoq,RSVPtest,195,g,true,811.5999999046326,0,b,,1,3,0,
qoq,RSVPtest,196,g,true,759.6000000238419,2,g,,1,1,2,
qoq,RSVPtest,197,g,true,710.8000000715256,2,g,,0,1,1,
qoq,RSVPtest,198,g,true,967.7999999523163,1,r,,0,1,1,
qoq,RSVPtest,199,g,false,1049,2,g,,1,0,1,
qoq,RSVPtest,200,g,true,665.3999999761581,0,b,,0,3,0,
qoq,RSVPtest,201,g,true,359.89999997615814,0,b,,3,3,0,
qoq,RSVPtest,202,g,false,1241.3999999761581,1,r,,2,2,2,
qoq,RSVPtest,203,g,true,1000,2,g,,0,1,1,
qoq,RSVPtest,204,g,true,616.6999999284744,1,r,,1,2,1,
qoq,RSVPtest,205,g,true,939.1000000238419,2,g,,2,0,1,
qoq,RSVPtest,206,g,true,1208.5,2,g,,3,0,1,
qoq,RSVPtest,207,g,true,1002.2999999523163,1,r,,1,1,2,
qoq,RSVPtest,208,g,true,570.0999999046326,1,r,,3,1,1,
qoq,RSVPtest,209,g,true,617.5,1,r,,3,0,1,
qoq,RSVPtest,210,g,true,760.5,2,g,,3,2,1,
qoq,RSVPtest,211,g,false,1465.7999999523163,0,b,,2,3,0,
qoq,RSVPtest,212,g,true,1482.3999999761581,1,r,,2,1,1,
qoq,RSVPtest,213,g,false,2248.6999999284744,2,g,,1,1,2,
qoq,RSVPtest,214,g,true,728.6000000238419,1,r,,3,2,1,
qoq,RSVPtest,215,g,true,471.39999997615814,0,b,,2,3,0,
qoq,RSVPtest,216,g,false,343.6999999284744,1,r,,1,0,1,
qoq,RSVPtest,217,g,true,505.5,1,r,,0,1,1,
qoq,RSVPtest,218,g,false,426.7999999523163,1,r,,2,2,2,
qoq,RSVPtest,219,g,true,615.2000000476837,2,g,,3,1,1,
qoq,RSVPtest,220,g,false,1433.7999999523163,0,b,,1,3,0,
qoq,RSVPtest,221,g,false,791.2000000476837,1,r,,3,1,1,
qoq,RSVPtest,222,g,true,2103.899999976158,2,g,,2,2,2,
qoq,RSVPtest,223,g,true,553.3999999761581,2,g,,1,0,1,
qoq,RSVPtest,224,g,true,598.5999999046326,0,b,,2,3,0,
qoq,RSVPtest,225,g,true,552.8999999761581,1,r,,2,0,1,
qoq,RSVPtest,226,g,false,615.6999999284744,0,b,,3,3,0,
qoq,RSVPtest,227,g,true,792.1000000238419,2,g,,3,2,1,
qoq,RSVPtest,228,g,true,2218.2000000476837,0,b,,3,3,0,
qoq,RSVPtest,229,g,true,839.1000000238419,2,g,,0,2,1,
qoq,RSVPtest,230,g,true,856.7000000476837,2,g,,3,2,1,
qoq,RSVPtest,231,g,true,886.5,2,g,,0,2,1,
qoq,RSVPtest,232,g,true,361.39999997615814,1,r,,3,1,1,
qoq,RSVPtest,233,g,false,281.09999990463257,1,r,,1,2,1,
qoq,RSVPtest,234,g,true,506.10000002384186,2,g,,1,1,2,
qoq,RSVPtest,235,g,true,776.3000000715256,0,b,,3,3,0,
qoq,RSVPtest,236,g,true,570.2000000476837,1,r,,0,2,1,
qoq,RSVPtest,237,g,true,968.8000000715256,1,r,,3,0,1,
qoq,RSVPtest,238,g,false,601.7000000476837,1,r,,0,2,1,
qoq,RSVPtest,239,g,true,632.6000000238419,2,g,,0,1,1,
qoq,RSVPtest,240,g,true,710.7999999523163,2,g,,1,2,1,
