subID,trialType,trialNum,cntBalance,correct,rt,rwdType,tgtCol,tgtDir,tgtPos,colPos,colMatch,
r4d,VDACtrain,0,g,null,null,1,r,h,0,,,
r4d,VDACtrain,0,g,null,null,1,r,h,1,,,
r4d,VDACtrain,0,g,true,596.5,1,r,v,4,,,
r4d,VDACtrain,0,g,true,647.8999999761581,1,r,v,3,,,
r4d,VDACtrain,0,g,true,952.2999999523163,1,r,h,2,,,
r4d,VDACtrain,0,g,null,null,2,g,v,5,,,
r4d,VDACtrain,0,g,true,631.3999999761581,2,g,v,2,,,
r4d,VDACtrain,0,g,true,535.6000000238419,2,g,v,0,,,
r4d,VDACtrain,0,g,false,600.5,2,g,h,5,,,
r4d,VDACtrain,0,g,true,456.7999999523163,2,g,h,3,,,
r4d,VDACtest,1,g,false,697.3999999761581,2,g,h,2,,,
r4d,VDACtest,2,g,true,681.1999999284744,2,g,h,5,,,
r4d,VDACtest,3,g,true,856,2,g,h,1,,,
r4d,VDACtest,4,g,null,null,1,r,v,3,,,
r4d,VDACtest,5,g,false,904.2999999523163,1,r,h,1,,,
r4d,VDACtest,6,g,true,888.7999999523163,2,g,v,0,,,
r4d,VDACtest,7,g,true,616.7000000476837,2,g,v,4,,,
r4d,VDACtest,8,g,true,985.0999999046326,1,r,v,5,,,
r4d,VDACtest,9,g,true,841.3999999761581,2,g,h,0,,,
r4d,VDACtest,10,g,true,568.3999999761581,2,g,h,1,,,
r4d,VDACtest,11,g,null,null,1,r,h,2,,,
r4d,VDACtest,12,g,null,null,1,r,h,4,,,
r4d,VDACtest,13,g,true,778.1999999284744,2,g,h,3,,,
r4d,VDACtest,14,g,true,631.7999999523163,2,g,v,2,,,
r4d,VDACtest,15,g,true,665,2,g,v,1,,,
r4d,VDACtest,16,g,true,697.1000000238419,2,g,v,0,,,
r4d,VDACtest,17,g,null,null,1,r,h,1,,,
r4d,VDACtest,18,g,null,null,2,g,h,3,,,
r4d,VDACtest,19,g,false,713,1,r,h,1,,,
r4d,VDACtest,20,g,true,600.3999999761581,2,g,h,3,,,
r4d,VDACtest,21,g,true,889.1999999284744,1,r,h,0,,,
r4d,VDACtest,22,g,true,522.2000000476837,1,r,h,0,,,
r4d,VDACtest,23,g,true,587,2,g,h,1,,,
r4d,VDACtest,24,g,true,586.3000000715256,1,r,h,5,,,
r4d,VDACtest,25,g,true,635.0999999046326,1,r,v,4,,,
r4d,VDACtest,26,g,true,650.8999999761581,2,g,v,0,,,
r4d,VDACtest,27,g,true,586.3999999761581,2,g,h,1,,,
r4d,VDACtest,28,g,false,570.5,2,g,v,3,,,
r4d,VDACtest,29,g,true,585.2000000476837,2,g,v,2,,,
r4d,VDACtest,30,g,true,616.0999999046326,2,g,v,4,,,
r4d,VDACtest,31,g,true,680,2,g,h,1,,,
r4d,VDACtest,32,g,null,null,1,r,h,3,,,
r4d,VDACtest,33,g,false,806.6000000238419,2,g,h,0,,,
r4d,VDACtest,34,g,true,601.5,1,r,h,5,,,
r4d,VDACtest,35,g,true,553.1999999284744,2,g,h,0,,,
r4d,VDACtest,36,g,true,568.6000000238419,2,g,v,0,,,
r4d,VDACtest,37,g,true,616.1000000238419,2,g,v,4,,,
r4d,VDACtest,38,g,false,856.3999999761581,1,r,v,5,,,
r4d,VDACtest,39,g,true,567.3999999761581,1,r,h,0,,,
r4d,VDACtest,40,g,true,600.7999999523163,1,r,v,4,,,
r4d,VDACtest,41,g,true,630.9000000953674,1,r,h,3,,,
r4d,VDACtest,42,g,false,776,2,g,v,3,,,
r4d,VDACtest,43,g,false,873.5,1,r,v,0,,,
r4d,VDACtest,44,g,true,760.8999999761581,2,g,v,3,,,
r4d,VDACtest,45,g,true,664.8999999761581,2,g,h,2,,,
r4d,VDACtest,46,g,null,null,1,r,v,3,,,
r4d,VDACtest,47,g,true,649,2,g,v,4,,,
r4d,VDACtest,48,g,true,634,2,g,h,4,,,
r4d,VDACtest,49,g,true,665,1,r,h,3,,,
r4d,VDACtest,50,g,true,616.6000000238419,2,g,v,0,,,
brk,brk,brk,brk,brk,brk,brk,brk,brk,brk,brk,brk,
r4d,VDACtest,51,g,null,null,1,r,v,5,,,
r4d,VDACtest,52,g,true,649.8999999761581,2,g,h,1,,,
r4d,VDACtest,53,g,true,872.6000000238419,1,r,h,0,,,
r4d,VDACtest,54,g,true,680.8000000715256,2,g,h,5,,,
r4d,VDACtest,55,g,true,569.8999999761581,1,r,v,1,,,
r4d,VDACtest,56,g,true,537.1000000238419,2,g,h,3,,,
r4d,VDACtest,57,g,false,488.7000000476837,1,r,v,3,,,
r4d,VDACtest,58,g,true,504.6999999284744,1,r,v,3,,,
r4d,VDACtest,59,g,true,810.3000000715256,1,r,v,1,,,
r4d,VDACtest,60,g,null,null,1,r,h,4,,,
r4d,VDACtest,61,g,true,872.8999999761581,2,g,h,4,,,
r4d,VDACtest,62,g,true,504.39999997615814,1,r,h,4,,,
r4d,VDACtest,63,g,true,934.6000000238419,1,r,h,1,,,
r4d,VDACtest,64,g,true,521.3999999761581,1,r,h,5,,,
r4d,VDACtest,65,g,false,423.10000002384186,2,g,h,4,,,
r4d,VDACtest,66,g,true,583.1000000238419,1,r,h,0,,,
r4d,VDACtest,67,g,true,599.8999999761581,1,r,v,2,,,
r4d,VDACtest,68,g,true,552.8999999761581,2,g,h,0,,,
r4d,VDACtest,69,g,true,617.3999999761581,1,r,v,4,,,
r4d,VDACtest,70,g,false,681.7999999523163,1,r,v,1,,,
r4d,VDACtest,71,g,true,711.8999999761581,1,r,h,5,,,
r4d,VDACtest,72,g,true,682.7000000476837,2,g,v,5,,,
r4d,VDACtest,73,g,true,695.1000000238419,1,r,h,4,,,
r4d,VDACtest,74,g,false,728.3999999761581,2,g,v,2,,,
r4d,VDACtest,75,g,true,487.89999997615814,2,g,v,4,,,
r4d,VDACtest,76,g,true,745.5,1,r,h,2,,,
r4d,VDACtest,77,g,true,440,1,r,v,4,,,
r4d,VDACtest,78,g,true,616.5,1,r,h,2,,,
r4d,VDACtest,79,g,true,472.60000002384186,2,g,v,5,,,
r4d,VDACtest,80,g,true,502.7000000476837,1,r,h,0,,,
r4d,VDACtest,81,g,true,631.3999999761581,1,r,v,0,,,
r4d,VDACtest,82,g,false,408.8000000715256,2,g,v,2,,,
r4d,VDACtest,83,g,true,568.7000000476837,2,g,h,2,,,
r4d,VDACtest,84,g,true,490.5,2,g,h,0,,,
r4d,VDACtest,85,g,true,502.2999999523163,2,g,h,3,,,
r4d,VDACtest,86,g,true,552.5,2,g,h,0,,,
r4d,VDACtest,87,g,true,665.6999999284744,1,r,h,3,,,
r4d,VDACtest,88,g,true,647.3999999761581,1,r,v,2,,,
r4d,VDACtest,89,g,true,632,1,r,v,5,,,
r4d,VDACtest,90,g,false,504.5,2,g,v,3,,,
r4d,VDACtest,91,g,true,617.1999999284744,1,r,v,5,,,
r4d,VDACtest,92,g,true,584.6000000238419,1,r,v,1,,,
r4d,VDACtest,93,g,true,537.6999999284744,1,r,v,3,,,
r4d,VDACtest,94,g,true,536.3000000715256,2,g,v,0,,,
r4d,VDACtest,95,g,true,504.1999999284744,2,g,h,5,,,
r4d,VDACtest,96,g,false,553,2,g,v,2,,,
r4d,VDACtest,97,g,true,616.6000000238419,2,g,v,4,,,
r4d,VDACtest,98,g,true,521.8999999761581,2,g,h,4,,,
r4d,VDACtest,99,g,false,985.7000000476837,1,r,h,0,,,
r4d,VDACtest,100,g,true,632,1,r,v,0,,,
brk,brk,brk,brk,brk,brk,brk,brk,brk,brk,brk,brk,
r4d,VDACtest,101,g,true,908.6999999284744,1,r,v,3,,,
r4d,VDACtest,102,g,true,569.2000000476837,2,g,v,4,,,
r4d,VDACtest,103,g,true,553.1000000238419,1,r,v,3,,,
r4d,VDACtest,104,g,true,760.6000000238419,1,r,h,0,,,
r4d,VDACtest,105,g,true,617.2999999523163,2,g,h,0,,,
r4d,VDACtest,106,g,true,696.2999999523163,2,g,v,3,,,
r4d,VDACtest,107,g,true,537.2999999523163,2,g,h,2,,,
r4d,VDACtest,108,g,true,599.3000000715256,1,r,v,2,,,
r4d,VDACtest,109,g,true,520,2,g,v,2,,,
r4d,VDACtest,110,g,true,632.6999999284744,2,g,h,4,,,
r4d,VDACtest,111,g,true,776.3999999761581,1,r,h,2,,,
r4d,VDACtest,112,g,true,535.3000000715256,2,g,v,1,,,
r4d,VDACtest,113,g,false,568.8000000715256,2,g,v,1,,,
r4d,VDACtest,114,g,true,824.6999999284744,1,r,h,5,,,
r4d,VDACtest,115,g,true,647.6999999284744,2,g,h,5,,,
r4d,VDACtest,116,g,true,698.3999999761581,1,r,v,4,,,
r4d,VDACtest,117,g,true,552.5,1,r,h,4,,,
r4d,VDACtest,118,g,true,743.8999999761581,2,g,v,1,,,
r4d,VDACtest,119,g,true,569,2,g,h,2,,,
r4d,VDACtest,120,g,false,711.6999999284744,1,r,h,1,,,
r4d,VDACtest,121,g,true,568.5,2,g,h,3,,,
r4d,VDACtest,122,g,true,553.1000000238419,2,g,v,1,,,
r4d,VDACtest,123,g,true,615.9000000953674,2,g,h,2,,,
r4d,VDACtest,124,g,false,518.7000000476837,2,g,v,5,,,
r4d,VDACtest,125,g,true,615.7000000476837,2,g,h,4,,,
r4d,VDACtest,126,g,false,567.1000000238419,2,g,v,4,,,
r4d,VDACtest,127,g,null,null,1,r,h,3,,,
r4d,VDACtest,128,g,true,570.2999999523163,1,r,v,4,,,
r4d,VDACtest,129,g,true,537.3000000715256,1,r,v,0,,,
r4d,VDACtest,130,g,true,569.8000000715256,2,g,v,2,,,
r4d,VDACtest,131,g,false,759.3999999761581,1,r,h,3,,,
r4d,VDACtest,132,g,true,617,2,g,h,3,,,
r4d,VDACtest,133,g,true,793.4000000953674,1,r,h,5,,,
r4d,VDACtest,134,g,true,473,2,g,h,4,,,
r4d,VDACtest,135,g,true,568.2000000476837,2,g,h,1,,,
r4d,VDACtest,136,g,true,745.3999999761581,1,r,v,5,,,
r4d,VDACtest,137,g,true,536.2999999523163,2,g,v,5,,,
r4d,VDACtest,138,g,true,568.6000000238419,2,g,h,3,,,
r4d,VDACtest,139,g,true,649.7999999523163,1,r,h,1,,,
r4d,VDACtest,140,g,true,681.7000000476837,1,r,v,5,,,
r4d,VDACtest,141,g,true,520.2000000476837,1,r,v,5,,,
r4d,VDACtest,142,g,false,631.8999999761581,1,r,v,2,,,
r4d,VDACtest,143,g,true,520.8000000715256,1,r,h,1,,,
r4d,VDACtest,144,g,true,424.10000002384186,2,g,v,5,,,
r4d,VDACtest,145,g,true,616.6000000238419,2,g,v,2,,,
r4d,VDACtest,146,g,true,569.3000000715256,1,r,h,2,,,
r4d,VDACtest,147,g,true,601.5,2,g,h,4,,,
r4d,VDACtest,148,g,true,599.5999999046326,1,r,v,0,,,
r4d,VDACtest,149,g,false,663.8999999761581,1,r,v,1,,,
r4d,VDACtest,150,g,true,424.89999997615814,1,r,v,1,,,
brk,brk,brk,brk,brk,brk,brk,brk,brk,brk,brk,brk,
r4d,VDACtest,151,g,false,702.1999999284744,1,r,h,1,,,
r4d,VDACtest,152,g,true,630.8999999761581,1,r,h,4,,,
r4d,VDACtest,153,g,true,600.2999999523163,2,g,h,2,,,
r4d,VDACtest,154,g,true,617,2,g,h,0,,,
r4d,VDACtest,155,g,true,470.39999997615814,2,g,h,5,,,
r4d,VDACtest,156,g,false,503.10000002384186,2,g,v,3,,,
r4d,VDACtest,157,g,true,441.6999999284744,1,r,v,4,,,
r4d,VDACtest,158,g,true,744.3999999761581,2,g,h,5,,,
r4d,VDACtest,159,g,true,632.8999999761581,2,g,h,1,,,
r4d,VDACtest,160,g,true,680.2999999523163,1,r,v,3,,,
r4d,VDACtest,161,g,true,504.5,2,g,v,3,,,
r4d,VDACtest,162,g,true,695.8999999761581,1,r,h,2,,,
r4d,VDACtest,163,g,true,952.1000000238419,1,r,h,2,,,
r4d,VDACtest,164,g,true,634.6000000238419,1,r,v,4,,,
r4d,VDACtest,165,g,false,586,1,r,v,2,,,
r4d,VDACtest,166,g,true,680.2999999523163,1,r,h,1,,,
r4d,VDACtest,167,g,true,776.3999999761581,1,r,h,2,,,
r4d,VDACtest,168,g,true,504.6999999284744,2,g,v,5,,,
r4d,VDACtest,169,g,true,648.8999999761581,1,r,h,4,,,
r4d,VDACtest,170,g,true,615.5999999046326,1,r,v,0,,,
r4d,VDACtest,171,g,true,598.1999999284744,1,r,h,5,,,
r4d,VDACtest,172,g,true,744.7000000476837,1,r,v,0,,,
r4d,VDACtest,173,g,true,582.6999999284744,1,r,v,1,,,
r4d,VDACtest,174,g,true,681.5,2,g,v,0,,,
r4d,VDACtest,175,g,true,583.1000000238419,2,g,v,1,,,
r4d,VDACtest,176,g,true,487.7999999523163,2,g,v,5,,,
r4d,VDACtest,177,g,true,537,2,g,v,3,,,
r4d,VDACtest,178,g,true,504.2999999523163,2,g,v,1,,,
r4d,VDACtest,179,g,true,808,2,g,h,4,,,
r4d,VDACtest,180,g,true,488.2000000476837,2,g,v,5,,,
r4d,VDACtest,181,g,true,937.5,1,r,v,4,,,
r4d,VDACtest,182,g,true,567.7000000476837,1,r,h,3,,,
r4d,VDACtest,183,g,false,519.7000000476837,1,r,v,2,,,
r4d,VDACtest,184,g,true,536.1000000238419,2,g,v,1,,,
r4d,VDACtest,185,g,true,503.7000000476837,2,g,v,0,,,
r4d,VDACtest,186,g,true,936.5,1,r,h,5,,,
r4d,VDACtest,187,g,true,568.5999999046326,1,r,v,0,,,
r4d,VDACtest,188,g,true,647.7000000476837,1,r,h,4,,,
r4d,VDACtest,189,g,true,551.6000000238419,1,r,h,4,,,
r4d,VDACtest,190,g,true,569.5999999046326,1,r,v,1,,,
r4d,VDACtest,191,g,true,568.2999999523163,2,g,h,5,,,
r4d,VDACtest,192,g,true,584.2000000476837,2,g,h,2,,,
r4d,VDACtest,193,g,true,680.6000000238419,2,g,v,1,,,
r4d,VDACtest,194,g,true,664.3999999761581,1,r,v,2,,,
r4d,VDACtest,195,g,true,423.5,1,r,h,3,,,
r4d,VDACtest,196,g,false,631.1000000238419,2,g,h,1,,,
r4d,VDACtest,197,g,true,793.2999999523163,1,r,v,1,,,
r4d,VDACtest,198,g,true,536.1000000238419,2,g,h,5,,,
r4d,VDACtest,199,g,true,776.6000000238419,2,g,v,4,,,
r4d,VDACtest,200,g,false,632,1,r,v,2,,,
r4d,RSVPtrain,0,g,null,null,0,b,,0,3,0,
r4d,RSVPtrain,0,g,true,2258.399999976158,2,g,,2,2,2,
r4d,RSVPtrain,0,g,false,839.8000000715256,0,b,,1,3,0,
r4d,RSVPtrain,0,g,true,1085.5,2,g,,3,1,1,
r4d,RSVPtrain,0,g,true,842.8999999761581,1,r,,0,0,2,
r4d,RSVPtrain,0,g,true,922.8999999761581,2,g,,3,0,1,
r4d,RSVPtrain,0,g,false,1578.2999999523163,2,g,,1,0,1,
r4d,RSVPtrain,0,g,true,747.3000000715256,0,b,,3,3,0,
r4d,RSVPtrain,0,g,true,1050.6000000238419,1,r,,1,1,2,
r4d,RSVPtrain,0,g,true,989,1,r,,3,2,1,
r4d,RSVPtest,1,g,false,652.8999999761581,2,g,,3,0,1,
r4d,RSVPtest,2,g,true,715,2,g,,3,1,1,
r4d,RSVPtest,3,g,true,426.8000000715256,2,g,,1,2,1,
r4d,RSVPtest,4,g,true,361.6999999284744,2,g,,1,0,1,
r4d,RSVPtest,5,g,false,811.5,2,g,,2,0,1,
r4d,RSVPtest,6,g,true,410.7000000476837,0,b,,1,3,0,
r4d,RSVPtest,7,g,true,715.7000000476837,2,g,,1,1,2,
r4d,RSVPtest,8,g,true,407.89999997615814,1,r,,3,0,1,
r4d,RSVPtest,9,g,false,572,1,r,,3,0,1,
r4d,RSVPtest,10,g,true,569.8000000715256,2,g,,3,0,1,
r4d,RSVPtest,11,g,false,1881.7999999523163,1,r,,1,2,1,
r4d,RSVPtest,12,g,true,649.9000000953674,2,g,,0,1,1,
r4d,RSVPtest,13,g,false,892.3999999761581,2,g,,3,0,1,
r4d,RSVPtest,14,g,true,665.8999999761581,2,g,,1,0,1,
r4d,RSVPtest,15,g,true,699.1999999284744,1,r,,0,1,1,
r4d,RSVPtest,16,g,false,635,0,b,,2,3,0,
r4d,RSVPtest,17,g,true,634.7999999523163,0,b,,3,3,0,
r4d,RSVPtest,18,g,false,747.1000000238419,0,b,,2,3,0,
r4d,RSVPtest,19,g,true,619.5,1,r,,1,1,2,
r4d,RSVPtest,20,g,true,680.8999999761581,2,g,,3,0,1,
r4d,RSVPtest,21,g,true,667.1000000238419,1,r,,3,2,1,
r4d,RSVPtest,22,g,true,666.5999999046326,2,g,,3,1,1,
r4d,RSVPtest,23,g,false,717.1000000238419,1,r,,2,2,2,
r4d,RSVPtest,24,g,false,536.7999999523163,2,g,,1,0,1,
r4d,RSVPtest,25,g,true,536.8000000715256,1,r,,0,1,1,
r4d,RSVPtest,26,g,true,587.1000000238419,2,g,,3,0,1,
r4d,RSVPtest,27,g,true,539.7999999523163,1,r,,1,0,1,
r4d,RSVPtest,28,g,true,347.39999997615814,2,g,,1,2,1,
r4d,RSVPtest,29,g,true,602.5999999046326,2,g,,1,1,2,
r4d,RSVPtest,30,g,true,572.2000000476837,2,g,,3,1,1,
r4d,RSVPtest,31,g,true,570,0,b,,3,3,0,
r4d,RSVPtest,32,g,true,571.6999999284744,2,g,,3,1,1,
r4d,RSVPtest,33,g,true,394.2999999523163,1,r,,2,2,2,
r4d,RSVPtest,34,g,false,602.6000000238419,1,r,,0,0,2,
r4d,RSVPtest,35,g,false,476.2000000476837,2,g,,0,0,2,
r4d,RSVPtest,36,g,true,521.4000000953674,1,r,,2,2,2,
r4d,RSVPtest,37,g,true,491.60000002384186,0,b,,0,3,0,
r4d,RSVPtest,38,g,true,493.5,0,b,,3,3,0,
r4d,RSVPtest,39,g,false,412.10000002384186,1,r,,0,2,1,
r4d,RSVPtest,40,g,true,442,0,b,,1,3,0,
r4d,RSVPtest,41,g,true,473.10000002384186,1,r,,3,1,1,
r4d,RSVPtest,42,g,true,490.7000000476837,1,r,,3,1,1,
r4d,RSVPtest,43,g,false,382.3000000715256,2,g,,3,1,1,
r4d,RSVPtest,44,g,false,378.89999997615814,1,r,,1,1,2,
r4d,RSVPtest,45,g,false,538.6000000238419,1,r,,2,1,1,
r4d,RSVPtest,46,g,true,458.59999990463257,1,r,,0,2,1,
r4d,RSVPtest,47,g,true,539.6000000238419,0,b,,3,3,0,
r4d,RSVPtest,48,g,true,664.8999999761581,2,g,,2,1,1,
r4d,RSVPtest,49,g,false,488.89999997615814,1,r,,0,1,1,
r4d,RSVPtest,50,g,false,409,0,b,,3,3,0,
r4d,RSVPtest,51,g,true,1179.1999999284744,2,g,,1,2,1,
r4d,RSVPtest,52,g,false,553.6000000238419,2,g,,0,0,2,
r4d,RSVPtest,53,g,true,427.2999999523163,1,r,,3,2,1,
r4d,RSVPtest,54,g,true,488.89999997615814,0,b,,2,3,0,
r4d,RSVPtest,55,g,true,267.10000002384186,1,r,,3,1,1,
r4d,RSVPtest,56,g,true,249.30000007152557,1,r,,0,0,2,
r4d,RSVPtest,57,g,false,362.39999997615814,1,r,,1,0,1,
r4d,RSVPtest,58,g,true,378,2,g,,1,1,2,
r4d,RSVPtest,59,g,false,554.5,1,r,,1,1,2,
r4d,RSVPtest,60,g,true,538.3000000715256,2,g,,2,1,1,
brk,brk,brk,brk,brk,brk,brk,brk,brk,brk,brk,brk,
r4d,RSVPtest,61,g,true,467.3000000715256,0,b,,1,3,0,
r4d,RSVPtest,62,g,false,602,0,b,,1,3,0,
r4d,RSVPtest,63,g,true,475.2000000476837,1,r,,0,2,1,
r4d,RSVPtest,64,g,true,585.1999999284744,2,g,,3,2,1,
r4d,RSVPtest,65,g,false,920.8000000715256,0,b,,3,3,0,
r4d,RSVPtest,66,g,true,409.7000000476837,1,r,,3,2,1,
r4d,RSVPtest,67,g,true,507,1,r,,2,1,1,
r4d,RSVPtest,68,g,true,518.6000000238419,0,b,,3,3,0,
r4d,RSVPtest,69,g,false,538.6000000238419,1,r,,3,0,1,
r4d,RSVPtest,70,g,false,555.3000000715256,0,b,,1,3,0,
r4d,RSVPtest,71,g,false,490.39999997615814,1,r,,2,1,1,
r4d,RSVPtest,72,g,true,490.90000009536743,2,g,,3,2,1,
r4d,RSVPtest,73,g,true,602.7999999523163,1,r,,3,2,1,
r4d,RSVPtest,74,g,false,343.7999999523163,1,r,,3,0,1,
r4d,RSVPtest,75,g,true,376.7999999523163,2,g,,3,1,1,
r4d,RSVPtest,76,g,true,426.7999999523163,2,g,,3,1,1,
r4d,RSVPtest,77,g,false,775.2000000476837,1,r,,1,0,1,
r4d,RSVPtest,78,g,false,647.8999999761581,2,g,,3,2,1,
r4d,RSVPtest,79,g,true,409,1,r,,3,1,1,
r4d,RSVPtest,80,g,false,312.39999997615814,1,r,,3,1,1,
r4d,RSVPtest,81,g,true,266.2000000476837,1,r,,3,2,1,
r4d,RSVPtest,82,g,false,265.7999999523163,2,g,,3,0,1,
r4d,RSVPtest,83,g,true,265.39999997615814,2,g,,3,0,1,
r4d,RSVPtest,84,g,true,251.19999992847443,2,g,,2,1,1,
r4d,RSVPtest,85,g,false,346,2,g,,0,2,1,
r4d,RSVPtest,86,g,true,617.1000000238419,0,b,,2,3,0,
r4d,RSVPtest,87,g,true,426.7999999523163,1,r,,0,0,2,
r4d,RSVPtest,88,g,true,426,0,b,,3,3,0,
r4d,RSVPtest,89,g,true,678.6000000238419,0,b,,3,3,0,
r4d,RSVPtest,90,g,false,632.5,1,r,,3,1,1,
r4d,RSVPtest,91,g,false,473.2999999523163,2,g,,3,0,1,
r4d,RSVPtest,92,g,true,857,0,b,,1,3,0,
r4d,RSVPtest,93,g,false,587.8999999761581,2,g,,2,1,1,
r4d,RSVPtest,94,g,true,570.3000000715256,1,r,,1,2,1,
r4d,RSVPtest,95,g,false,425.5,0,b,,0,3,0,
r4d,RSVPtest,96,g,true,410.39999997615814,1,r,,1,0,1,
r4d,RSVPtest,97,g,false,455.90000009536743,2,g,,2,1,1,
r4d,RSVPtest,98,g,false,584.7999999523163,1,r,,1,1,2,
r4d,RSVPtest,99,g,false,744.7999999523163,0,b,,3,3,0,
r4d,RSVPtest,100,g,false,441,2,g,,2,2,2,
r4d,RSVPtest,101,g,false,520.8999999761581,1,r,,1,0,1,
r4d,RSVPtest,102,g,null,null,1,r,,3,2,1,
r4d,RSVPtest,103,g,true,925,2,g,,2,2,2,
r4d,RSVPtest,104,g,true,344.89999997615814,0,b,,3,3,0,
r4d,RSVPtest,105,g,true,871.8000000715256,2,g,,0,1,1,
r4d,RSVPtest,106,g,true,632.9000000953674,1,r,,3,0,1,
r4d,RSVPtest,107,g,true,487.89999997615814,1,r,,3,1,1,
r4d,RSVPtest,108,g,true,376.1999999284744,2,g,,3,1,1,
r4d,RSVPtest,109,g,false,409.5,0,b,,0,3,0,
r4d,RSVPtest,110,g,false,390.5,1,r,,3,2,1,
r4d,RSVPtest,111,g,false,503.2000000476837,0,b,,0,3,0,
r4d,RSVPtest,112,g,false,1319.8000000715256,0,b,,2,3,0,
r4d,RSVPtest,113,g,true,345.09999990463257,2,g,,1,0,1,
r4d,RSVPtest,114,g,true,328.90000009536743,0,b,,3,3,0,
r4d,RSVPtest,115,g,false,632.7000000476837,2,g,,3,2,1,
r4d,RSVPtest,116,g,true,359.8000000715256,0,b,,3,3,0,
r4d,RSVPtest,117,g,false,330.09999990463257,2,g,,1,1,2,
r4d,RSVPtest,118,g,true,362.5,1,r,,2,2,2,
r4d,RSVPtest,119,g,true,232.89999997615814,1,r,,3,1,1,
r4d,RSVPtest,120,g,true,377.5,1,r,,3,1,1,
brk,brk,brk,brk,brk,brk,brk,brk,brk,brk,brk,brk,
r4d,RSVPtest,121,g,false,379.89999997615814,1,r,,2,1,1,
r4d,RSVPtest,122,g,true,266.1999999284744,0,b,,2,3,0,
r4d,RSVPtest,123,g,false,266.7000000476837,0,b,,0,3,0,
r4d,RSVPtest,124,g,false,392.2999999523163,0,b,,3,3,0,
r4d,RSVPtest,125,g,true,40.5,1,r,,3,1,1,
r4d,RSVPtest,126,g,false,520.6999999284744,2,g,,1,0,1,
r4d,RSVPtest,127,g,true,407.7999999523163,0,b,,3,3,0,
r4d,RSVPtest,128,g,true,313.1999999284744,0,b,,0,3,0,
r4d,RSVPtest,129,g,false,280.2999999523163,2,g,,0,0,2,
r4d,RSVPtest,130,g,true,23.600000023841858,0,b,,1,3,0,
r4d,RSVPtest,131,g,false,280.5,0,b,,1,3,0,
r4d,RSVPtest,132,g,false,245.89999997615814,2,g,,0,2,1,
r4d,RSVPtest,133,g,false,442.2999999523163,1,r,,3,2,1,
r4d,RSVPtest,134,g,false,406.2000000476837,0,b,,0,3,0,
r4d,RSVPtest,135,g,true,329.59999990463257,2,g,,0,2,1,
r4d,RSVPtest,136,g,false,440.10000002384186,1,r,,2,0,1,
r4d,RSVPtest,137,g,true,277.7000000476837,0,b,,1,3,0,
r4d,RSVPtest,138,g,true,377.5,2,g,,3,2,1,
r4d,RSVPtest,139,g,true,408.5,2,g,,3,1,1,
r4d,RSVPtest,140,g,true,457.2000000476837,2,g,,3,0,1,
r4d,RSVPtest,141,g,true,280.60000002384186,0,b,,3,3,0,
r4d,RSVPtest,142,g,false,873.1999999284744,2,g,,0,1,1,
r4d,RSVPtest,143,g,false,951.8999999761581,2,g,,1,0,1,
r4d,RSVPtest,144,g,false,327.59999990463257,1,r,,2,1,1,
r4d,RSVPtest,145,g,false,279.39999997615814,1,r,,3,1,1,
r4d,RSVPtest,146,g,false,327.2999999523163,0,b,,0,3,0,
r4d,RSVPtest,147,g,false,549.8999999761581,1,r,,0,0,2,
r4d,RSVPtest,148,g,true,421.8000000715256,1,r,,3,0,1,
r4d,RSVPtest,149,g,false,341.89999997615814,1,r,,1,2,1,
r4d,RSVPtest,150,g,true,423.40000009536743,2,g,,0,0,2,
r4d,RSVPtest,151,g,true,264.7000000476837,1,r,,3,0,1,
r4d,RSVPtest,152,g,true,1706,0,b,,3,3,0,
r4d,RSVPtest,153,g,false,346.1999999284744,2,g,,2,1,1,
r4d,RSVPtest,154,g,false,248.30000007152557,1,r,,3,2,1,
r4d,RSVPtest,155,g,true,104.20000004768372,1,r,,3,0,1,
r4d,RSVPtest,156,g,true,279.6999999284744,2,g,,0,2,1,
r4d,RSVPtest,157,g,true,329.3000000715256,0,b,,3,3,0,
r4d,RSVPtest,158,g,false,248.10000002384186,0,b,,2,3,0,
r4d,RSVPtest,159,g,true,392.09999990463257,1,r,,0,1,1,
r4d,RSVPtest,160,g,false,377.5,0,b,,2,3,0,
r4d,RSVPtest,161,g,true,535.4000000953674,2,g,,3,1,1,
r4d,RSVPtest,162,g,true,425.39999997615814,1,r,,3,1,1,
r4d,RSVPtest,163,g,false,360.2000000476837,1,r,,0,1,1,
r4d,RSVPtest,164,g,false,103.79999995231628,2,g,,2,0,1,
r4d,RSVPtest,165,g,true,197.70000004768372,2,g,,2,2,2,
r4d,RSVPtest,166,g,false,167.89999997615814,2,g,,1,2,1,
r4d,RSVPtest,167,g,false,121,2,g,,3,0,1,
r4d,RSVPtest,168,g,false,247.09999990463257,0,b,,0,3,0,
r4d,RSVPtest,169,g,true,520.2000000476837,2,g,,0,0,2,
r4d,RSVPtest,170,g,false,249,1,r,,1,2,1,
r4d,RSVPtest,171,g,false,679.5999999046326,0,b,,3,3,0,
r4d,RSVPtest,172,g,true,280.7999999523163,1,r,,3,0,1,
r4d,RSVPtest,173,g,false,263.39999997615814,2,g,,0,2,1,
r4d,RSVPtest,174,g,true,454.7000000476837,0,b,,1,3,0,
r4d,RSVPtest,175,g,false,263.5,1,r,,0,1,1,
r4d,RSVPtest,176,g,true,345.2000000476837,0,b,,2,3,0,
r4d,RSVPtest,177,g,true,312.10000002384186,2,g,,3,1,1,
r4d,RSVPtest,178,g,false,472.7000000476837,0,b,,0,3,0,
r4d,RSVPtest,179,g,false,313,1,r,,3,0,1,
r4d,RSVPtest,180,g,true,359.7000000476837,2,g,,3,2,1,
brk,brk,brk,brk,brk,brk,brk,brk,brk,brk,brk,brk,
r4d,RSVPtest,181,g,false,268.8000000715256,2,g,,3,2,1,
r4d,RSVPtest,182,g,false,264.10000002384186,1,r,,2,2,2,
r4d,RSVPtest,183,g,false,344.60000002384186,1,r,,3,2,1,
r4d,RSVPtest,184,g,false,355.8000000715256,1,r,,1,2,1,
r4d,RSVPtest,185,g,true,279.10000002384186,1,r,,1,1,2,
r4d,RSVPtest,186,g,false,231,1,r,,1,2,1,
r4d,RSVPtest,187,g,false,504.2000000476837,0,b,,3,3,0,
r4d,RSVPtest,188,g,false,67.70000004768372,1,r,,2,0,1,
r4d,RSVPtest,189,g,true,1127.2999999523163,0,b,,3,3,0,
r4d,RSVPtest,190,g,true,232.40000009536743,2,g,,3,2,1,
r4d,RSVPtest,191,g,true,248.69999992847443,1,r,,2,2,2,
r4d,RSVPtest,192,g,false,264.3000000715256,2,g,,2,0,1,
r4d,RSVPtest,193,g,false,309.5,2,g,,3,2,1,
r4d,RSVPtest,194,g,true,248.60000002384186,1,r,,3,2,1,
r4d,RSVPtest,195,g,true,280.2999999523163,2,g,,1,1,2,
r4d,RSVPtest,196,g,false,249.70000004768372,2,g,,1,1,2,
r4d,RSVPtest,197,g,true,694.5,2,g,,1,2,1,
r4d,RSVPtest,198,g,true,1801.1000000238419,2,g,,3,1,1,
r4d,RSVPtest,199,g,true,503.8000000715256,1,r,,0,0,2,
r4d,RSVPtest,200,g,true,504.1999999284744,0,b,,3,3,0,
r4d,RSVPtest,201,g,true,728.5,2,g,,0,1,1,
r4d,RSVPtest,202,g,true,695.6000000238419,2,g,,3,2,1,
r4d,RSVPtest,203,g,true,680.5999999046326,1,r,,1,1,2,
r4d,RSVPtest,204,g,false,486.6999999284744,2,g,,0,1,1,
r4d,RSVPtest,205,g,true,486.6999999284744,1,r,,2,0,1,
r4d,RSVPtest,206,g,true,360.89999997615814,2,g,,3,2,1,
r4d,RSVPtest,207,g,false,503.10000002384186,1,r,,1,0,1,
r4d,RSVPtest,208,g,true,54.200000047683716,2,g,,2,2,2,
r4d,RSVPtest,209,g,true,264.7999999523163,1,r,,3,0,1,
r4d,RSVPtest,210,g,false,297.89999997615814,0,b,,1,3,0,
r4d,RSVPtest,211,g,true,247.39999997615814,2,g,,0,2,1,
r4d,RSVPtest,212,g,true,423.8000000715256,1,r,,3,2,1,
r4d,RSVPtest,213,g,false,311.2999999523163,2,g,,2,2,2,
r4d,RSVPtest,214,g,true,342.90000009536743,2,g,,0,1,1,
r4d,RSVPtest,215,g,false,295.7999999523163,2,g,,2,0,1,
r4d,RSVPtest,216,g,false,169.70000004768372,1,r,,3,0,1,
r4d,RSVPtest,217,g,false,406.8000000715256,1,r,,0,0,2,
r4d,RSVPtest,218,g,true,518.8999999761581,1,r,,2,1,1,
r4d,RSVPtest,219,g,false,390.09999990463257,0,b,,1,3,0,
r4d,RSVPtest,220,g,true,279.39999997615814,0,b,,0,3,0,
r4d,RSVPtest,221,g,true,359.5,0,b,,3,3,0,
r4d,RSVPtest,222,g,true,22.200000047683716,2,g,,2,2,2,
r4d,RSVPtest,223,g,false,22.200000047683716,1,r,,0,2,1,
r4d,RSVPtest,224,g,true,342.60000002384186,2,g,,1,2,1,
r4d,RSVPtest,225,g,false,548.8999999761581,0,b,,2,3,0,
r4d,RSVPtest,226,g,true,295.2999999523163,2,g,,3,2,1,
r4d,RSVPtest,227,g,true,406.2999999523163,1,r,,0,2,1,
r4d,RSVPtest,228,g,false,229.69999992847443,0,b,,0,3,0,
r4d,RSVPtest,229,g,null,null,1,r,,0,2,1,
r4d,RSVPtest,230,g,false,411,1,r,,2,0,1,
r4d,RSVPtest,231,g,true,295.3000000715256,2,g,,3,0,1,
r4d,RSVPtest,232,g,false,485.60000002384186,2,g,,2,0,1,
r4d,RSVPtest,233,g,true,278.6999999284744,1,r,,2,0,1,
r4d,RSVPtest,234,g,true,294.39999997615814,2,g,,3,0,1,
r4d,RSVPtest,235,g,true,103.60000002384186,0,b,,2,3,0,
r4d,RSVPtest,236,g,false,566.6000000238419,0,b,,2,3,0,
r4d,RSVPtest,237,g,false,567.3000000715256,2,g,,2,0,1,
r4d,RSVPtest,238,g,false,407.1999999284744,0,b,,3,3,0,
r4d,RSVPtest,239,g,false,487.10000002384186,2,g,,0,0,2,
r4d,RSVPtest,240,g,true,358.2999999523163,1,r,,2,0,1,
