subID,trialType,trialNum,cntBalance,correct,rt,rwdType,tgtCol,tgtDir,tgtPos,colPos,colMatch,
lxj,VDACtrain,0,g,true,948.8000000715256,2,g,v,0,,,
lxj,VDACtrain,0,g,true,601.1999999284744,1,r,h,2,,,
lxj,VDACtrain,0,g,true,718.6000000238419,1,r,h,0,,,
lxj,VDACtrain,0,g,true,551.5999999046326,2,g,v,5,,,
lxj,VDACtrain,0,g,true,527.5999999046326,1,r,h,1,,,
lxj,VDACtrain,0,g,true,767.2000000476837,1,r,v,3,,,
lxj,VDACtrain,0,g,true,806.2000000476837,2,g,h,5,,,
lxj,VDACtrain,0,g,true,533,1,r,v,4,,,
lxj,VDACtrain,0,g,true,663.2999999523163,2,g,v,2,,,
lxj,VDACtrain,0,g,false,932.1999999284744,2,g,h,3,,,
lxj,VDACtest,1,g,false,921.1000000238419,2,g,v,2,,,
lxj,VDACtest,2,g,true,718.8999999761581,2,g,h,2,,,
lxj,VDACtest,3,g,true,654.8000000715256,2,g,v,0,,,
lxj,VDACtest,4,g,true,918.8999999761581,2,g,h,0,,,
lxj,VDACtest,5,g,true,606.8999999761581,2,g,v,4,,,
lxj,VDACtest,6,g,false,495.7000000476837,1,r,v,2,,,
lxj,VDACtest,7,g,true,694.8999999761581,1,r,h,2,,,
lxj,VDACtest,8,g,true,703.7000000476837,1,r,h,0,,,
lxj,VDACtest,9,g,true,534.2999999523163,1,r,v,2,,,
lxj,VDACtest,10,g,true,623.8000000715256,2,g,v,1,,,
lxj,VDACtest,11,g,true,727.7999999523163,1,r,h,1,,,
lxj,VDACtest,12,g,true,925,1,r,v,3,,,
lxj,VDACtest,13,g,true,648.1000000238419,1,r,v,2,,,
lxj,VDACtest,14,g,true,495.60000002384186,1,r,v,3,,,
lxj,VDACtest,15,g,true,510.89999997615814,2,g,v,2,,,
lxj,VDACtest,16,g,true,528.3000000715256,1,r,v,3,,,
lxj,VDACtest,17,g,true,615.1999999284744,2,g,v,0,,,
lxj,VDACtest,18,g,true,591.2000000476837,2,g,h,5,,,
lxj,VDACtest,19,g,true,554.6000000238419,1,r,h,3,,,
lxj,VDACtest,20,g,true,600.5,2,g,v,1,,,
lxj,VDACtest,21,g,true,537.1999999284744,2,g,h,5,,,
lxj,VDACtest,22,g,true,494.5,1,r,v,4,,,
lxj,VDACtest,23,g,true,471.5,2,g,h,3,,,
lxj,VDACtest,24,g,true,590.5,2,g,v,3,,,
lxj,VDACtest,25,g,false,592.3999999761581,1,r,h,1,,,
lxj,VDACtest,26,g,true,776.3999999761581,1,r,h,3,,,
lxj,VDACtest,27,g,true,605.6000000238419,1,r,h,4,,,
lxj,VDACtest,28,g,true,662.5999999046326,2,g,h,3,,,
lxj,VDACtest,29,g,true,473.60000002384186,2,g,h,2,,,
lxj,VDACtest,30,g,true,630.3999999761581,2,g,h,3,,,
lxj,VDACtest,31,g,true,442.2999999523163,1,r,v,0,,,
lxj,VDACtest,32,g,true,599.3000000715256,2,g,h,4,,,
lxj,VDACtest,33,g,true,552.1000000238419,1,r,v,4,,,
lxj,VDACtest,34,g,true,639.1000000238419,1,r,h,5,,,
lxj,VDACtest,35,g,true,663.6000000238419,1,r,v,1,,,
lxj,VDACtest,36,g,true,616.8000000715256,2,g,h,4,,,
lxj,VDACtest,37,g,true,591.7000000476837,1,r,h,0,,,
lxj,VDACtest,38,g,true,686.9000000953674,2,g,h,0,,,
lxj,VDACtest,39,g,true,498.5,1,r,h,3,,,
lxj,VDACtest,40,g,true,688.2000000476837,2,g,v,2,,,
lxj,VDACtest,41,g,true,761.5,2,g,h,5,,,
lxj,VDACtest,42,g,true,575,2,g,v,2,,,
lxj,VDACtest,43,g,true,733.6000000238419,2,g,v,3,,,
lxj,VDACtest,44,g,true,453.59999990463257,1,r,v,0,,,
lxj,VDACtest,45,g,true,697.1999999284744,1,r,h,5,,,
lxj,VDACtest,46,g,true,845.6999999284744,1,r,v,0,,,
lxj,VDACtest,47,g,true,730.3000000715256,1,r,v,1,,,
lxj,VDACtest,48,g,true,638.6999999284744,1,r,h,1,,,
lxj,VDACtest,49,g,true,592.6000000238419,1,r,v,5,,,
lxj,VDACtest,50,g,true,536.8999999761581,1,r,v,0,,,
brk,brk,brk,brk,brk,brk,brk,brk,brk,brk,brk,brk,
lxj,VDACtest,51,g,true,616.1000000238419,1,r,h,1,,,
lxj,VDACtest,52,g,true,495.60000002384186,2,g,v,1,,,
lxj,VDACtest,53,g,true,399.7000000476837,1,r,v,5,,,
lxj,VDACtest,54,g,true,409.09999990463257,1,r,h,5,,,
lxj,VDACtest,55,g,true,463,1,r,h,4,,,
lxj,VDACtest,56,g,true,431.39999997615814,2,g,v,2,,,
lxj,VDACtest,57,g,true,743.6999999284744,2,g,h,4,,,
lxj,VDACtest,58,g,true,445.2999999523163,2,g,v,5,,,
lxj,VDACtest,59,g,true,614.6999999284744,1,r,h,3,,,
lxj,VDACtest,60,g,true,495.60000002384186,1,r,v,2,,,
lxj,VDACtest,61,g,true,526.2000000476837,2,g,h,2,,,
lxj,VDACtest,62,g,false,455.39999997615814,1,r,h,5,,,
lxj,VDACtest,63,g,true,600.8999999761581,2,g,v,1,,,
lxj,VDACtest,64,g,true,563.7999999523163,1,r,h,0,,,
lxj,VDACtest,65,g,false,542.9000000953674,1,r,h,5,,,
lxj,VDACtest,66,g,true,423,1,r,v,4,,,
lxj,VDACtest,67,g,true,550.1999999284744,1,r,v,1,,,
lxj,VDACtest,68,g,true,537.1000000238419,2,g,v,1,,,
lxj,VDACtest,69,g,true,529.1000000238419,1,r,v,4,,,
lxj,VDACtest,70,g,true,799.9000000953674,2,g,v,4,,,
lxj,VDACtest,71,g,true,616.6000000238419,1,r,v,1,,,
lxj,VDACtest,72,g,true,422.90000009536743,1,r,v,4,,,
lxj,VDACtest,73,g,true,661,1,r,h,2,,,
lxj,VDACtest,74,g,true,442.3000000715256,2,g,v,3,,,
lxj,VDACtest,75,g,true,593,2,g,h,1,,,
lxj,VDACtest,76,g,true,406.5,2,g,h,1,,,
lxj,VDACtest,77,g,true,593.3999999761581,2,g,v,3,,,
lxj,VDACtest,78,g,true,592.5,2,g,v,0,,,
lxj,VDACtest,79,g,true,510.7999999523163,2,g,v,2,,,
lxj,VDACtest,80,g,true,497.39999997615814,1,r,v,4,,,
lxj,VDACtest,81,g,true,408.89999997615814,2,g,v,4,,,
lxj,VDACtest,82,g,true,478.7000000476837,1,r,v,1,,,
lxj,VDACtest,83,g,true,478.2999999523163,2,g,v,5,,,
lxj,VDACtest,84,g,true,552,2,g,h,3,,,
lxj,VDACtest,85,g,true,582.3000000715256,1,r,h,1,,,
lxj,VDACtest,86,g,true,511.2000000476837,1,r,h,2,,,
lxj,VDACtest,87,g,true,543.7000000476837,1,r,v,2,,,
lxj,VDACtest,88,g,false,703.2999999523163,2,g,h,5,,,
lxj,VDACtest,89,g,false,721.7999999523163,2,g,h,4,,,
lxj,VDACtest,90,g,true,772,1,r,h,1,,,
lxj,VDACtest,91,g,true,613,1,r,v,1,,,
lxj,VDACtest,92,g,true,519.8000000715256,1,r,v,2,,,
lxj,VDACtest,93,g,true,462.3000000715256,2,g,h,1,,,
lxj,VDACtest,94,g,true,572.7999999523163,1,r,v,3,,,
lxj,VDACtest,95,g,true,576.2000000476837,1,r,h,3,,,
lxj,VDACtest,96,g,true,427.10000002384186,1,r,h,2,,,
lxj,VDACtest,97,g,true,430.3000000715256,2,g,v,1,,,
lxj,VDACtest,98,g,true,670,2,g,v,5,,,
lxj,VDACtest,99,g,true,559.1999999284744,2,g,h,4,,,
lxj,VDACtest,100,g,true,543.2000000476837,2,g,h,5,,,
brk,brk,brk,brk,brk,brk,brk,brk,brk,brk,brk,brk,
lxj,VDACtest,101,g,true,480.59999990463257,1,r,h,0,,,
lxj,VDACtest,102,g,true,430.2000000476837,1,r,h,4,,,
lxj,VDACtest,103,g,true,470.59999990463257,1,r,h,4,,,
lxj,VDACtest,104,g,true,465.2000000476837,1,r,v,3,,,
lxj,VDACtest,105,g,true,519.3000000715256,1,r,h,4,,,
lxj,VDACtest,106,g,true,496.6999999284744,1,r,h,2,,,
lxj,VDACtest,107,g,true,663.1999999284744,1,r,v,0,,,
lxj,VDACtest,108,g,true,463.59999990463257,2,g,h,3,,,
lxj,VDACtest,109,g,true,496.5,2,g,h,5,,,
lxj,VDACtest,110,g,true,459.39999997615814,2,g,v,5,,,
lxj,VDACtest,111,g,false,470.3000000715256,2,g,v,3,,,
lxj,VDACtest,112,g,true,551.2999999523163,1,r,v,5,,,
lxj,VDACtest,113,g,true,643.3999999761581,1,r,h,4,,,
lxj,VDACtest,114,g,true,750.2000000476837,2,g,h,0,,,
lxj,VDACtest,115,g,true,533.5,2,g,v,3,,,
lxj,VDACtest,116,g,true,807.3999999761581,1,r,v,0,,,
lxj,VDACtest,117,g,true,592,2,g,v,5,,,
lxj,VDACtest,118,g,true,526.3999999761581,1,r,v,0,,,
lxj,VDACtest,119,g,true,608.6999999284744,2,g,h,0,,,
lxj,VDACtest,120,g,true,519.3999999761581,2,g,h,0,,,
lxj,VDACtest,121,g,true,496,2,g,v,4,,,
lxj,VDACtest,122,g,true,600.7000000476837,2,g,v,4,,,
lxj,VDACtest,123,g,true,590.6000000238419,2,g,h,1,,,
lxj,VDACtest,124,g,true,673.5,2,g,v,1,,,
lxj,VDACtest,125,g,true,917.8000000715256,1,r,v,3,,,
lxj,VDACtest,126,g,true,480,1,r,v,4,,,
lxj,VDACtest,127,g,true,551.1000000238419,1,r,h,5,,,
lxj,VDACtest,128,g,true,489.60000002384186,1,r,v,4,,,
lxj,VDACtest,129,g,true,663.8999999761581,1,r,v,3,,,
lxj,VDACtest,130,g,true,813.1000000238419,1,r,h,0,,,
lxj,VDACtest,131,g,null,null,2,g,h,4,,,
lxj,VDACtest,132,g,true,487.89999997615814,2,g,h,5,,,
lxj,VDACtest,133,g,true,439,2,g,h,1,,,
lxj,VDACtest,134,g,true,461,1,r,h,4,,,
lxj,VDACtest,135,g,true,416.8000000715256,2,g,v,4,,,
lxj,VDACtest,136,g,false,611,2,g,v,0,,,
lxj,VDACtest,137,g,true,461.39999997615814,1,r,v,1,,,
lxj,VDACtest,138,g,true,615.2000000476837,1,r,h,2,,,
lxj,VDACtest,139,g,true,401.89999997615814,1,r,v,4,,,
lxj,VDACtest,140,g,true,736.8999999761581,2,g,h,2,,,
lxj,VDACtest,141,g,true,869.6000000238419,2,g,h,0,,,
lxj,VDACtest,142,g,false,600.8999999761581,1,r,h,0,,,
lxj,VDACtest,143,g,true,477.89999997615814,2,g,v,0,,,
lxj,VDACtest,144,g,true,639.6000000238419,1,r,v,1,,,
lxj,VDACtest,145,g,true,574.2000000476837,2,g,v,2,,,
lxj,VDACtest,146,g,true,567.6999999284744,2,g,v,3,,,
lxj,VDACtest,147,g,true,481.7999999523163,2,g,v,4,,,
lxj,VDACtest,148,g,true,552.2999999523163,2,g,h,4,,,
lxj,VDACtest,149,g,true,517,2,g,v,1,,,
lxj,VDACtest,150,g,true,604.2000000476837,1,r,h,0,,,
brk,brk,brk,brk,brk,brk,brk,brk,brk,brk,brk,brk,
lxj,VDACtest,151,g,false,492.5,2,g,v,0,,,
lxj,VDACtest,152,g,true,686.1000000238419,1,r,v,3,,,
lxj,VDACtest,153,g,true,423.7000000476837,1,r,h,2,,,
lxj,VDACtest,154,g,true,503.60000002384186,2,g,h,3,,,
lxj,VDACtest,155,g,true,519.7999999523163,2,g,h,2,,,
lxj,VDACtest,156,g,true,439.5,2,g,v,4,,,
lxj,VDACtest,157,g,true,445.89999997615814,1,r,v,0,,,
lxj,VDACtest,158,g,true,390.8000000715256,1,r,v,5,,,
lxj,VDACtest,159,g,true,440.10000002384186,1,r,h,1,,,
lxj,VDACtest,160,g,true,497.5,1,r,h,1,,,
lxj,VDACtest,161,g,true,462.2000000476837,1,r,h,5,,,
lxj,VDACtest,162,g,false,477.2999999523163,1,r,v,5,,,
lxj,VDACtest,163,g,true,581.5999999046326,2,g,v,2,,,
lxj,VDACtest,164,g,true,519.6999999284744,2,g,h,4,,,
lxj,VDACtest,165,g,true,439.1999999284744,2,g,v,5,,,
lxj,VDACtest,166,g,true,526.6000000238419,2,g,v,1,,,
lxj,VDACtest,167,g,false,455.10000002384186,1,r,v,2,,,
lxj,VDACtest,168,g,true,479.5,2,g,h,2,,,
lxj,VDACtest,169,g,true,543,1,r,v,1,,,
lxj,VDACtest,170,g,true,554.9000000953674,1,r,v,2,,,
lxj,VDACtest,171,g,true,591.5999999046326,1,r,h,4,,,
lxj,VDACtest,172,g,true,592.8999999761581,2,g,h,1,,,
lxj,VDACtest,173,g,true,439,2,g,v,4,,,
lxj,VDACtest,174,g,true,480,2,g,h,1,,,
lxj,VDACtest,175,g,true,439,1,r,v,5,,,
lxj,VDACtest,176,g,false,493.90000009536743,1,r,h,4,,,
lxj,VDACtest,177,g,true,607,2,g,v,0,,,
lxj,VDACtest,178,g,true,527.6999999284744,2,g,v,5,,,
lxj,VDACtest,179,g,true,694.3000000715256,2,g,h,0,,,
lxj,VDACtest,180,g,true,583.6000000238419,1,r,h,1,,,
lxj,VDACtest,181,g,true,479.59999990463257,2,g,h,5,,,
lxj,VDACtest,182,g,true,647.5,1,r,h,3,,,
lxj,VDACtest,183,g,true,391.39999997615814,2,g,v,0,,,
lxj,VDACtest,184,g,true,496.2000000476837,1,r,v,5,,,
lxj,VDACtest,185,g,true,381.3000000715256,2,g,v,5,,,
lxj,VDACtest,186,g,true,385.7000000476837,2,g,h,3,,,
lxj,VDACtest,187,g,true,622.7000000476837,2,g,h,4,,,
lxj,VDACtest,188,g,true,509.10000002384186,2,g,h,3,,,
lxj,VDACtest,189,g,true,351,2,g,h,2,,,
lxj,VDACtest,190,g,true,471.3000000715256,2,g,h,1,,,
lxj,VDACtest,191,g,true,399.60000002384186,2,g,h,1,,,
lxj,VDACtest,192,g,true,528.6999999284744,1,r,h,3,,,
lxj,VDACtest,193,g,true,359.10000002384186,2,g,h,0,,,
lxj,VDACtest,194,g,false,325.1999999284744,2,g,v,3,,,
lxj,VDACtest,195,g,true,383.5,1,r,v,5,,,
lxj,VDACtest,196,g,true,447,2,g,h,2,,,
lxj,VDACtest,197,g,true,721,1,r,h,2,,,
lxj,VDACtest,198,g,true,648.1000000238419,1,r,h,5,,,
lxj,VDACtest,199,g,true,465.7000000476837,1,r,h,3,,,
lxj,VDACtest,200,g,true,406.2000000476837,1,r,h,0,,,
lxj,RSVPtrain,0,g,true,1158.6999999284744,1,r,,0,0,2,
lxj,RSVPtrain,0,g,false,725.8999999761581,0,b,,1,3,0,
lxj,RSVPtrain,0,g,false,560.7999999523163,2,g,,3,0,1,
lxj,RSVPtrain,0,g,true,624.7000000476837,2,g,,3,1,1,
lxj,RSVPtrain,0,g,true,710.5,2,g,,2,2,2,
lxj,RSVPtrain,0,g,true,611.7000000476837,0,b,,0,3,0,
lxj,RSVPtrain,0,g,false,528.8999999761581,1,r,,3,2,1,
lxj,RSVPtrain,0,g,true,666.3999999761581,2,g,,1,0,1,
lxj,RSVPtrain,0,g,false,674.0999999046326,1,r,,1,1,2,
lxj,RSVPtrain,0,g,true,529.2000000476837,0,b,,3,3,0,
lxj,RSVPtest,1,g,true,564.1000000238419,2,g,,1,0,1,
lxj,RSVPtest,2,g,true,466.2000000476837,2,g,,3,1,1,
lxj,RSVPtest,3,g,true,449.7999999523163,1,r,,1,1,2,
lxj,RSVPtest,4,g,true,682,2,g,,0,2,1,
lxj,RSVPtest,5,g,true,546.0999999046326,2,g,,3,1,1,
lxj,RSVPtest,6,g,true,562.7999999523163,1,r,,3,2,1,
lxj,RSVPtest,7,g,true,612.3999999761581,1,r,,1,1,2,
lxj,RSVPtest,8,g,true,520.5,0,b,,2,3,0,
lxj,RSVPtest,9,g,true,464.3000000715256,2,g,,3,0,1,
lxj,RSVPtest,10,g,true,514,0,b,,2,3,0,
lxj,RSVPtest,11,g,true,520.2000000476837,2,g,,1,2,1,
lxj,RSVPtest,12,g,true,441.5,1,r,,2,1,1,
lxj,RSVPtest,13,g,true,448.5,2,g,,3,1,1,
lxj,RSVPtest,14,g,true,671.6000000238419,2,g,,3,0,1,
lxj,RSVPtest,15,g,true,374.10000002384186,2,g,,2,0,1,
lxj,RSVPtest,16,g,true,497.3000000715256,1,r,,3,0,1,
lxj,RSVPtest,17,g,true,626.1999999284744,2,g,,3,2,1,
lxj,RSVPtest,18,g,true,463.6999999284744,2,g,,2,0,1,
lxj,RSVPtest,19,g,true,568.3000000715256,1,r,,2,2,2,
lxj,RSVPtest,20,g,true,608.7999999523163,1,r,,3,1,1,
lxj,RSVPtest,21,g,true,321.59999990463257,0,b,,0,3,0,
lxj,RSVPtest,22,g,true,369.7999999523163,0,b,,3,3,0,
lxj,RSVPtest,23,g,true,463.2999999523163,0,b,,2,3,0,
lxj,RSVPtest,24,g,true,362.5,2,g,,3,1,1,
lxj,RSVPtest,25,g,false,435.90000009536743,0,b,,2,3,0,
lxj,RSVPtest,26,g,false,447.7999999523163,2,g,,2,2,2,
lxj,RSVPtest,27,g,true,682.6000000238419,0,b,,3,3,0,
lxj,RSVPtest,28,g,true,1177.6999999284744,2,g,,3,0,1,
lxj,RSVPtest,29,g,true,525.3000000715256,2,g,,1,2,1,
lxj,RSVPtest,30,g,true,652.4000000953674,1,r,,2,0,1,
lxj,RSVPtest,31,g,true,934.8999999761581,2,g,,0,2,1,
lxj,RSVPtest,32,g,true,721.1000000238419,1,r,,3,0,1,
lxj,RSVPtest,33,g,true,635.1000000238419,1,r,,3,2,1,
lxj,RSVPtest,34,g,true,768.6999999284744,1,r,,1,1,2,
lxj,RSVPtest,35,g,true,455.59999990463257,1,r,,3,1,1,
lxj,RSVPtest,36,g,true,449,2,g,,3,2,1,
lxj,RSVPtest,37,g,true,648.6000000238419,1,r,,2,2,2,
lxj,RSVPtest,38,g,true,680.8999999761581,0,b,,0,3,0,
lxj,RSVPtest,39,g,true,523,1,r,,3,2,1,
lxj,RSVPtest,40,g,false,401.6999999284744,2,g,,0,1,1,
lxj,RSVPtest,41,g,true,665.6000000238419,0,b,,3,3,0,
lxj,RSVPtest,42,g,true,464.89999997615814,1,r,,3,2,1,
lxj,RSVPtest,43,g,true,377.10000002384186,1,r,,3,1,1,
lxj,RSVPtest,44,g,true,648.7000000476837,2,g,,0,1,1,
lxj,RSVPtest,45,g,true,423.2000000476837,2,g,,0,1,1,
lxj,RSVPtest,46,g,true,611.8000000715256,0,b,,0,3,0,
lxj,RSVPtest,47,g,true,477.1999999284744,0,b,,2,3,0,
lxj,RSVPtest,48,g,true,408.10000002384186,2,g,,0,0,2,
lxj,RSVPtest,49,g,true,416.5,1,r,,2,1,1,
lxj,RSVPtest,50,g,true,495,0,b,,3,3,0,
lxj,RSVPtest,51,g,true,610.1999999284744,0,b,,2,3,0,
lxj,RSVPtest,52,g,true,423.3000000715256,1,r,,3,0,1,
lxj,RSVPtest,53,g,true,427.5,0,b,,3,3,0,
lxj,RSVPtest,54,g,true,510.09999990463257,2,g,,2,2,2,
lxj,RSVPtest,55,g,true,402.40000009536743,2,g,,3,1,1,
lxj,RSVPtest,56,g,true,649.0999999046326,2,g,,1,2,1,
lxj,RSVPtest,57,g,true,458.39999997615814,2,g,,3,1,1,
lxj,RSVPtest,58,g,true,550.4000000953674,2,g,,3,2,1,
lxj,RSVPtest,59,g,true,488.8000000715256,1,r,,0,0,2,
lxj,RSVPtest,60,g,true,486.39999997615814,0,b,,1,3,0,
brk,brk,brk,brk,brk,brk,brk,brk,brk,brk,brk,brk,
lxj,RSVPtest,61,g,true,475.7999999523163,2,g,,2,2,2,
lxj,RSVPtest,62,g,true,607.3999999761581,0,b,,1,3,0,
lxj,RSVPtest,63,g,false,568.3999999761581,0,b,,2,3,0,
lxj,RSVPtest,64,g,true,798.7999999523163,0,b,,3,3,0,
lxj,RSVPtest,65,g,true,474.3000000715256,1,r,,1,0,1,
lxj,RSVPtest,66,g,true,512.2000000476837,2,g,,0,0,2,
lxj,RSVPtest,67,g,true,747.7000000476837,1,r,,3,2,1,
lxj,RSVPtest,68,g,true,448,0,b,,1,3,0,
lxj,RSVPtest,69,g,true,544.1000000238419,1,r,,0,2,1,
lxj,RSVPtest,70,g,true,505,0,b,,3,3,0,
lxj,RSVPtest,71,g,true,384.2000000476837,0,b,,1,3,0,
lxj,RSVPtest,72,g,true,495.6999999284744,2,g,,1,0,1,
lxj,RSVPtest,73,g,false,359,2,g,,1,1,2,
lxj,RSVPtest,74,g,true,602.8999999761581,1,r,,3,0,1,
lxj,RSVPtest,75,g,true,425.39999997615814,2,g,,1,1,2,
lxj,RSVPtest,76,g,true,565.3999999761581,1,r,,3,1,1,
lxj,RSVPtest,77,g,true,654.7999999523163,0,b,,3,3,0,
lxj,RSVPtest,78,g,true,495.89999997615814,0,b,,3,3,0,
lxj,RSVPtest,79,g,true,609.5,0,b,,0,3,0,
lxj,RSVPtest,80,g,true,520.6999999284744,0,b,,1,3,0,
lxj,RSVPtest,81,g,false,640.6000000238419,1,r,,0,0,2,
lxj,RSVPtest,82,g,true,639.3999999761581,0,b,,1,3,0,
lxj,RSVPtest,83,g,true,429.7000000476837,2,g,,1,1,2,
lxj,RSVPtest,84,g,true,423.7999999523163,2,g,,1,0,1,
lxj,RSVPtest,85,g,true,688.6000000238419,0,b,,3,3,0,
lxj,RSVPtest,86,g,true,496.59999990463257,2,g,,3,2,1,
lxj,RSVPtest,87,g,true,572.3999999761581,2,g,,1,0,1,
lxj,RSVPtest,88,g,false,383.8000000715256,2,g,,2,0,1,
lxj,RSVPtest,89,g,true,592.2999999523163,2,g,,3,2,1,
lxj,RSVPtest,90,g,true,925.3999999761581,2,g,,3,0,1,
lxj,RSVPtest,91,g,true,839.8999999761581,2,g,,1,1,2,
lxj,RSVPtest,92,g,false,671.3999999761581,0,b,,0,3,0,
lxj,RSVPtest,93,g,true,479.2999999523163,1,r,,1,0,1,
lxj,RSVPtest,94,g,false,498.2000000476837,2,g,,3,0,1,
lxj,RSVPtest,95,g,true,456.7999999523163,2,g,,2,1,1,
lxj,RSVPtest,96,g,true,560.1000000238419,0,b,,3,3,0,
lxj,RSVPtest,97,g,true,440.1999999284744,2,g,,2,1,1,
lxj,RSVPtest,98,g,true,670.0999999046326,2,g,,2,2,2,
lxj,RSVPtest,99,g,true,639,2,g,,3,0,1,
lxj,RSVPtest,100,g,true,537.7999999523163,1,r,,1,1,2,
lxj,RSVPtest,101,g,true,365.3000000715256,0,b,,2,3,0,
lxj,RSVPtest,102,g,true,910.7999999523163,1,r,,1,2,1,
lxj,RSVPtest,103,g,true,559.1000000238419,0,b,,3,3,0,
lxj,RSVPtest,104,g,true,535.1999999284744,1,r,,3,0,1,
lxj,RSVPtest,105,g,true,392.3000000715256,2,g,,2,1,1,
lxj,RSVPtest,106,g,true,388.89999997615814,1,r,,1,0,1,
lxj,RSVPtest,107,g,true,503.89999997615814,1,r,,1,2,1,
lxj,RSVPtest,108,g,true,577.5,0,b,,3,3,0,
lxj,RSVPtest,109,g,true,390.39999997615814,2,g,,1,1,2,
lxj,RSVPtest,110,g,true,581.2999999523163,2,g,,3,1,1,
lxj,RSVPtest,111,g,false,933.6000000238419,1,r,,3,2,1,
lxj,RSVPtest,112,g,true,679.2000000476837,0,b,,3,3,0,
lxj,RSVPtest,113,g,true,674.6000000238419,2,g,,0,0,2,
lxj,RSVPtest,114,g,true,743.7999999523163,1,r,,3,2,1,
lxj,RSVPtest,115,g,true,334,0,b,,1,3,0,
lxj,RSVPtest,116,g,true,525.5,2,g,,1,0,1,
lxj,RSVPtest,117,g,true,477.60000002384186,0,b,,3,3,0,
lxj,RSVPtest,118,g,true,409.09999990463257,1,r,,3,1,1,
lxj,RSVPtest,119,g,true,541.2000000476837,1,r,,1,0,1,
lxj,RSVPtest,120,g,true,359.60000002384186,2,g,,3,0,1,
brk,brk,brk,brk,brk,brk,brk,brk,brk,brk,brk,brk,
lxj,RSVPtest,121,g,false,539.8999999761581,1,r,,0,1,1,
lxj,RSVPtest,122,g,true,718.5,0,b,,3,3,0,
lxj,RSVPtest,123,g,true,457.5,1,r,,1,1,2,
lxj,RSVPtest,124,g,true,426.39999997615814,2,g,,3,1,1,
lxj,RSVPtest,125,g,true,470.2999999523163,1,r,,3,2,1,
lxj,RSVPtest,126,g,true,422.89999997615814,1,r,,0,2,1,
lxj,RSVPtest,127,g,true,454.89999997615814,2,g,,3,1,1,
lxj,RSVPtest,128,g,true,495.3000000715256,0,b,,0,3,0,
lxj,RSVPtest,129,g,true,453,0,b,,3,3,0,
lxj,RSVPtest,130,g,true,412.60000002384186,2,g,,1,2,1,
lxj,RSVPtest,131,g,true,368.5,2,g,,3,2,1,
lxj,RSVPtest,132,g,true,588.2000000476837,2,g,,3,0,1,
lxj,RSVPtest,133,g,true,743.1000000238419,1,r,,3,0,1,
lxj,RSVPtest,134,g,true,417.39999997615814,2,g,,3,1,1,
lxj,RSVPtest,135,g,true,1013.1000000238419,1,r,,3,1,1,
lxj,RSVPtest,136,g,true,1079.7999999523163,1,r,,1,2,1,
lxj,RSVPtest,137,g,true,386.2000000476837,2,g,,0,2,1,
lxj,RSVPtest,138,g,true,685.6000000238419,0,b,,3,3,0,
lxj,RSVPtest,139,g,true,597.7000000476837,2,g,,0,2,1,
lxj,RSVPtest,140,g,true,453.10000002384186,2,g,,2,1,1,
lxj,RSVPtest,141,g,true,502.3000000715256,1,r,,3,1,1,
lxj,RSVPtest,142,g,true,371.5,2,g,,0,1,1,
lxj,RSVPtest,143,g,false,431.60000002384186,1,r,,0,1,1,
lxj,RSVPtest,144,g,true,631.8000000715256,1,r,,3,0,1,
lxj,RSVPtest,145,g,true,415,2,g,,3,2,1,
lxj,RSVPtest,146,g,true,580.3999999761581,1,r,,2,0,1,
lxj,RSVPtest,147,g,true,359.7999999523163,1,r,,1,0,1,
lxj,RSVPtest,148,g,true,566.9000000953674,0,b,,0,3,0,
lxj,RSVPtest,149,g,true,509.7999999523163,2,g,,1,2,1,
lxj,RSVPtest,150,g,false,545.8999999761581,2,g,,0,1,1,
lxj,RSVPtest,151,g,true,528.6999999284744,0,b,,1,3,0,
lxj,RSVPtest,152,g,true,479.39999997615814,2,g,,1,0,1,
lxj,RSVPtest,153,g,true,440.10000002384186,2,g,,0,2,1,
lxj,RSVPtest,154,g,true,550.8999999761581,1,r,,2,1,1,
lxj,RSVPtest,155,g,true,355.10000002384186,0,b,,2,3,0,
lxj,RSVPtest,156,g,true,503,2,g,,2,2,2,
lxj,RSVPtest,157,g,true,422.10000002384186,2,g,,2,0,1,
lxj,RSVPtest,158,g,true,327.1999999284744,1,r,,0,2,1,
lxj,RSVPtest,159,g,true,567.6999999284744,1,r,,2,1,1,
lxj,RSVPtest,160,g,true,564.4000000953674,1,r,,0,2,1,
lxj,RSVPtest,161,g,true,424.89999997615814,2,g,,3,1,1,
lxj,RSVPtest,162,g,true,556,1,r,,2,0,1,
lxj,RSVPtest,163,g,true,534.3999999761581,0,b,,2,3,0,
lxj,RSVPtest,164,g,true,466.60000002384186,2,g,,3,0,1,
lxj,RSVPtest,165,g,true,572.2999999523163,0,b,,3,3,0,
lxj,RSVPtest,166,g,true,624.2000000476837,1,r,,2,2,2,
lxj,RSVPtest,167,g,true,461,0,b,,0,3,0,
lxj,RSVPtest,168,g,false,470.10000002384186,1,r,,0,2,1,
lxj,RSVPtest,169,g,true,312.5,1,r,,2,1,1,
lxj,RSVPtest,170,g,true,352.39999997615814,1,r,,0,1,1,
lxj,RSVPtest,171,g,true,544.0999999046326,1,r,,0,0,2,
lxj,RSVPtest,172,g,false,566.1000000238419,1,r,,3,2,1,
lxj,RSVPtest,173,g,true,454.40000009536743,1,r,,3,0,1,
lxj,RSVPtest,174,g,true,691.3999999761581,1,r,,2,1,1,
lxj,RSVPtest,175,g,true,551.7999999523163,1,r,,1,2,1,
lxj,RSVPtest,176,g,true,497.40000009536743,0,b,,3,3,0,
lxj,RSVPtest,177,g,true,432.6999999284744,0,b,,2,3,0,
lxj,RSVPtest,178,g,false,555,0,b,,2,3,0,
lxj,RSVPtest,179,g,true,459.2000000476837,0,b,,1,3,0,
lxj,RSVPtest,180,g,true,368.2000000476837,1,r,,0,1,1,
brk,brk,brk,brk,brk,brk,brk,brk,brk,brk,brk,brk,
lxj,RSVPtest,181,g,true,340.3000000715256,1,r,,2,0,1,
lxj,RSVPtest,182,g,true,864.3999999761581,0,b,,0,3,0,
lxj,RSVPtest,183,g,true,571,2,g,,2,2,2,
lxj,RSVPtest,184,g,true,535.3999999761581,2,g,,3,2,1,
lxj,RSVPtest,185,g,true,709.2000000476837,1,r,,3,0,1,
lxj,RSVPtest,186,g,true,479.6999999284744,1,r,,3,0,1,
lxj,RSVPtest,187,g,true,454.7000000476837,1,r,,0,1,1,
lxj,RSVPtest,188,g,true,770.9000000953674,0,b,,0,3,0,
lxj,RSVPtest,189,g,true,690.8999999761581,2,g,,3,2,1,
lxj,RSVPtest,190,g,true,709.8000000715256,2,g,,3,2,1,
lxj,RSVPtest,191,g,true,655.6000000238419,2,g,,3,2,1,
lxj,RSVPtest,192,g,true,438.10000002384186,1,r,,1,0,1,
lxj,RSVPtest,193,g,true,597.3000000715256,2,g,,3,0,1,
lxj,RSVPtest,194,g,true,614.8999999761581,2,g,,2,0,1,
lxj,RSVPtest,195,g,true,650.3999999761581,1,r,,2,2,2,
lxj,RSVPtest,196,g,true,581.2999999523163,0,b,,3,3,0,
lxj,RSVPtest,197,g,true,382.39999997615814,2,g,,0,2,1,
lxj,RSVPtest,198,g,true,495.89999997615814,1,r,,3,1,1,
lxj,RSVPtest,199,g,false,523.3000000715256,2,g,,0,0,2,
lxj,RSVPtest,200,g,true,638,1,r,,3,1,1,
lxj,RSVPtest,201,g,true,629.5,2,g,,3,0,1,
lxj,RSVPtest,202,g,true,479.39999997615814,1,r,,3,0,1,
lxj,RSVPtest,203,g,true,427.60000002384186,1,r,,1,2,1,
lxj,RSVPtest,204,g,true,631.1000000238419,1,r,,3,0,1,
lxj,RSVPtest,205,g,true,518.6000000238419,1,r,,0,0,2,
lxj,RSVPtest,206,g,true,501.7999999523163,1,r,,3,2,1,
lxj,RSVPtest,207,g,true,743.6999999284744,2,g,,0,0,2,
lxj,RSVPtest,208,g,true,581.2000000476837,1,r,,3,1,1,
lxj,RSVPtest,209,g,true,614.2999999523163,2,g,,3,0,1,
lxj,RSVPtest,210,g,true,541.3000000715256,2,g,,2,1,1,
lxj,RSVPtest,211,g,true,471.59999990463257,2,g,,2,0,1,
lxj,RSVPtest,212,g,true,478.39999997615814,1,r,,3,2,1,
lxj,RSVPtest,213,g,true,560.4000000953674,2,g,,1,1,2,
lxj,RSVPtest,214,g,true,469.2000000476837,0,b,,1,3,0,
lxj,RSVPtest,215,g,true,595.5,1,r,,3,2,1,
lxj,RSVPtest,216,g,true,638.6000000238419,1,r,,3,1,1,
lxj,RSVPtest,217,g,true,374.2000000476837,2,g,,2,1,1,
lxj,RSVPtest,218,g,true,412,1,r,,0,0,2,
lxj,RSVPtest,219,g,true,367,2,g,,0,0,2,
lxj,RSVPtest,220,g,true,572.8999999761581,2,g,,3,2,1,
lxj,RSVPtest,221,g,true,479.2999999523163,0,b,,3,3,0,
lxj,RSVPtest,222,g,true,494.40000009536743,1,r,,1,2,1,
lxj,RSVPtest,223,g,true,470.60000002384186,0,b,,3,3,0,
lxj,RSVPtest,224,g,true,422.60000002384186,1,r,,0,1,1,
lxj,RSVPtest,225,g,true,486.10000002384186,2,g,,3,1,1,
lxj,RSVPtest,226,g,true,621.6000000238419,2,g,,1,2,1,
lxj,RSVPtest,227,g,true,668.1999999284744,1,r,,2,2,2,
lxj,RSVPtest,228,g,false,600.2999999523163,1,r,,2,2,2,
lxj,RSVPtest,229,g,true,349.5,2,g,,0,1,1,
lxj,RSVPtest,230,g,true,677.1000000238419,0,b,,1,3,0,
lxj,RSVPtest,231,g,true,492.5,1,r,,0,2,1,
lxj,RSVPtest,232,g,true,462.3000000715256,1,r,,2,0,1,
lxj,RSVPtest,233,g,true,419.60000002384186,1,r,,1,1,2,
lxj,RSVPtest,234,g,true,382.10000002384186,1,r,,0,0,2,
lxj,RSVPtest,235,g,true,724.8000000715256,1,r,,3,1,1,
lxj,RSVPtest,236,g,true,476.39999997615814,0,b,,0,3,0,
lxj,RSVPtest,237,g,false,596.8999999761581,0,b,,1,3,0,
lxj,RSVPtest,238,g,true,469.2999999523163,0,b,,0,3,0,
lxj,RSVPtest,239,g,true,452.2000000476837,0,b,,3,3,0,
lxj,RSVPtest,240,g,true,725.0999999046326,1,r,,2,0,1,
