subID,trialType,trialNum,cntBalance,correct,rt,rwdType,tgtCol,tgtDir,tgtPos,colPos,colMatch,
xfv,VDACtrain,0,g,null,null,2,g,h,5,,,
xfv,VDACtrain,0,g,true,767,2,g,v,2,,,
xfv,VDACtrain,0,g,true,712.9000000953674,1,r,h,1,,,
xfv,VDACtrain,0,g,true,626.2000000476837,1,r,v,4,,,
xfv,VDACtrain,0,g,true,424.09999990463257,2,g,h,3,,,
xfv,VDACtrain,0,g,false,703.3000001907349,2,g,v,0,,,
xfv,VDACtrain,0,g,true,713.4000000953674,1,r,h,2,,,
xfv,VDACtrain,0,g,false,521.1000001430511,1,r,v,3,,,
xfv,VDACtrain,0,g,true,738.8000001907349,2,g,v,5,,,
xfv,VDACtrain,0,g,true,673.0999999046326,1,r,h,0,,,
xfv,VDACtest,1,g,false,602.2000000476837,2,g,h,4,,,
xfv,VDACtest,2,g,true,688.6999998092651,1,r,v,3,,,
xfv,VDACtest,3,g,true,705,2,g,v,2,,,
xfv,VDACtest,4,g,true,615.8999998569489,1,r,h,0,,,
xfv,VDACtest,5,g,false,561.2000000476837,1,r,h,5,,,
xfv,VDACtest,6,g,true,552.5,1,r,v,5,,,
xfv,VDACtest,7,g,true,610.4000000953674,2,g,v,4,,,
xfv,VDACtest,8,g,true,775.9000000953674,1,r,v,0,,,
xfv,VDACtest,9,g,true,550.7999999523163,1,r,v,4,,,
xfv,VDACtest,10,g,true,376.5,1,r,v,5,,,
xfv,VDACtest,11,g,false,624.6000001430511,1,r,h,4,,,
xfv,VDACtest,12,g,true,648.9000000953674,2,g,v,1,,,
xfv,VDACtest,13,g,true,568.2000000476837,2,g,h,4,,,
xfv,VDACtest,14,g,true,625.2999999523163,1,r,v,1,,,
xfv,VDACtest,15,g,false,609.5,1,r,h,4,,,
xfv,VDACtest,16,g,true,577.8999998569489,2,g,v,4,,,
xfv,VDACtest,17,g,true,577.4000000953674,2,g,h,3,,,
xfv,VDACtest,18,g,true,696,2,g,h,2,,,
xfv,VDACtest,19,g,false,544.8999998569489,2,g,v,1,,,
xfv,VDACtest,20,g,true,672,2,g,v,5,,,
xfv,VDACtest,21,g,true,513,1,r,h,2,,,
xfv,VDACtest,22,g,true,589.7000000476837,2,g,h,2,,,
xfv,VDACtest,23,g,false,738.1999998092651,2,g,h,5,,,
xfv,VDACtest,24,g,true,561.5,1,r,v,5,,,
xfv,VDACtest,25,g,true,737.5,1,r,v,2,,,
xfv,VDACtest,26,g,true,577.7000000476837,1,r,v,3,,,
xfv,VDACtest,27,g,true,522.5999999046326,1,r,v,1,,,
xfv,VDACtest,28,g,true,553.0999999046326,1,r,v,4,,,
xfv,VDACtest,29,g,true,735.2999999523163,2,g,v,1,,,
xfv,VDACtest,30,g,true,569.5,2,g,h,1,,,
xfv,VDACtest,31,g,true,608.6000001430511,1,r,h,2,,,
xfv,VDACtest,32,g,true,744.7000000476837,2,g,v,3,,,
xfv,VDACtest,33,g,true,776.7000000476837,1,r,h,0,,,
xfv,VDACtest,34,g,true,680.5,1,r,h,4,,,
xfv,VDACtest,35,g,true,641.3000001907349,1,r,h,3,,,
xfv,VDACtest,36,g,false,489.59999990463257,2,g,h,0,,,
xfv,VDACtest,37,g,null,null,1,r,v,3,,,
xfv,VDACtest,38,g,true,647.5999999046326,1,r,v,2,,,
xfv,VDACtest,39,g,true,522.1000001430511,1,r,h,3,,,
xfv,VDACtest,40,g,true,522.2999999523163,1,r,h,3,,,
xfv,VDACtest,41,g,true,759.7999999523163,1,r,v,0,,,
xfv,VDACtest,42,g,true,657,1,r,v,3,,,
xfv,VDACtest,43,g,true,889.7999999523163,1,r,h,0,,,
xfv,VDACtest,44,g,true,576.6000001430511,1,r,v,1,,,
xfv,VDACtest,45,g,true,681.7999999523163,1,r,h,1,,,
xfv,VDACtest,46,g,false,545,1,r,v,1,,,
xfv,VDACtest,47,g,true,631.7999999523163,1,r,v,2,,,
xfv,VDACtest,48,g,true,697.7000000476837,1,r,h,5,,,
xfv,VDACtest,49,g,true,609.5999999046326,1,r,v,2,,,
xfv,VDACtest,50,g,false,808.5,2,g,v,3,,,
brk,brk,brk,brk,brk,brk,brk,brk,brk,brk,brk,brk,
xfv,VDACtest,51,g,true,600.5999999046326,2,g,v,1,,,
xfv,VDACtest,52,g,true,616.7999999523163,1,r,h,2,,,
xfv,VDACtest,53,g,true,737.2000000476837,2,g,h,1,,,
xfv,VDACtest,54,g,true,841.8999998569489,1,r,h,5,,,
xfv,VDACtest,55,g,true,544.4000000953674,1,r,h,3,,,
xfv,VDACtest,56,g,true,544.4000000953674,1,r,v,4,,,
xfv,VDACtest,57,g,true,506.10000014305115,1,r,v,4,,,
xfv,VDACtest,58,g,true,678.7000000476837,2,g,h,2,,,
xfv,VDACtest,59,g,true,728.4000000953674,1,r,v,2,,,
xfv,VDACtest,60,g,true,577.3999998569489,1,r,v,3,,,
xfv,VDACtest,61,g,true,591.9000000953674,2,g,h,0,,,
xfv,VDACtest,62,g,true,544.4000000953674,1,r,v,0,,,
xfv,VDACtest,63,g,true,666.2000000476837,2,g,v,4,,,
xfv,VDACtest,64,g,true,816.9000000953674,1,r,h,3,,,
xfv,VDACtest,65,g,true,865.5,1,r,h,4,,,
xfv,VDACtest,66,g,false,561.1999998092651,2,g,h,5,,,
xfv,VDACtest,67,g,true,576.3999998569489,2,g,h,1,,,
xfv,VDACtest,68,g,true,664.6000001430511,2,g,v,5,,,
xfv,VDACtest,69,g,true,497.39999985694885,2,g,h,3,,,
xfv,VDACtest,70,g,null,null,1,r,h,4,,,
xfv,VDACtest,71,g,true,767.7000000476837,2,g,v,4,,,
xfv,VDACtest,72,g,true,496.5,2,g,v,5,,,
xfv,VDACtest,73,g,true,634.2000000476837,1,r,v,2,,,
xfv,VDACtest,74,g,true,633.5,1,r,h,0,,,
xfv,VDACtest,75,g,true,617.2999999523163,1,r,v,2,,,
xfv,VDACtest,76,g,true,566.5999999046326,1,r,v,1,,,
xfv,VDACtest,77,g,true,812.2000000476837,2,g,h,5,,,
xfv,VDACtest,78,g,true,624.9000000953674,2,g,h,2,,,
xfv,VDACtest,79,g,true,528,1,r,v,0,,,
xfv,VDACtest,80,g,true,840.4000000953674,2,g,h,3,,,
xfv,VDACtest,81,g,true,592.9000000953674,1,r,h,1,,,
xfv,VDACtest,82,g,true,490.2000000476837,2,g,v,5,,,
xfv,VDACtest,83,g,true,712.1999998092651,1,r,h,2,,,
xfv,VDACtest,84,g,true,425.30000019073486,1,r,h,1,,,
xfv,VDACtest,85,g,null,null,2,g,h,4,,,
xfv,VDACtest,86,g,false,574,2,g,v,2,,,
xfv,VDACtest,87,g,true,568.5999999046326,2,g,v,4,,,
xfv,VDACtest,88,g,true,753.1000001430511,1,r,h,2,,,
xfv,VDACtest,89,g,true,664.0999999046326,1,r,h,0,,,
xfv,VDACtest,90,g,true,656.5,2,g,h,0,,,
xfv,VDACtest,91,g,true,655.2999999523163,2,g,v,3,,,
xfv,VDACtest,92,g,null,null,2,g,h,5,,,
xfv,VDACtest,93,g,true,611.3999998569489,2,g,h,0,,,
xfv,VDACtest,94,g,true,441.40000009536743,2,g,h,3,,,
xfv,VDACtest,95,g,false,800.5999999046326,1,r,h,0,,,
xfv,VDACtest,96,g,true,606.7000000476837,2,g,v,5,,,
xfv,VDACtest,97,g,true,825.8000001907349,1,r,v,0,,,
xfv,VDACtest,98,g,true,495.5,2,g,h,3,,,
xfv,VDACtest,99,g,true,625.4000000953674,2,g,h,2,,,
xfv,VDACtest,100,g,true,744.5,2,g,h,5,,,
brk,brk,brk,brk,brk,brk,brk,brk,brk,brk,brk,brk,
xfv,VDACtest,101,g,true,638.8999998569489,1,r,v,3,,,
xfv,VDACtest,102,g,true,824,2,g,h,1,,,
xfv,VDACtest,103,g,true,519.2999999523163,2,g,h,0,,,
xfv,VDACtest,104,g,true,809.2999999523163,1,r,v,2,,,
xfv,VDACtest,105,g,true,688.9000000953674,1,r,v,5,,,
xfv,VDACtest,106,g,true,840.4000000953674,1,r,h,0,,,
xfv,VDACtest,107,g,true,552.2999999523163,1,r,h,1,,,
xfv,VDACtest,108,g,true,479.2000000476837,1,r,h,1,,,
xfv,VDACtest,109,g,true,522.3000001907349,1,r,v,1,,,
xfv,VDACtest,110,g,false,593.7999999523163,2,g,v,3,,,
xfv,VDACtest,111,g,null,null,1,r,v,3,,,
xfv,VDACtest,112,g,true,640.8000001907349,2,g,h,4,,,
xfv,VDACtest,113,g,true,649.2999999523163,2,g,h,1,,,
xfv,VDACtest,114,g,false,486.90000009536743,2,g,v,2,,,
xfv,VDACtest,115,g,true,704.5999999046326,1,r,v,5,,,
xfv,VDACtest,116,g,true,632.7999999523163,2,g,h,1,,,
xfv,VDACtest,117,g,true,559.5999999046326,1,r,h,2,,,
xfv,VDACtest,118,g,true,529.5,2,g,v,0,,,
xfv,VDACtest,119,g,true,632.5999999046326,2,g,h,1,,,
xfv,VDACtest,120,g,false,509.40000009536743,2,g,v,1,,,
xfv,VDACtest,121,g,true,585.7000000476837,2,g,h,2,,,
xfv,VDACtest,122,g,false,425.40000009536743,1,r,h,1,,,
xfv,VDACtest,123,g,true,497.7000000476837,1,r,h,1,,,
xfv,VDACtest,124,g,true,559.7999999523163,2,g,h,1,,,
xfv,VDACtest,125,g,true,790.8000001907349,2,g,v,0,,,
xfv,VDACtest,126,g,null,null,1,r,h,4,,,
xfv,VDACtest,127,g,true,760.2000000476837,2,g,v,0,,,
xfv,VDACtest,128,g,true,592.1000001430511,2,g,h,4,,,
xfv,VDACtest,129,g,true,601.2000000476837,1,r,h,4,,,
xfv,VDACtest,130,g,null,null,1,r,h,2,,,
xfv,VDACtest,131,g,true,553.5,2,g,v,2,,,
xfv,VDACtest,132,g,true,801.0999999046326,2,g,h,3,,,
xfv,VDACtest,133,g,true,724.5,1,r,h,1,,,
xfv,VDACtest,134,g,true,609.5,2,g,v,4,,,
xfv,VDACtest,135,g,true,501.59999990463257,1,r,h,3,,,
xfv,VDACtest,136,g,true,472.2999999523163,2,g,v,0,,,
xfv,VDACtest,137,g,true,767.0999999046326,1,r,v,4,,,
xfv,VDACtest,138,g,true,432.2999999523163,2,g,h,3,,,
xfv,VDACtest,139,g,false,520.5,1,r,h,0,,,
xfv,VDACtest,140,g,true,657.2999999523163,2,g,v,3,,,
xfv,VDACtest,141,g,true,905.2999999523163,2,g,h,0,,,
xfv,VDACtest,142,g,false,496.40000009536743,1,r,h,4,,,
xfv,VDACtest,143,g,true,774.9000000953674,1,r,v,0,,,
xfv,VDACtest,144,g,true,609.2999999523163,1,r,v,1,,,
xfv,VDACtest,145,g,true,472.5,2,g,h,4,,,
xfv,VDACtest,146,g,true,424.2000000476837,2,g,v,0,,,
xfv,VDACtest,147,g,true,591.1999998092651,2,g,h,0,,,
xfv,VDACtest,148,g,true,659.5999999046326,2,g,h,4,,,
xfv,VDACtest,149,g,true,630.7999999523163,2,g,h,2,,,
xfv,VDACtest,150,g,false,670.5999999046326,1,r,h,1,,,
brk,brk,brk,brk,brk,brk,brk,brk,brk,brk,brk,brk,
xfv,VDACtest,151,g,true,630.5,1,r,h,4,,,
xfv,VDACtest,152,g,false,519.2000000476837,1,r,v,5,,,
xfv,VDACtest,153,g,true,592.8000001907349,1,r,v,4,,,
xfv,VDACtest,154,g,true,672,2,g,v,3,,,
xfv,VDACtest,155,g,null,null,1,r,h,5,,,
xfv,VDACtest,156,g,true,488.30000019073486,2,g,v,3,,,
xfv,VDACtest,157,g,true,407.10000014305115,1,r,h,3,,,
xfv,VDACtest,158,g,true,478.2000000476837,2,g,v,0,,,
xfv,VDACtest,159,g,false,528.2999999523163,1,r,v,5,,,
xfv,VDACtest,160,g,true,696.0999999046326,2,g,v,2,,,
xfv,VDACtest,161,g,true,649.6000001430511,2,g,v,4,,,
xfv,VDACtest,162,g,true,512.5,2,g,v,1,,,
xfv,VDACtest,163,g,true,678.5,2,g,h,4,,,
xfv,VDACtest,164,g,true,576.8000001907349,1,r,h,3,,,
xfv,VDACtest,165,g,true,583.0999999046326,1,r,h,5,,,
xfv,VDACtest,166,g,true,527.9000000953674,2,g,v,4,,,
xfv,VDACtest,167,g,false,752.8999998569489,2,g,h,4,,,
xfv,VDACtest,168,g,true,768.4000000953674,2,g,v,1,,,
xfv,VDACtest,169,g,true,783,2,g,v,5,,,
xfv,VDACtest,170,g,true,504.2999999523163,1,r,h,5,,,
xfv,VDACtest,171,g,true,584.5999999046326,2,g,h,5,,,
xfv,VDACtest,172,g,false,473,2,g,v,3,,,
xfv,VDACtest,173,g,true,680.2999999523163,1,r,v,1,,,
xfv,VDACtest,174,g,true,537.1000001430511,1,r,v,3,,,
xfv,VDACtest,175,g,false,452.2999999523163,2,g,v,2,,,
xfv,VDACtest,176,g,true,438.60000014305115,2,g,v,2,,,
xfv,VDACtest,177,g,true,483.2999999523163,2,g,v,0,,,
xfv,VDACtest,178,g,true,593.3000001907349,2,g,h,3,,,
xfv,VDACtest,179,g,false,583.7000000476837,2,g,v,5,,,
xfv,VDACtest,180,g,true,503.40000009536743,1,r,v,5,,,
xfv,VDACtest,181,g,true,462.80000019073486,1,r,v,1,,,
xfv,VDACtest,182,g,true,407.39999985694885,1,r,v,4,,,
xfv,VDACtest,183,g,true,360.09999990463257,1,r,v,4,,,
xfv,VDACtest,184,g,true,388.7000000476837,2,g,h,0,,,
xfv,VDACtest,185,g,false,415.80000019073486,2,g,v,0,,,
xfv,VDACtest,186,g,true,480.90000009536743,2,g,v,1,,,
xfv,VDACtest,187,g,false,501.7000000476837,2,g,h,5,,,
xfv,VDACtest,188,g,false,463.2000000476837,2,g,v,2,,,
xfv,VDACtest,189,g,true,488.09999990463257,1,r,v,0,,,
xfv,VDACtest,190,g,true,576.5,2,g,v,4,,,
xfv,VDACtest,191,g,true,503.2000000476837,1,r,v,4,,,
xfv,VDACtest,192,g,true,647,1,r,h,5,,,
xfv,VDACtest,193,g,true,656.5,2,g,v,1,,,
xfv,VDACtest,194,g,true,654.7999999523163,2,g,v,5,,,
xfv,VDACtest,195,g,false,478.5,2,g,h,5,,,
xfv,VDACtest,196,g,true,687.9000000953674,2,g,h,1,,,
xfv,VDACtest,197,g,false,570.5,1,r,h,5,,,
xfv,VDACtest,198,g,true,695.7000000476837,1,r,h,2,,,
xfv,VDACtest,199,g,true,568.8999998569489,2,g,h,2,,,
xfv,VDACtest,200,g,true,510.90000009536743,1,r,v,0,,,
xfv,RSVPtrain,0,g,null,null,0,b,,1,3,0,
xfv,RSVPtrain,0,g,true,2195,1,r,,1,1,2,
xfv,RSVPtrain,0,g,true,1970.3000001907349,0,b,,3,3,0,
xfv,RSVPtrain,0,g,null,null,2,g,,3,1,1,
xfv,RSVPtrain,0,g,false,1466.9000000953674,2,g,,1,0,1,
xfv,RSVPtrain,0,g,true,1554.5,1,r,,3,2,1,
xfv,RSVPtrain,0,g,true,1267.4000000953674,2,g,,2,2,2,
xfv,RSVPtrain,0,g,false,2083.0999999046326,1,r,,0,0,2,
xfv,RSVPtrain,0,g,true,1981.0999999046326,2,g,,3,0,1,
xfv,RSVPtrain,0,g,false,1240,0,b,,0,3,0,
xfv,RSVPtest,1,g,false,1287.2999999523163,1,r,,0,2,1,
xfv,RSVPtest,2,g,true,1018.7999999523163,1,r,,3,0,1,
xfv,RSVPtest,3,g,true,1491.5999999046326,2,g,,2,1,1,
xfv,RSVPtest,4,g,true,920.7999999523163,2,g,,2,0,1,
xfv,RSVPtest,5,g,true,1026,1,r,,2,1,1,
xfv,RSVPtest,6,g,true,1176.2999999523163,2,g,,0,2,1,
xfv,RSVPtest,7,g,true,524.8000001907349,1,r,,3,2,1,
xfv,RSVPtest,8,g,false,1009.7999999523163,0,b,,3,3,0,
xfv,RSVPtest,9,g,false,1250.7999999523163,1,r,,3,2,1,
xfv,RSVPtest,10,g,true,753.2999999523163,2,g,,3,2,1,
xfv,RSVPtest,11,g,true,1099,1,r,,0,1,1,
xfv,RSVPtest,12,g,true,673.2999999523163,2,g,,3,2,1,
xfv,RSVPtest,13,g,false,1355.8999998569489,1,r,,1,0,1,
xfv,RSVPtest,14,g,true,913.5999999046326,2,g,,0,1,1,
xfv,RSVPtest,15,g,false,739,1,r,,3,0,1,
xfv,RSVPtest,16,g,false,1101.0999999046326,1,r,,3,1,1,
xfv,RSVPtest,17,g,false,532.4000000953674,1,r,,0,1,1,
xfv,RSVPtest,18,g,true,1009.3000001907349,1,r,,3,1,1,
xfv,RSVPtest,19,g,false,1234.8999998569489,0,b,,0,3,0,
xfv,RSVPtest,20,g,true,1225.5,0,b,,0,3,0,
xfv,RSVPtest,21,g,true,961.4000000953674,0,b,,3,3,0,
xfv,RSVPtest,22,g,false,2297.5999999046326,2,g,,0,0,2,
xfv,RSVPtest,23,g,true,698.1000001430511,1,r,,3,0,1,
xfv,RSVPtest,24,g,true,1024.8999998569489,1,r,,3,2,1,
xfv,RSVPtest,25,g,true,1418.7999999523163,2,g,,3,1,1,
xfv,RSVPtest,26,g,true,837.8999998569489,2,g,,1,0,1,
xfv,RSVPtest,27,g,true,722.3999998569489,2,g,,1,2,1,
xfv,RSVPtest,28,g,true,1022,0,b,,0,3,0,
xfv,RSVPtest,29,g,true,965.0999999046326,1,r,,3,0,1,
xfv,RSVPtest,30,g,true,792.7000000476837,0,b,,3,3,0,
xfv,RSVPtest,31,g,true,1052,2,g,,0,1,1,
xfv,RSVPtest,32,g,true,1096.7999999523163,0,b,,0,3,0,
xfv,RSVPtest,33,g,true,1330.7999999523163,0,b,,3,3,0,
xfv,RSVPtest,34,g,true,970.7999999523163,1,r,,1,0,1,
xfv,RSVPtest,35,g,false,953.7999999523163,0,b,,1,3,0,
xfv,RSVPtest,36,g,false,761.0999999046326,1,r,,3,0,1,
xfv,RSVPtest,37,g,true,1289.7999999523163,1,r,,3,2,1,
xfv,RSVPtest,38,g,true,1371.6999998092651,0,b,,3,3,0,
xfv,RSVPtest,39,g,false,764.7000000476837,2,g,,3,0,1,
xfv,RSVPtest,40,g,true,1002.1999998092651,1,r,,2,2,2,
xfv,RSVPtest,41,g,true,916.2999999523163,2,g,,0,2,1,
xfv,RSVPtest,42,g,false,1430.4000000953674,1,r,,2,0,1,
xfv,RSVPtest,43,g,true,1065.2000000476837,2,g,,3,2,1,
xfv,RSVPtest,44,g,true,767.7000000476837,0,b,,0,3,0,
xfv,RSVPtest,45,g,true,1042.1000001430511,0,b,,3,3,0,
xfv,RSVPtest,46,g,true,960.5,2,g,,3,1,1,
xfv,RSVPtest,47,g,true,770.4000000953674,1,r,,3,0,1,
xfv,RSVPtest,48,g,true,834.6000001430511,2,g,,3,2,1,
xfv,RSVPtest,49,g,true,1022.8999998569489,0,b,,2,3,0,
xfv,RSVPtest,50,g,false,1176.2000000476837,1,r,,1,0,1,
xfv,RSVPtest,51,g,true,968.7999999523163,1,r,,0,2,1,
xfv,RSVPtest,52,g,true,1291,2,g,,3,0,1,
xfv,RSVPtest,53,g,true,744.4000000953674,1,r,,1,1,2,
xfv,RSVPtest,54,g,true,935.9000000953674,1,r,,3,1,1,
xfv,RSVPtest,55,g,true,1202.5,1,r,,1,2,1,
xfv,RSVPtest,56,g,true,913.6000001430511,1,r,,3,1,1,
xfv,RSVPtest,57,g,false,858.5,1,r,,2,1,1,
xfv,RSVPtest,58,g,true,1375.5,1,r,,1,1,2,
xfv,RSVPtest,59,g,true,912.0999999046326,2,g,,1,2,1,
xfv,RSVPtest,60,g,true,1382.0999999046326,1,r,,2,2,2,
brk,brk,brk,brk,brk,brk,brk,brk,brk,brk,brk,brk,
xfv,RSVPtest,61,g,true,1092.0999999046326,2,g,,0,0,2,
xfv,RSVPtest,62,g,true,1161.2000000476837,1,r,,1,2,1,
xfv,RSVPtest,63,g,true,1545.7000000476837,1,r,,3,2,1,
xfv,RSVPtest,64,g,true,704.2000000476837,0,b,,3,3,0,
xfv,RSVPtest,65,g,true,793,1,r,,3,0,1,
xfv,RSVPtest,66,g,false,1657.7999999523163,1,r,,3,2,1,
xfv,RSVPtest,67,g,false,537.0999999046326,1,r,,1,2,1,
xfv,RSVPtest,68,g,true,1319.8999998569489,1,r,,3,0,1,
xfv,RSVPtest,69,g,true,857.1999998092651,1,r,,1,1,2,
xfv,RSVPtest,70,g,false,817.4000000953674,2,g,,2,0,1,
xfv,RSVPtest,71,g,false,1089.1999998092651,1,r,,2,0,1,
xfv,RSVPtest,72,g,false,929.0999999046326,2,g,,3,2,1,
xfv,RSVPtest,73,g,true,1106.0999999046326,2,g,,2,2,2,
xfv,RSVPtest,74,g,false,965.2000000476837,1,r,,1,2,1,
xfv,RSVPtest,75,g,true,1219,2,g,,3,0,1,
xfv,RSVPtest,76,g,true,810.2999999523163,0,b,,0,3,0,
xfv,RSVPtest,77,g,null,null,1,r,,3,1,1,
xfv,RSVPtest,78,g,false,823,1,r,,0,2,1,
xfv,RSVPtest,79,g,true,706.8000001907349,1,r,,0,1,1,
xfv,RSVPtest,80,g,true,822.6000001430511,2,g,,1,0,1,
xfv,RSVPtest,81,g,false,760.6000001430511,1,r,,3,2,1,
xfv,RSVPtest,82,g,true,1167.2999999523163,2,g,,3,0,1,
xfv,RSVPtest,83,g,null,null,1,r,,2,1,1,
xfv,RSVPtest,84,g,true,933.5,1,r,,0,1,1,
xfv,RSVPtest,85,g,false,792.6000001430511,1,r,,3,1,1,
xfv,RSVPtest,86,g,false,2015.9000000953674,2,g,,1,1,2,
xfv,RSVPtest,87,g,true,663.5,1,r,,2,1,1,
xfv,RSVPtest,88,g,false,1432.9000000953674,0,b,,0,3,0,
xfv,RSVPtest,89,g,true,1423.7999999523163,1,r,,2,0,1,
xfv,RSVPtest,90,g,true,945,1,r,,2,2,2,
xfv,RSVPtest,91,g,false,882.7999999523163,2,g,,1,1,2,
xfv,RSVPtest,92,g,true,991.6000001430511,0,b,,2,3,0,
xfv,RSVPtest,93,g,false,1064.1999998092651,0,b,,1,3,0,
xfv,RSVPtest,94,g,false,432.59999990463257,0,b,,3,3,0,
xfv,RSVPtest,95,g,true,505.09999990463257,2,g,,3,2,1,
xfv,RSVPtest,96,g,false,785,0,b,,2,3,0,
xfv,RSVPtest,97,g,false,649.2999999523163,0,b,,3,3,0,
xfv,RSVPtest,98,g,false,392.7000000476837,2,g,,0,1,1,
xfv,RSVPtest,99,g,true,802.0999999046326,1,r,,2,2,2,
xfv,RSVPtest,100,g,true,1032.7999999523163,0,b,,3,3,0,
xfv,RSVPtest,101,g,true,1023.2000000476837,2,g,,3,0,1,
xfv,RSVPtest,102,g,true,959.1000001430511,0,b,,2,3,0,
xfv,RSVPtest,103,g,false,935.5,0,b,,0,3,0,
xfv,RSVPtest,104,g,true,882,1,r,,3,0,1,
xfv,RSVPtest,105,g,true,864.5,1,r,,0,0,2,
xfv,RSVPtest,106,g,true,1635.9000000953674,0,b,,3,3,0,
xfv,RSVPtest,107,g,false,1217.2000000476837,1,r,,3,1,1,
xfv,RSVPtest,108,g,false,1465.5,0,b,,2,3,0,
xfv,RSVPtest,109,g,false,809.9000000953674,0,b,,3,3,0,
xfv,RSVPtest,110,g,false,953.6000001430511,1,r,,0,0,2,
xfv,RSVPtest,111,g,true,681.2000000476837,1,r,,3,0,1,
xfv,RSVPtest,112,g,true,1072.1000001430511,1,r,,0,0,2,
xfv,RSVPtest,113,g,true,745.4000000953674,1,r,,3,2,1,
xfv,RSVPtest,114,g,true,928,2,g,,2,2,2,
xfv,RSVPtest,115,g,true,921,2,g,,1,2,1,
xfv,RSVPtest,116,g,null,null,1,r,,3,0,1,
xfv,RSVPtest,117,g,true,992.4000000953674,0,b,,0,3,0,
xfv,RSVPtest,118,g,false,1087.0999999046326,0,b,,3,3,0,
xfv,RSVPtest,119,g,true,1346,2,g,,3,2,1,
xfv,RSVPtest,120,g,false,784.2999999523163,2,g,,0,2,1,
brk,brk,brk,brk,brk,brk,brk,brk,brk,brk,brk,brk,
xfv,RSVPtest,121,g,true,724.9000000953674,0,b,,3,3,0,
xfv,RSVPtest,122,g,true,809.6000001430511,0,b,,3,3,0,
xfv,RSVPtest,123,g,false,1119.1999998092651,2,g,,3,1,1,
xfv,RSVPtest,124,g,false,2408.7999999523163,2,g,,1,2,1,
xfv,RSVPtest,125,g,false,943.7000000476837,0,b,,3,3,0,
xfv,RSVPtest,126,g,true,1078.2999999523163,0,b,,3,3,0,
xfv,RSVPtest,127,g,true,682,2,g,,1,1,2,
xfv,RSVPtest,128,g,false,665.1000001430511,2,g,,1,2,1,
xfv,RSVPtest,129,g,false,961.2000000476837,2,g,,0,1,1,
xfv,RSVPtest,130,g,false,928.2999999523163,0,b,,0,3,0,
xfv,RSVPtest,131,g,false,1294,2,g,,2,1,1,
xfv,RSVPtest,132,g,true,880.2000000476837,2,g,,3,0,1,
xfv,RSVPtest,133,g,true,1040,2,g,,2,2,2,
xfv,RSVPtest,134,g,true,895,2,g,,0,0,2,
xfv,RSVPtest,135,g,null,null,2,g,,0,1,1,
xfv,RSVPtest,136,g,true,992.2000000476837,1,r,,3,1,1,
xfv,RSVPtest,137,g,true,889.7000000476837,1,r,,0,2,1,
xfv,RSVPtest,138,g,false,879.7999999523163,1,r,,2,1,1,
xfv,RSVPtest,139,g,false,1048.2999999523163,1,r,,0,0,2,
xfv,RSVPtest,140,g,true,560.2999999523163,2,g,,1,1,2,
xfv,RSVPtest,141,g,true,777.5999999046326,2,g,,3,0,1,
xfv,RSVPtest,142,g,true,945.8999998569489,2,g,,3,0,1,
xfv,RSVPtest,143,g,true,894.9000000953674,0,b,,1,3,0,
xfv,RSVPtest,144,g,false,855.7000000476837,1,r,,2,0,1,
xfv,RSVPtest,145,g,true,454.60000014305115,2,g,,2,2,2,
xfv,RSVPtest,146,g,true,711.5,1,r,,3,2,1,
xfv,RSVPtest,147,g,true,656.5999999046326,1,r,,1,1,2,
xfv,RSVPtest,148,g,true,794,0,b,,3,3,0,
xfv,RSVPtest,149,g,true,1161.5999999046326,2,g,,3,2,1,
xfv,RSVPtest,150,g,true,547.5,0,b,,2,3,0,
xfv,RSVPtest,151,g,true,728.2999999523163,1,r,,0,0,2,
xfv,RSVPtest,152,g,false,1352.5,2,g,,1,2,1,
xfv,RSVPtest,153,g,false,1156.2999999523163,1,r,,1,0,1,
xfv,RSVPtest,154,g,false,1247.2000000476837,0,b,,3,3,0,
xfv,RSVPtest,155,g,true,797.9000000953674,2,g,,3,0,1,
xfv,RSVPtest,156,g,true,617.2999999523163,0,b,,0,3,0,
xfv,RSVPtest,157,g,false,1498.2000000476837,2,g,,2,0,1,
xfv,RSVPtest,158,g,true,1535.2000000476837,0,b,,3,3,0,
xfv,RSVPtest,159,g,null,null,1,r,,0,2,1,
xfv,RSVPtest,160,g,false,1540.2000000476837,0,b,,1,3,0,
xfv,RSVPtest,161,g,true,950,0,b,,3,3,0,
xfv,RSVPtest,162,g,false,679.6999998092651,2,g,,1,0,1,
xfv,RSVPtest,163,g,true,413.89999985694885,2,g,,2,2,2,
xfv,RSVPtest,164,g,true,586.7000000476837,2,g,,3,0,1,
xfv,RSVPtest,165,g,false,1070.8999998569489,0,b,,2,3,0,
xfv,RSVPtest,166,g,true,687.1000001430511,1,r,,3,1,1,
xfv,RSVPtest,167,g,false,694.6000001430511,2,g,,2,0,1,
xfv,RSVPtest,168,g,true,639.5999999046326,2,g,,3,2,1,
xfv,RSVPtest,169,g,true,1006,1,r,,3,1,1,
xfv,RSVPtest,170,g,false,440.5,2,g,,3,1,1,
xfv,RSVPtest,171,g,false,454.89999985694885,1,r,,1,1,2,
xfv,RSVPtest,172,g,false,1839.0999999046326,2,g,,3,1,1,
xfv,RSVPtest,173,g,false,317.69999980926514,0,b,,1,3,0,
xfv,RSVPtest,174,g,false,677.2000000476837,2,g,,2,1,1,
xfv,RSVPtest,175,g,true,703.8999998569489,2,g,,3,1,1,
xfv,RSVPtest,176,g,false,919.2999999523163,2,g,,2,1,1,
xfv,RSVPtest,177,g,true,792.5999999046326,1,r,,3,2,1,
xfv,RSVPtest,178,g,true,359,1,r,,2,2,2,
xfv,RSVPtest,179,g,true,776.2000000476837,2,g,,3,2,1,
xfv,RSVPtest,180,g,true,1174.8999998569489,2,g,,1,1,2,
brk,brk,brk,brk,brk,brk,brk,brk,brk,brk,brk,brk,
xfv,RSVPtest,181,g,true,739.0999999046326,0,b,,0,3,0,
xfv,RSVPtest,182,g,true,1206.7000000476837,2,g,,1,0,1,
xfv,RSVPtest,183,g,true,640.3999998569489,0,b,,1,3,0,
xfv,RSVPtest,184,g,false,889.7000000476837,2,g,,2,0,1,
xfv,RSVPtest,185,g,false,849.5999999046326,2,g,,0,2,1,
xfv,RSVPtest,186,g,true,694,2,g,,3,1,1,
xfv,RSVPtest,187,g,true,407.90000009536743,0,b,,2,3,0,
xfv,RSVPtest,188,g,true,584.5,0,b,,1,3,0,
xfv,RSVPtest,189,g,true,1142.1000001430511,1,r,,3,1,1,
xfv,RSVPtest,190,g,false,792.5,0,b,,1,3,0,
xfv,RSVPtest,191,g,false,362.59999990463257,0,b,,3,3,0,
xfv,RSVPtest,192,g,null,null,2,g,,3,0,1,
xfv,RSVPtest,193,g,true,525.6999998092651,2,g,,2,1,1,
xfv,RSVPtest,194,g,true,631.5999999046326,0,b,,1,3,0,
xfv,RSVPtest,195,g,true,1191.7000000476837,1,r,,3,1,1,
xfv,RSVPtest,196,g,false,1007.7000000476837,1,r,,1,0,1,
xfv,RSVPtest,197,g,true,1664.8999998569489,1,r,,3,2,1,
xfv,RSVPtest,198,g,false,941.6000001430511,0,b,,2,3,0,
xfv,RSVPtest,199,g,false,894.6000001430511,1,r,,1,2,1,
xfv,RSVPtest,200,g,true,727,1,r,,3,2,1,
xfv,RSVPtest,201,g,false,982.6999998092651,2,g,,0,0,2,
xfv,RSVPtest,202,g,false,1040,1,r,,3,0,1,
xfv,RSVPtest,203,g,true,934,2,g,,3,0,1,
xfv,RSVPtest,204,g,true,1095.2000000476837,0,b,,3,3,0,
xfv,RSVPtest,205,g,true,968.2000000476837,1,r,,1,0,1,
xfv,RSVPtest,206,g,true,855.8999998569489,1,r,,0,1,1,
xfv,RSVPtest,207,g,false,973.2000000476837,1,r,,2,0,1,
xfv,RSVPtest,208,g,true,1214.7000000476837,2,g,,0,0,2,
xfv,RSVPtest,209,g,true,966.8999998569489,1,r,,1,2,1,
xfv,RSVPtest,210,g,true,1039.2999999523163,1,r,,0,2,1,
xfv,RSVPtest,211,g,true,559.0999999046326,1,r,,0,1,1,
xfv,RSVPtest,212,g,false,1472.4000000953674,0,b,,2,3,0,
xfv,RSVPtest,213,g,true,1022,2,g,,3,2,1,
xfv,RSVPtest,214,g,false,735.0999999046326,2,g,,3,1,1,
xfv,RSVPtest,215,g,false,679.2000000476837,2,g,,3,1,1,
xfv,RSVPtest,216,g,true,2390.600000143051,2,g,,1,0,1,
xfv,RSVPtest,217,g,true,812.5,0,b,,1,3,0,
xfv,RSVPtest,218,g,false,1527.0999999046326,1,r,,2,2,2,
xfv,RSVPtest,219,g,true,934.5999999046326,0,b,,1,3,0,
xfv,RSVPtest,220,g,false,958.7000000476837,0,b,,2,3,0,
xfv,RSVPtest,221,g,false,1958.9000000953674,0,b,,1,3,0,
xfv,RSVPtest,222,g,null,null,2,g,,3,1,1,
xfv,RSVPtest,223,g,true,705.2000000476837,2,g,,3,1,1,
xfv,RSVPtest,224,g,false,645.8000001907349,2,g,,0,2,1,
xfv,RSVPtest,225,g,false,604.6000001430511,2,g,,2,0,1,
xfv,RSVPtest,226,g,true,562.5,2,g,,3,2,1,
xfv,RSVPtest,227,g,true,531.7000000476837,0,b,,2,3,0,
xfv,RSVPtest,228,g,true,1167.2000000476837,1,r,,0,0,2,
xfv,RSVPtest,229,g,false,622.7999999523163,2,g,,1,1,2,
xfv,RSVPtest,230,g,false,679.7999999523163,2,g,,1,0,1,
xfv,RSVPtest,231,g,true,455.2000000476837,1,r,,1,1,2,
xfv,RSVPtest,232,g,false,1550.7999999523163,0,b,,3,3,0,
xfv,RSVPtest,233,g,true,975.9000000953674,2,g,,2,2,2,
xfv,RSVPtest,234,g,false,845.5,1,r,,2,0,1,
xfv,RSVPtest,235,g,true,1576.7999999523163,2,g,,0,1,1,
xfv,RSVPtest,236,g,true,758.5,2,g,,0,2,1,
xfv,RSVPtest,237,g,true,2046.2999999523163,1,r,,2,1,1,
xfv,RSVPtest,238,g,true,626.8999998569489,2,g,,2,1,1,
xfv,RSVPtest,239,g,true,358.40000009536743,2,g,,0,0,2,
xfv,RSVPtest,240,g,false,1573.7000000476837,2,g,,3,1,1,
