subID,trialType,trialNum,cntBalance,correct,rt,rwdType,tgtCol,tgtDir,tgtPos,colPos,colMatch,
04l,VDACtrain,0,g,null,null,1,r,v,3,,,
04l,VDACtrain,0,g,true,760.1000001430511,1,r,h,2,,,
04l,VDACtrain,0,g,true,868,2,g,v,0,,,
04l,VDACtrain,0,g,true,913.4000000953674,2,g,v,5,,,
04l,VDACtrain,0,g,true,709.1000001430511,2,g,h,3,,,
04l,VDACtrain,0,g,true,805.2999999523163,1,r,h,1,,,
04l,VDACtrain,0,g,true,851.5999999046326,1,r,v,4,,,
04l,VDACtrain,0,g,false,740.4000000953674,1,r,h,0,,,
04l,VDACtrain,0,g,null,null,2,g,h,5,,,
04l,VDACtrain,0,g,null,null,2,g,v,2,,,
04l,VDACtest,1,g,true,957.7999999523163,1,r,h,4,,,
04l,VDACtest,2,g,true,866.9000000953674,2,g,h,1,,,
04l,VDACtest,3,g,true,635.5,2,g,v,0,,,
04l,VDACtest,4,g,true,452.39999985694885,2,g,h,3,,,
04l,VDACtest,5,g,true,443.59999990463257,2,g,v,0,,,
04l,VDACtest,6,g,true,677.2000000476837,1,r,v,5,,,
04l,VDACtest,7,g,true,716.1000001430511,2,g,h,4,,,
04l,VDACtest,8,g,true,693.1999998092651,2,g,h,3,,,
04l,VDACtest,9,g,false,636.2000000476837,2,g,h,0,,,
04l,VDACtest,10,g,true,812.3000001907349,2,g,v,2,,,
04l,VDACtest,11,g,true,653.1999998092651,2,g,h,3,,,
04l,VDACtest,12,g,true,811.5,1,r,v,0,,,
04l,VDACtest,13,g,false,756.2000000476837,1,r,h,3,,,
04l,VDACtest,14,g,null,null,2,g,v,1,,,
04l,VDACtest,15,g,true,670.0999999046326,1,r,v,0,,,
04l,VDACtest,16,g,true,606.2000000476837,2,g,h,5,,,
04l,VDACtest,17,g,true,467.39999985694885,1,r,v,0,,,
04l,VDACtest,18,g,false,612.1000001430511,1,r,h,4,,,
04l,VDACtest,19,g,true,844.7000000476837,1,r,h,0,,,
04l,VDACtest,20,g,true,604.0999999046326,2,g,v,5,,,
04l,VDACtest,21,g,true,923.6999998092651,1,r,h,0,,,
04l,VDACtest,22,g,true,756.5,1,r,h,3,,,
04l,VDACtest,23,g,true,978,2,g,h,2,,,
04l,VDACtest,24,g,true,844.5999999046326,1,r,v,1,,,
04l,VDACtest,25,g,true,787.9000000953674,2,g,h,0,,,
04l,VDACtest,26,g,true,687.7000000476837,2,g,h,1,,,
04l,VDACtest,27,g,true,709.5999999046326,1,r,v,5,,,
04l,VDACtest,28,g,true,588.5,1,r,h,5,,,
04l,VDACtest,29,g,true,996.2000000476837,1,r,v,0,,,
04l,VDACtest,30,g,true,570.5,1,r,v,5,,,
04l,VDACtest,31,g,true,933.5,1,r,h,3,,,
04l,VDACtest,32,g,true,707.9000000953674,1,r,v,1,,,
04l,VDACtest,33,g,true,621.5,2,g,h,0,,,
04l,VDACtest,34,g,true,789.3000001907349,1,r,v,3,,,
04l,VDACtest,35,g,true,635.7999999523163,1,r,v,1,,,
04l,VDACtest,36,g,false,476.60000014305115,2,g,v,2,,,
04l,VDACtest,37,g,true,952.7000000476837,2,g,h,5,,,
04l,VDACtest,38,g,true,739.3999998569489,1,r,v,4,,,
04l,VDACtest,39,g,true,861.2000000476837,2,g,h,2,,,
04l,VDACtest,40,g,true,500.2000000476837,1,r,v,1,,,
04l,VDACtest,41,g,true,708,1,r,v,2,,,
04l,VDACtest,42,g,null,null,2,g,h,3,,,
04l,VDACtest,43,g,true,758.9000000953674,1,r,v,4,,,
04l,VDACtest,44,g,true,796.5,1,r,v,1,,,
04l,VDACtest,45,g,true,850.3999998569489,1,r,h,3,,,
04l,VDACtest,46,g,true,925.2999999523163,2,g,h,1,,,
04l,VDACtest,47,g,true,625.6000001430511,1,r,v,2,,,
04l,VDACtest,48,g,true,973.5,1,r,v,4,,,
04l,VDACtest,49,g,true,540.2000000476837,2,g,h,5,,,
04l,VDACtest,50,g,true,547.2999999523163,1,r,v,5,,,
brk,brk,brk,brk,brk,brk,brk,brk,brk,brk,brk,brk,
04l,VDACtest,51,g,true,936.2000000476837,2,g,v,5,,,
04l,VDACtest,52,g,false,555.9000000953674,2,g,h,5,,,
04l,VDACtest,53,g,true,720.8999998569489,2,g,v,4,,,
04l,VDACtest,54,g,true,834.7000000476837,2,g,v,0,,,
04l,VDACtest,55,g,true,566.9000000953674,1,r,h,2,,,
04l,VDACtest,56,g,true,533.4000000953674,2,g,v,0,,,
04l,VDACtest,57,g,false,565.3999998569489,1,r,v,3,,,
04l,VDACtest,58,g,true,757.6999998092651,1,r,h,3,,,
04l,VDACtest,59,g,true,923.7000000476837,2,g,h,1,,,
04l,VDACtest,60,g,true,725.4000000953674,2,g,h,2,,,
04l,VDACtest,61,g,true,470.10000014305115,1,r,v,5,,,
04l,VDACtest,62,g,true,763.5,1,r,h,1,,,
04l,VDACtest,63,g,true,748.9000000953674,2,g,v,3,,,
04l,VDACtest,64,g,true,645.1999998092651,2,g,h,0,,,
04l,VDACtest,65,g,true,549.4000000953674,2,g,h,5,,,
04l,VDACtest,66,g,true,693.4000000953674,1,r,h,3,,,
04l,VDACtest,67,g,false,544.1000001430511,1,r,h,4,,,
04l,VDACtest,68,g,false,588.5,1,r,v,3,,,
04l,VDACtest,69,g,true,934.2999999523163,2,g,v,1,,,
04l,VDACtest,70,g,null,null,2,g,v,2,,,
04l,VDACtest,71,g,true,808.0999999046326,1,r,h,1,,,
04l,VDACtest,72,g,null,null,2,g,v,3,,,
04l,VDACtest,73,g,true,879.2999999523163,1,r,h,0,,,
04l,VDACtest,74,g,true,638,1,r,v,2,,,
04l,VDACtest,75,g,true,588.0999999046326,1,r,h,2,,,
04l,VDACtest,76,g,true,652.2000000476837,1,r,h,2,,,
04l,VDACtest,77,g,true,660.2000000476837,1,r,v,2,,,
04l,VDACtest,78,g,false,605,1,r,h,2,,,
04l,VDACtest,79,g,false,700.7000000476837,2,g,v,3,,,
04l,VDACtest,80,g,true,773.5999999046326,1,r,v,4,,,
04l,VDACtest,81,g,true,595.9000000953674,1,r,v,1,,,
04l,VDACtest,82,g,true,846.2999999523163,2,g,v,1,,,
04l,VDACtest,83,g,true,708.5999999046326,1,r,v,1,,,
04l,VDACtest,84,g,false,773.5999999046326,2,g,v,4,,,
04l,VDACtest,85,g,true,627.9000000953674,2,g,h,4,,,
04l,VDACtest,86,g,true,564,2,g,v,0,,,
04l,VDACtest,87,g,null,null,1,r,h,3,,,
04l,VDACtest,88,g,true,879.5999999046326,1,r,h,5,,,
04l,VDACtest,89,g,true,988.9000000953674,2,g,v,1,,,
04l,VDACtest,90,g,true,564.5,1,r,h,2,,,
04l,VDACtest,91,g,true,725.7999999523163,1,r,h,0,,,
04l,VDACtest,92,g,true,556.5999999046326,1,r,h,1,,,
04l,VDACtest,93,g,true,518.9000000953674,1,r,v,1,,,
04l,VDACtest,94,g,false,973,1,r,v,1,,,
04l,VDACtest,95,g,false,701.8999998569489,2,g,h,0,,,
04l,VDACtest,96,g,null,null,2,g,v,2,,,
04l,VDACtest,97,g,true,756.7000000476837,1,r,h,2,,,
04l,VDACtest,98,g,true,515.7000000476837,1,r,v,0,,,
04l,VDACtest,99,g,false,509.59999990463257,1,r,v,3,,,
04l,VDACtest,100,g,false,676.5,1,r,v,2,,,
brk,brk,brk,brk,brk,brk,brk,brk,brk,brk,brk,brk,
04l,VDACtest,101,g,true,619.5,2,g,h,4,,,
04l,VDACtest,102,g,true,491.40000009536743,2,g,h,4,,,
04l,VDACtest,103,g,false,764.2999999523163,1,r,h,5,,,
04l,VDACtest,104,g,true,757.0999999046326,1,r,h,3,,,
04l,VDACtest,105,g,true,660,1,r,h,0,,,
04l,VDACtest,106,g,null,null,2,g,v,2,,,
04l,VDACtest,107,g,true,927.0999999046326,1,r,h,5,,,
04l,VDACtest,108,g,false,597,2,g,h,2,,,
04l,VDACtest,109,g,true,788.9000000953674,2,g,v,3,,,
04l,VDACtest,110,g,true,670.3999998569489,2,g,v,0,,,
04l,VDACtest,111,g,true,571.8999998569489,2,g,h,5,,,
04l,VDACtest,112,g,true,908.2999999523163,1,r,h,4,,,
04l,VDACtest,113,g,false,779.7999999523163,2,g,v,1,,,
04l,VDACtest,114,g,false,786.7999999523163,1,r,v,5,,,
04l,VDACtest,115,g,true,741.2999999523163,1,r,v,3,,,
04l,VDACtest,116,g,true,670.5,2,g,v,4,,,
04l,VDACtest,117,g,true,658.2999999523163,2,g,v,5,,,
04l,VDACtest,118,g,true,619.2000000476837,2,g,v,3,,,
04l,VDACtest,119,g,true,651.2999999523163,2,g,v,2,,,
04l,VDACtest,120,g,true,699.7000000476837,2,g,v,4,,,
04l,VDACtest,121,g,true,676.3999998569489,2,g,h,2,,,
04l,VDACtest,122,g,true,868,2,g,h,0,,,
04l,VDACtest,123,g,false,674.8999998569489,1,r,v,3,,,
04l,VDACtest,124,g,false,597.4000000953674,1,r,h,5,,,
04l,VDACtest,125,g,null,null,2,g,v,2,,,
04l,VDACtest,126,g,true,633.2000000476837,1,r,v,2,,,
04l,VDACtest,127,g,true,613.0999999046326,2,g,v,4,,,
04l,VDACtest,128,g,null,null,1,r,h,2,,,
04l,VDACtest,129,g,false,687.8999998569489,2,g,h,1,,,
04l,VDACtest,130,g,true,739.2000000476837,1,r,h,5,,,
04l,VDACtest,131,g,true,682.7999999523163,1,r,v,5,,,
04l,VDACtest,132,g,true,884.7999999523163,2,g,v,1,,,
04l,VDACtest,133,g,true,564.7000000476837,2,g,h,3,,,
04l,VDACtest,134,g,true,733.2999999523163,2,g,v,0,,,
04l,VDACtest,135,g,true,754.7999999523163,1,r,v,4,,,
04l,VDACtest,136,g,true,839,2,g,h,4,,,
04l,VDACtest,137,g,null,null,1,r,h,4,,,
04l,VDACtest,138,g,true,671.7000000476837,2,g,v,3,,,
04l,VDACtest,139,g,true,580.2000000476837,1,r,v,4,,,
04l,VDACtest,140,g,true,795.6999998092651,2,g,v,4,,,
04l,VDACtest,141,g,false,740.7000000476837,1,r,h,1,,,
04l,VDACtest,142,g,true,829.2999999523163,2,g,h,1,,,
04l,VDACtest,143,g,true,693.9000000953674,2,g,v,4,,,
04l,VDACtest,144,g,true,763.7999999523163,1,r,h,1,,,
04l,VDACtest,145,g,true,619.7000000476837,1,r,v,2,,,
04l,VDACtest,146,g,true,589.4000000953674,1,r,v,0,,,
04l,VDACtest,147,g,true,651.8999998569489,2,g,h,3,,,
04l,VDACtest,148,g,true,727.8999998569489,1,r,h,4,,,
04l,VDACtest,149,g,true,684.6999998092651,2,g,v,1,,,
04l,VDACtest,150,g,true,708.2999999523163,2,g,v,4,,,
brk,brk,brk,brk,brk,brk,brk,brk,brk,brk,brk,brk,
04l,VDACtest,151,g,true,976.8999998569489,1,r,h,1,,,
04l,VDACtest,152,g,true,644,1,r,v,4,,,
04l,VDACtest,153,g,true,893.8000001907349,2,g,h,0,,,
04l,VDACtest,154,g,true,749,1,r,v,3,,,
04l,VDACtest,155,g,true,742.7000000476837,1,r,h,1,,,
04l,VDACtest,156,g,true,556,1,r,v,4,,,
04l,VDACtest,157,g,true,717.2000000476837,2,g,v,5,,,
04l,VDACtest,158,g,true,684,2,g,h,2,,,
04l,VDACtest,159,g,true,659.5999999046326,1,r,h,5,,,
04l,VDACtest,160,g,true,609.7000000476837,1,r,h,0,,,
04l,VDACtest,161,g,true,606.3000001907349,1,r,h,0,,,
04l,VDACtest,162,g,true,629.2000000476837,1,r,v,0,,,
04l,VDACtest,163,g,true,675.0999999046326,1,r,h,0,,,
04l,VDACtest,164,g,true,588.6000001430511,2,g,v,5,,,
04l,VDACtest,165,g,true,939.3000001907349,2,g,h,1,,,
04l,VDACtest,166,g,true,628.1999998092651,2,g,v,3,,,
04l,VDACtest,167,g,true,642.5999999046326,2,g,v,5,,,
04l,VDACtest,168,g,true,698.3000001907349,1,r,h,1,,,
04l,VDACtest,169,g,true,561.2999999523163,2,g,h,1,,,
04l,VDACtest,170,g,true,596.2999999523163,2,g,h,5,,,
04l,VDACtest,171,g,false,866.6000001430511,1,r,v,4,,,
04l,VDACtest,172,g,true,588.6999998092651,2,g,h,0,,,
04l,VDACtest,173,g,true,619.6000001430511,2,g,v,5,,,
04l,VDACtest,174,g,true,499.90000009536743,2,g,h,1,,,
04l,VDACtest,175,g,true,844.6000001430511,1,r,h,4,,,
04l,VDACtest,176,g,true,723,2,g,v,0,,,
04l,VDACtest,177,g,false,711.4000000953674,1,r,v,3,,,
04l,VDACtest,178,g,true,636.5,2,g,h,4,,,
04l,VDACtest,179,g,false,772.3999998569489,2,g,v,2,,,
04l,VDACtest,180,g,true,701.2000000476837,1,r,v,5,,,
04l,VDACtest,181,g,true,643,1,r,h,5,,,
04l,VDACtest,182,g,true,693,1,r,h,4,,,
04l,VDACtest,183,g,true,620,2,g,h,4,,,
04l,VDACtest,184,g,true,620,2,g,h,4,,,
04l,VDACtest,185,g,false,540.1000001430511,2,g,v,4,,,
04l,VDACtest,186,g,true,701.4000000953674,2,g,h,4,,,
04l,VDACtest,187,g,true,671.7999999523163,1,r,h,4,,,
04l,VDACtest,188,g,false,900.2000000476837,2,g,v,3,,,
04l,VDACtest,189,g,true,875.2000000476837,2,g,h,2,,,
04l,VDACtest,190,g,false,590.7000000476837,2,g,h,5,,,
04l,VDACtest,191,g,null,null,1,r,v,0,,,
04l,VDACtest,192,g,true,566,2,g,h,2,,,
04l,VDACtest,193,g,true,642.7999999523163,2,g,v,1,,,
04l,VDACtest,194,g,true,626.3000001907349,2,g,h,3,,,
04l,VDACtest,195,g,true,731.4000000953674,1,r,h,1,,,
04l,VDACtest,196,g,true,660.8999998569489,2,g,v,1,,,
04l,VDACtest,197,g,true,852.8000001907349,1,r,v,2,,,
04l,VDACtest,198,g,true,576.7000000476837,2,g,v,5,,,
04l,VDACtest,199,g,false,612.7999999523163,2,g,h,3,,,
04l,VDACtest,200,g,true,725,1,r,h,2,,,
04l,RSVPtrain,0,g,false,1595.5999999046326,1,r,,1,1,2,
04l,RSVPtrain,0,g,false,1087.2000000476837,2,g,,1,0,1,
04l,RSVPtrain,0,g,true,1212.7000000476837,1,r,,3,2,1,
04l,RSVPtrain,0,g,false,789.2000000476837,2,g,,2,2,2,
04l,RSVPtrain,0,g,true,1376.4000000953674,0,b,,1,3,0,
04l,RSVPtrain,0,g,true,2025.0999999046326,1,r,,0,0,2,
04l,RSVPtrain,0,g,true,957.2000000476837,2,g,,3,0,1,
04l,RSVPtrain,0,g,false,934.7999999523163,0,b,,0,3,0,
04l,RSVPtrain,0,g,true,1038.0999999046326,2,g,,3,1,1,
04l,RSVPtrain,0,g,true,1118.2999999523163,0,b,,3,3,0,
04l,RSVPtest,1,g,true,831.1000001430511,0,b,,3,3,0,
04l,RSVPtest,2,g,true,1236.6000001430511,1,r,,2,1,1,
04l,RSVPtest,3,g,true,1285.5,2,g,,2,2,2,
04l,RSVPtest,4,g,true,1062.4000000953674,0,b,,3,3,0,
04l,RSVPtest,5,g,true,989.2999999523163,0,b,,3,3,0,
04l,RSVPtest,6,g,true,1150.0999999046326,1,r,,3,0,1,
04l,RSVPtest,7,g,true,1189.2000000476837,1,r,,3,1,1,
04l,RSVPtest,8,g,true,1410,1,r,,2,2,2,
04l,RSVPtest,9,g,true,1279.3999998569489,0,b,,3,3,0,
04l,RSVPtest,10,g,false,1221.1999998092651,0,b,,3,3,0,
04l,RSVPtest,11,g,false,882.7999999523163,1,r,,0,0,2,
04l,RSVPtest,12,g,true,935.0999999046326,1,r,,3,1,1,
04l,RSVPtest,13,g,false,950.8999998569489,1,r,,2,0,1,
04l,RSVPtest,14,g,true,1046.0999999046326,2,g,,1,0,1,
04l,RSVPtest,15,g,true,1390.8000001907349,2,g,,0,0,2,
04l,RSVPtest,16,g,true,1510.5999999046326,1,r,,3,1,1,
04l,RSVPtest,17,g,true,1014.7999999523163,1,r,,1,2,1,
04l,RSVPtest,18,g,true,1558.0999999046326,2,g,,0,1,1,
04l,RSVPtest,19,g,false,892.5,2,g,,2,1,1,
04l,RSVPtest,20,g,true,1052.2999999523163,0,b,,0,3,0,
04l,RSVPtest,21,g,true,1085.0999999046326,1,r,,1,0,1,
04l,RSVPtest,22,g,true,1387.5999999046326,2,g,,0,0,2,
04l,RSVPtest,23,g,false,1293.6000001430511,1,r,,1,1,2,
04l,RSVPtest,24,g,true,1182.5,2,g,,3,1,1,
04l,RSVPtest,25,g,true,1111.2999999523163,0,b,,1,3,0,
04l,RSVPtest,26,g,true,1278.9000000953674,2,g,,3,0,1,
04l,RSVPtest,27,g,true,758.7999999523163,1,r,,1,2,1,
04l,RSVPtest,28,g,true,1110.2000000476837,0,b,,3,3,0,
04l,RSVPtest,29,g,false,1087.0999999046326,1,r,,1,2,1,
04l,RSVPtest,30,g,true,1334.2999999523163,0,b,,0,3,0,
04l,RSVPtest,31,g,false,1094.6000001430511,2,g,,2,1,1,
04l,RSVPtest,32,g,true,926.2999999523163,2,g,,3,0,1,
04l,RSVPtest,33,g,true,919.6000001430511,0,b,,1,3,0,
04l,RSVPtest,34,g,true,762.2999999523163,1,r,,3,1,1,
04l,RSVPtest,35,g,true,1007,2,g,,1,1,2,
04l,RSVPtest,36,g,false,1206.4000000953674,1,r,,3,2,1,
04l,RSVPtest,37,g,true,1622.7000000476837,2,g,,0,0,2,
04l,RSVPtest,38,g,true,678.6000001430511,1,r,,3,0,1,
04l,RSVPtest,39,g,true,1744.5,2,g,,2,0,1,
04l,RSVPtest,40,g,true,860.6999998092651,1,r,,3,0,1,
04l,RSVPtest,41,g,true,1023.9000000953674,1,r,,3,1,1,
04l,RSVPtest,42,g,true,1515.7999999523163,2,g,,2,0,1,
04l,RSVPtest,43,g,true,1065.2000000476837,2,g,,1,2,1,
04l,RSVPtest,44,g,true,948.2000000476837,0,b,,0,3,0,
04l,RSVPtest,45,g,true,663.1000001430511,2,g,,3,2,1,
04l,RSVPtest,46,g,true,918.1999998092651,1,r,,2,1,1,
04l,RSVPtest,47,g,true,1021.5,2,g,,3,2,1,
04l,RSVPtest,48,g,true,700.6000001430511,0,b,,3,3,0,
04l,RSVPtest,49,g,true,656.6000001430511,2,g,,3,2,1,
04l,RSVPtest,50,g,true,1006.2000000476837,0,b,,0,3,0,
04l,RSVPtest,51,g,true,719,2,g,,1,2,1,
04l,RSVPtest,52,g,true,868.5,1,r,,3,0,1,
04l,RSVPtest,53,g,true,741.5999999046326,0,b,,3,3,0,
04l,RSVPtest,54,g,false,833.7000000476837,1,r,,2,1,1,
04l,RSVPtest,55,g,true,717.3000001907349,2,g,,1,0,1,
04l,RSVPtest,56,g,true,918,1,r,,0,2,1,
04l,RSVPtest,57,g,true,933.6000001430511,0,b,,2,3,0,
04l,RSVPtest,58,g,false,724.5,0,b,,3,3,0,
04l,RSVPtest,59,g,true,733.5,0,b,,0,3,0,
04l,RSVPtest,60,g,true,950.0999999046326,1,r,,0,0,2,
brk,brk,brk,brk,brk,brk,brk,brk,brk,brk,brk,brk,
04l,RSVPtest,61,g,false,762.2000000476837,1,r,,2,2,2,
04l,RSVPtest,62,g,false,855.1999998092651,1,r,,0,1,1,
04l,RSVPtest,63,g,true,768.5999999046326,2,g,,3,2,1,
04l,RSVPtest,64,g,true,939.5,2,g,,2,1,1,
04l,RSVPtest,65,g,true,864.5999999046326,0,b,,3,3,0,
04l,RSVPtest,66,g,true,909.4000000953674,2,g,,3,2,1,
04l,RSVPtest,67,g,true,1013.2000000476837,2,g,,2,2,2,
04l,RSVPtest,68,g,true,1031.3999998569489,0,b,,2,3,0,
04l,RSVPtest,69,g,false,939.0999999046326,1,r,,2,2,2,
04l,RSVPtest,70,g,true,781.4000000953674,2,g,,3,1,1,
04l,RSVPtest,71,g,true,1202.9000000953674,0,b,,0,3,0,
04l,RSVPtest,72,g,false,741.7999999523163,1,r,,3,2,1,
04l,RSVPtest,73,g,true,1389.2999999523163,1,r,,2,0,1,
04l,RSVPtest,74,g,true,818.2000000476837,1,r,,3,0,1,
04l,RSVPtest,75,g,true,1132.9000000953674,0,b,,2,3,0,
04l,RSVPtest,76,g,true,788.7999999523163,2,g,,0,2,1,
04l,RSVPtest,77,g,true,878.5,1,r,,3,2,1,
04l,RSVPtest,78,g,false,1141.2999999523163,1,r,,1,0,1,
04l,RSVPtest,79,g,true,1327.1999998092651,1,r,,2,2,2,
04l,RSVPtest,80,g,true,604.5,0,b,,1,3,0,
04l,RSVPtest,81,g,false,812.7999999523163,2,g,,3,0,1,
04l,RSVPtest,82,g,true,820.5,0,b,,2,3,0,
04l,RSVPtest,83,g,true,877,2,g,,3,0,1,
04l,RSVPtest,84,g,true,1405.2999999523163,1,r,,0,2,1,
04l,RSVPtest,85,g,true,830.9000000953674,0,b,,0,3,0,
04l,RSVPtest,86,g,true,789.7000000476837,0,b,,0,3,0,
04l,RSVPtest,87,g,true,1085.2999999523163,1,r,,1,0,1,
04l,RSVPtest,88,g,true,851,2,g,,3,1,1,
04l,RSVPtest,89,g,true,732.7999999523163,2,g,,1,1,2,
04l,RSVPtest,90,g,true,804.5999999046326,0,b,,1,3,0,
04l,RSVPtest,91,g,false,966.7000000476837,1,r,,3,0,1,
04l,RSVPtest,92,g,true,1124.5,2,g,,3,2,1,
04l,RSVPtest,93,g,true,691.2999999523163,1,r,,2,2,2,
04l,RSVPtest,94,g,true,810.5999999046326,2,g,,3,0,1,
04l,RSVPtest,95,g,true,654.5999999046326,2,g,,1,0,1,
04l,RSVPtest,96,g,true,715.7999999523163,1,r,,2,0,1,
04l,RSVPtest,97,g,true,867.4000000953674,2,g,,3,0,1,
04l,RSVPtest,98,g,false,908.3000001907349,1,r,,0,0,2,
04l,RSVPtest,99,g,true,869.7000000476837,1,r,,3,2,1,
04l,RSVPtest,100,g,true,627.7999999523163,1,r,,0,0,2,
04l,RSVPtest,101,g,false,851.7000000476837,2,g,,2,0,1,
04l,RSVPtest,102,g,true,1125.7999999523163,1,r,,2,1,1,
04l,RSVPtest,103,g,true,774.2000000476837,2,g,,3,1,1,
04l,RSVPtest,104,g,false,1221,1,r,,1,2,1,
04l,RSVPtest,105,g,true,927.9000000953674,0,b,,3,3,0,
04l,RSVPtest,106,g,true,1060.5,2,g,,3,0,1,
04l,RSVPtest,107,g,true,1228,1,r,,3,2,1,
04l,RSVPtest,108,g,false,940.8999998569489,1,r,,2,0,1,
04l,RSVPtest,109,g,true,939,2,g,,3,0,1,
04l,RSVPtest,110,g,true,915.4000000953674,0,b,,2,3,0,
04l,RSVPtest,111,g,true,1120.6999998092651,2,g,,0,0,2,
04l,RSVPtest,112,g,true,791.0999999046326,2,g,,2,0,1,
04l,RSVPtest,113,g,true,850.2000000476837,2,g,,1,2,1,
04l,RSVPtest,114,g,true,816.7000000476837,2,g,,3,1,1,
04l,RSVPtest,115,g,true,1085.7999999523163,2,g,,3,1,1,
04l,RSVPtest,116,g,true,1233.7000000476837,2,g,,1,0,1,
04l,RSVPtest,117,g,true,1005.7999999523163,2,g,,2,2,2,
04l,RSVPtest,118,g,false,1083,2,g,,2,1,1,
04l,RSVPtest,119,g,true,899.3999998569489,1,r,,3,1,1,
04l,RSVPtest,120,g,true,988.5,1,r,,3,1,1,
brk,brk,brk,brk,brk,brk,brk,brk,brk,brk,brk,brk,
04l,RSVPtest,121,g,true,781.2999999523163,2,g,,0,2,1,
04l,RSVPtest,122,g,true,596.2999999523163,2,g,,3,1,1,
04l,RSVPtest,123,g,true,966.0999999046326,1,r,,3,2,1,
04l,RSVPtest,124,g,true,1004.7000000476837,2,g,,1,0,1,
04l,RSVPtest,125,g,true,1227.6999998092651,2,g,,0,0,2,
04l,RSVPtest,126,g,false,877.6000001430511,2,g,,3,2,1,
04l,RSVPtest,127,g,true,793.8999998569489,0,b,,1,3,0,
04l,RSVPtest,128,g,true,1325.7000000476837,1,r,,1,1,2,
04l,RSVPtest,129,g,true,877.5999999046326,1,r,,3,1,1,
04l,RSVPtest,130,g,true,855.5,2,g,,0,2,1,
04l,RSVPtest,131,g,true,1051.1999998092651,2,g,,1,2,1,
04l,RSVPtest,132,g,true,775.2000000476837,2,g,,0,1,1,
04l,RSVPtest,133,g,true,852,2,g,,3,1,1,
04l,RSVPtest,134,g,true,898.7999999523163,2,g,,0,2,1,
04l,RSVPtest,135,g,true,899.7000000476837,0,b,,3,3,0,
04l,RSVPtest,136,g,false,1056.2000000476837,2,g,,1,1,2,
04l,RSVPtest,137,g,true,803.8999998569489,1,r,,0,2,1,
04l,RSVPtest,138,g,true,670.5,2,g,,1,2,1,
04l,RSVPtest,139,g,false,829.1999998092651,1,r,,3,2,1,
04l,RSVPtest,140,g,true,942.0999999046326,2,g,,0,0,2,
04l,RSVPtest,141,g,false,1087.0999999046326,0,b,,3,3,0,
04l,RSVPtest,142,g,true,689.4000000953674,0,b,,3,3,0,
04l,RSVPtest,143,g,true,885.6999998092651,0,b,,0,3,0,
04l,RSVPtest,144,g,true,780.2000000476837,2,g,,3,0,1,
04l,RSVPtest,145,g,true,805.2999999523163,2,g,,1,1,2,
04l,RSVPtest,146,g,true,770.9000000953674,0,b,,3,3,0,
04l,RSVPtest,147,g,false,675.5,1,r,,0,1,1,
04l,RSVPtest,148,g,true,859,1,r,,3,2,1,
04l,RSVPtest,149,g,true,762.9000000953674,2,g,,3,0,1,
04l,RSVPtest,150,g,true,1236.3000001907349,0,b,,1,3,0,
04l,RSVPtest,151,g,true,668.6000001430511,1,r,,1,0,1,
04l,RSVPtest,152,g,false,659,1,r,,0,0,2,
04l,RSVPtest,153,g,true,1317.0999999046326,2,g,,3,1,1,
04l,RSVPtest,154,g,true,1003.6000001430511,0,b,,3,3,0,
04l,RSVPtest,155,g,true,949,0,b,,0,3,0,
04l,RSVPtest,156,g,true,621.5,1,r,,3,1,1,
04l,RSVPtest,157,g,true,723.5999999046326,0,b,,3,3,0,
04l,RSVPtest,158,g,true,723.7000000476837,0,b,,2,3,0,
04l,RSVPtest,159,g,true,723.4000000953674,1,r,,0,2,1,
04l,RSVPtest,160,g,true,596.1000001430511,0,b,,3,3,0,
04l,RSVPtest,161,g,true,876.9000000953674,1,r,,1,2,1,
04l,RSVPtest,162,g,true,940.3000001907349,1,r,,2,2,2,
04l,RSVPtest,163,g,true,1217.7999999523163,1,r,,0,1,1,
04l,RSVPtest,164,g,true,747.7999999523163,2,g,,3,1,1,
04l,RSVPtest,165,g,true,1067.4000000953674,1,r,,2,1,1,
04l,RSVPtest,166,g,true,883.2000000476837,2,g,,3,2,1,
04l,RSVPtest,167,g,true,916.6000001430511,1,r,,3,0,1,
04l,RSVPtest,168,g,true,1019.2000000476837,2,g,,0,1,1,
04l,RSVPtest,169,g,true,971.7000000476837,2,g,,1,1,2,
04l,RSVPtest,170,g,true,959.2000000476837,0,b,,0,3,0,
04l,RSVPtest,171,g,true,1182.5,1,r,,0,1,1,
04l,RSVPtest,172,g,false,843.3000001907349,1,r,,3,0,1,
04l,RSVPtest,173,g,true,1224,1,r,,3,2,1,
04l,RSVPtest,174,g,true,1182.1000001430511,2,g,,2,2,2,
04l,RSVPtest,175,g,true,1123.7000000476837,0,b,,0,3,0,
04l,RSVPtest,176,g,false,907.2000000476837,0,b,,2,3,0,
04l,RSVPtest,177,g,false,1012.5,2,g,,2,1,1,
04l,RSVPtest,178,g,true,851.4000000953674,1,r,,1,0,1,
04l,RSVPtest,179,g,true,835.7999999523163,1,r,,0,2,1,
04l,RSVPtest,180,g,false,795.6000001430511,2,g,,0,2,1,
brk,brk,brk,brk,brk,brk,brk,brk,brk,brk,brk,brk,
04l,RSVPtest,181,g,false,868.3999998569489,1,r,,3,2,1,
04l,RSVPtest,182,g,true,618.7000000476837,1,r,,3,0,1,
04l,RSVPtest,183,g,false,1098.7000000476837,0,b,,1,3,0,
04l,RSVPtest,184,g,true,698.9000000953674,0,b,,1,3,0,
04l,RSVPtest,185,g,true,691.0999999046326,0,b,,3,3,0,
04l,RSVPtest,186,g,true,923.3999998569489,2,g,,0,1,1,
04l,RSVPtest,187,g,false,747.5,0,b,,1,3,0,
04l,RSVPtest,188,g,true,756.2999999523163,0,b,,2,3,0,
04l,RSVPtest,189,g,true,812.4000000953674,2,g,,3,0,1,
04l,RSVPtest,190,g,true,730.5,0,b,,3,3,0,
04l,RSVPtest,191,g,false,924.3999998569489,2,g,,2,2,2,
04l,RSVPtest,192,g,false,1058,1,r,,1,2,1,
04l,RSVPtest,193,g,true,660.4000000953674,1,r,,3,2,1,
04l,RSVPtest,194,g,true,753.2000000476837,2,g,,3,0,1,
04l,RSVPtest,195,g,true,709.2000000476837,1,r,,1,1,2,
04l,RSVPtest,196,g,true,659.5999999046326,1,r,,3,1,1,
04l,RSVPtest,197,g,false,916.2999999523163,0,b,,1,3,0,
04l,RSVPtest,198,g,true,1083.2000000476837,0,b,,2,3,0,
04l,RSVPtest,199,g,false,995.6000001430511,2,g,,2,2,2,
04l,RSVPtest,200,g,true,792.7999999523163,0,b,,2,3,0,
04l,RSVPtest,201,g,true,941,0,b,,3,3,0,
04l,RSVPtest,202,g,false,648.7000000476837,2,g,,0,2,1,
04l,RSVPtest,203,g,true,1026.8999998569489,1,r,,0,1,1,
04l,RSVPtest,204,g,true,1152.5,1,r,,0,0,2,
04l,RSVPtest,205,g,true,883.7999999523163,0,b,,1,3,0,
04l,RSVPtest,206,g,true,667.2999999523163,2,g,,1,0,1,
04l,RSVPtest,207,g,true,1116.5,1,r,,2,1,1,
04l,RSVPtest,208,g,true,746.5,2,g,,3,2,1,
04l,RSVPtest,209,g,true,715.5999999046326,1,r,,3,1,1,
04l,RSVPtest,210,g,true,922,0,b,,1,3,0,
04l,RSVPtest,211,g,true,1321.2000000476837,2,g,,3,2,1,
04l,RSVPtest,212,g,true,852.7999999523163,2,g,,1,1,2,
04l,RSVPtest,213,g,true,785.9000000953674,1,r,,1,1,2,
04l,RSVPtest,214,g,false,796.5,1,r,,3,1,1,
04l,RSVPtest,215,g,false,1283.2000000476837,1,r,,1,1,2,
04l,RSVPtest,216,g,true,882,1,r,,3,0,1,
04l,RSVPtest,217,g,true,721.7000000476837,1,r,,1,0,1,
04l,RSVPtest,218,g,true,947.2999999523163,2,g,,2,0,1,
04l,RSVPtest,219,g,true,1080.6000001430511,1,r,,3,2,1,
04l,RSVPtest,220,g,true,802.2999999523163,2,g,,3,1,1,
04l,RSVPtest,221,g,true,956.9000000953674,2,g,,1,2,1,
04l,RSVPtest,222,g,false,730.2999999523163,0,b,,3,3,0,
04l,RSVPtest,223,g,true,868,1,r,,2,0,1,
04l,RSVPtest,224,g,true,1121.2999999523163,2,g,,2,0,1,
04l,RSVPtest,225,g,true,733.7000000476837,1,r,,3,0,1,
04l,RSVPtest,226,g,true,810.3000001907349,1,r,,0,2,1,
04l,RSVPtest,227,g,false,978.7000000476837,2,g,,3,2,1,
04l,RSVPtest,228,g,true,746.2000000476837,1,r,,3,0,1,
04l,RSVPtest,229,g,true,1042.7000000476837,1,r,,0,1,1,
04l,RSVPtest,230,g,true,677,0,b,,2,3,0,
04l,RSVPtest,231,g,true,755,0,b,,2,3,0,
04l,RSVPtest,232,g,true,505.69999980926514,1,r,,1,1,2,
04l,RSVPtest,233,g,false,1147.7000000476837,0,b,,3,3,0,
04l,RSVPtest,234,g,true,674.5999999046326,2,g,,0,1,1,
04l,RSVPtest,235,g,false,866.4000000953674,2,g,,3,2,1,
04l,RSVPtest,236,g,true,1154.1999998092651,2,g,,3,1,1,
04l,RSVPtest,237,g,true,1214.8000001907349,2,g,,2,1,1,
04l,RSVPtest,238,g,false,1169.7000000476837,0,b,,3,3,0,
04l,RSVPtest,239,g,true,641.7000000476837,1,r,,2,0,1,
04l,RSVPtest,240,g,false,1024.2999999523163,2,g,,0,1,1,
