subID,trialType,trialNum,cntBalance,correct,rt,rwdType,tgtCol,tgtDir,tgtPos,colPos,colMatch,
dvt,VDACtrain,0,g,null,null,1,r,h,2,,,
dvt,VDACtrain,0,g,null,null,1,r,v,4,,,
dvt,VDACtrain,0,g,true,691.8999999910593,2,g,v,5,,,
dvt,VDACtrain,0,g,null,null,2,g,h,5,,,
dvt,VDACtrain,0,g,false,625.5,2,g,h,3,,,
dvt,VDACtrain,0,g,true,741.7999999970198,2,g,v,0,,,
dvt,VDACtrain,0,g,true,831.0999999940395,1,r,h,1,,,
dvt,VDACtrain,0,g,false,705,1,r,h,0,,,
dvt,VDACtrain,0,g,true,718.2999999970198,1,r,v,3,,,
dvt,VDACtrain,0,g,null,null,2,g,v,2,,,
dvt,VDACtest,1,g,true,821.8999999910593,2,g,v,5,,,
dvt,VDACtest,2,g,false,676.7000000029802,1,r,v,0,,,
dvt,VDACtest,3,g,true,740.2999999970198,1,r,h,3,,,
dvt,VDACtest,4,g,true,541.5,2,g,v,4,,,
dvt,VDACtest,5,g,true,565.2999999970198,1,r,h,4,,,
dvt,VDACtest,6,g,true,718.2999999970198,2,g,v,2,,,
dvt,VDACtest,7,g,true,741.3999999910593,2,g,v,3,,,
dvt,VDACtest,8,g,true,462.79999999701977,1,r,h,0,,,
dvt,VDACtest,9,g,false,544.7000000029802,2,g,v,4,,,
dvt,VDACtest,10,g,true,589.4000000059605,1,r,v,5,,,
dvt,VDACtest,11,g,true,637.6000000089407,2,g,v,0,,,
dvt,VDACtest,12,g,true,389.8999999910593,1,r,h,4,,,
dvt,VDACtest,13,g,null,null,2,g,h,0,,,
dvt,VDACtest,14,g,null,null,1,r,v,2,,,
dvt,VDACtest,15,g,true,477,1,r,h,4,,,
dvt,VDACtest,16,g,true,758.0999999940395,1,r,h,5,,,
dvt,VDACtest,17,g,true,715.7999999970198,1,r,v,4,,,
dvt,VDACtest,18,g,true,557.2999999970198,2,g,v,4,,,
dvt,VDACtest,19,g,true,493.40000000596046,2,g,v,4,,,
dvt,VDACtest,20,g,true,708.7999999970198,2,g,h,2,,,
dvt,VDACtest,21,g,true,869,2,g,h,4,,,
dvt,VDACtest,22,g,true,669,1,r,h,1,,,
dvt,VDACtest,23,g,true,606.5,1,r,v,1,,,
dvt,VDACtest,24,g,true,677.4000000059605,1,r,h,4,,,
dvt,VDACtest,25,g,true,766.7000000029802,1,r,h,0,,,
dvt,VDACtest,26,g,true,725,1,r,h,0,,,
dvt,VDACtest,27,g,true,510.1000000089407,1,r,h,2,,,
dvt,VDACtest,28,g,true,645,1,r,v,3,,,
dvt,VDACtest,29,g,true,558.2000000029802,1,r,h,3,,,
dvt,VDACtest,30,g,true,644.8000000119209,1,r,v,1,,,
dvt,VDACtest,31,g,true,573.2000000029802,1,r,h,1,,,
dvt,VDACtest,32,g,true,619.7000000029802,2,g,h,1,,,
dvt,VDACtest,33,g,null,null,1,r,v,4,,,
dvt,VDACtest,34,g,null,null,2,g,v,1,,,
dvt,VDACtest,35,g,true,555.5999999940395,1,r,h,5,,,
dvt,VDACtest,36,g,true,868.4000000059605,2,g,h,0,,,
dvt,VDACtest,37,g,true,533.6999999880791,1,r,h,1,,,
dvt,VDACtest,38,g,true,622.1999999880791,2,g,v,1,,,
dvt,VDACtest,39,g,true,669.6999999880791,2,g,v,5,,,
dvt,VDACtest,40,g,true,517,1,r,h,1,,,
dvt,VDACtest,41,g,true,623,2,g,v,0,,,
dvt,VDACtest,42,g,null,null,2,g,h,2,,,
dvt,VDACtest,43,g,true,643,2,g,h,3,,,
dvt,VDACtest,44,g,true,607,2,g,v,0,,,
dvt,VDACtest,45,g,true,572.2999999970198,2,g,h,4,,,
dvt,VDACtest,46,g,null,null,1,r,v,1,,,
dvt,VDACtest,47,g,true,673,2,g,v,2,,,
dvt,VDACtest,48,g,true,860.2999999970198,2,g,h,4,,,
dvt,VDACtest,49,g,true,853.0999999940395,2,g,v,1,,,
dvt,VDACtest,50,g,true,492.5,2,g,h,4,,,
brk,brk,brk,brk,brk,brk,brk,brk,brk,brk,brk,brk,
dvt,VDACtest,51,g,true,644,2,g,h,5,,,
dvt,VDACtest,52,g,true,676.2999999970198,2,g,h,4,,,
dvt,VDACtest,53,g,true,429.79999999701977,2,g,h,4,,,
dvt,VDACtest,54,g,true,862.7000000029802,2,g,v,1,,,
dvt,VDACtest,55,g,true,660.5,2,g,v,1,,,
dvt,VDACtest,56,g,true,669.3000000119209,2,g,h,4,,,
dvt,VDACtest,57,g,false,662.3999999910593,1,r,v,4,,,
dvt,VDACtest,58,g,null,null,2,g,v,2,,,
dvt,VDACtest,59,g,true,769.4000000059605,2,g,h,1,,,
dvt,VDACtest,60,g,true,549.5999999940395,1,r,h,0,,,
dvt,VDACtest,61,g,true,595.5999999940395,1,r,v,3,,,
dvt,VDACtest,62,g,true,660.9000000059605,2,g,h,4,,,
dvt,VDACtest,63,g,true,693.8999999910593,2,g,h,0,,,
dvt,VDACtest,64,g,true,820.1000000089407,2,g,h,5,,,
dvt,VDACtest,65,g,true,620.5,2,g,h,2,,,
dvt,VDACtest,66,g,true,581.4000000059605,2,g,h,1,,,
dvt,VDACtest,67,g,true,677.7000000029802,1,r,v,1,,,
dvt,VDACtest,68,g,true,524.3000000119209,2,g,h,3,,,
dvt,VDACtest,69,g,true,508.59999999403954,1,r,v,4,,,
dvt,VDACtest,70,g,true,517.7000000029802,2,g,h,3,,,
dvt,VDACtest,71,g,true,694.5999999940395,1,r,v,2,,,
dvt,VDACtest,72,g,true,734.5,1,r,v,5,,,
dvt,VDACtest,73,g,true,885.2000000029802,2,g,h,2,,,
dvt,VDACtest,74,g,true,574.2000000029802,2,g,v,5,,,
dvt,VDACtest,75,g,true,770.3999999910593,2,g,h,5,,,
dvt,VDACtest,76,g,true,566.2000000029802,1,r,h,5,,,
dvt,VDACtest,77,g,true,559.1999999880791,2,g,v,4,,,
dvt,VDACtest,78,g,true,555.7000000029802,1,r,h,3,,,
dvt,VDACtest,79,g,true,613.9000000059605,1,r,h,5,,,
dvt,VDACtest,80,g,true,606.2999999970198,1,r,h,1,,,
dvt,VDACtest,81,g,true,644.1000000089407,1,r,h,3,,,
dvt,VDACtest,82,g,true,653.5,1,r,v,0,,,
dvt,VDACtest,83,g,true,718.1999999880791,1,r,v,3,,,
dvt,VDACtest,84,g,true,502.29999999701977,1,r,v,4,,,
dvt,VDACtest,85,g,true,443,1,r,v,5,,,
dvt,VDACtest,86,g,true,662.7000000029802,1,r,h,2,,,
dvt,VDACtest,87,g,true,797.3999999910593,2,g,v,3,,,
dvt,VDACtest,88,g,true,740.9000000059605,2,g,v,2,,,
dvt,VDACtest,89,g,true,678.1999999880791,2,g,v,2,,,
dvt,VDACtest,90,g,true,654.7000000029802,2,g,h,2,,,
dvt,VDACtest,91,g,true,820,2,g,h,1,,,
dvt,VDACtest,92,g,true,581.5999999940395,1,r,v,1,,,
dvt,VDACtest,93,g,true,709.8999999910593,2,g,h,1,,,
dvt,VDACtest,94,g,true,853.7999999970198,2,g,h,3,,,
dvt,VDACtest,95,g,true,662.7999999970198,2,g,v,1,,,
dvt,VDACtest,96,g,true,694.3999999910593,1,r,v,0,,,
dvt,VDACtest,97,g,true,595.7999999970198,2,g,v,1,,,
dvt,VDACtest,98,g,true,574.4000000059605,1,r,v,3,,,
dvt,VDACtest,99,g,true,508.5,2,g,v,3,,,
dvt,VDACtest,100,g,true,659.5999999940395,2,g,v,5,,,
brk,brk,brk,brk,brk,brk,brk,brk,brk,brk,brk,brk,
dvt,VDACtest,101,g,true,771.3999999910593,2,g,h,3,,,
dvt,VDACtest,102,g,true,461.70000000298023,2,g,h,3,,,
dvt,VDACtest,103,g,true,416.20000000298023,2,g,h,3,,,
dvt,VDACtest,104,g,true,420,1,r,v,0,,,
dvt,VDACtest,105,g,true,580.5,1,r,v,2,,,
dvt,VDACtest,106,g,true,541.2999999970198,1,r,v,2,,,
dvt,VDACtest,107,g,true,479,1,r,v,2,,,
dvt,VDACtest,108,g,true,650.9000000059605,2,g,v,3,,,
dvt,VDACtest,109,g,true,469.70000000298023,2,g,v,4,,,
dvt,VDACtest,110,g,true,677.2999999970198,2,g,h,5,,,
dvt,VDACtest,111,g,true,661.9000000059605,1,r,h,4,,,
dvt,VDACtest,112,g,true,716.9000000059605,2,g,v,0,,,
dvt,VDACtest,113,g,true,566,2,g,v,0,,,
dvt,VDACtest,114,g,true,459.5,1,r,h,4,,,
dvt,VDACtest,115,g,true,700.8999999910593,2,g,h,2,,,
dvt,VDACtest,116,g,true,573.3999999910593,2,g,v,0,,,
dvt,VDACtest,117,g,true,717.2999999970198,1,r,v,5,,,
dvt,VDACtest,118,g,true,458.79999999701977,1,r,v,0,,,
dvt,VDACtest,119,g,true,869.6000000089407,2,g,v,3,,,
dvt,VDACtest,120,g,true,781.2999999970198,2,g,h,1,,,
dvt,VDACtest,121,g,true,573.7999999970198,1,r,h,3,,,
dvt,VDACtest,122,g,true,453.5,1,r,h,3,,,
dvt,VDACtest,123,g,true,877.2000000029802,2,g,h,1,,,
dvt,VDACtest,124,g,true,467.70000000298023,1,r,h,2,,,
dvt,VDACtest,125,g,true,550,1,r,h,4,,,
dvt,VDACtest,126,g,true,525,1,r,h,3,,,
dvt,VDACtest,127,g,true,542.3999999910593,1,r,h,5,,,
dvt,VDACtest,128,g,true,637.7999999970198,1,r,v,4,,,
dvt,VDACtest,129,g,true,516.6000000089407,1,r,v,1,,,
dvt,VDACtest,130,g,true,708.5,1,r,v,4,,,
dvt,VDACtest,131,g,true,676.7999999970198,2,g,v,0,,,
dvt,VDACtest,132,g,true,555.5999999940395,1,r,v,1,,,
dvt,VDACtest,133,g,true,558.4000000059605,1,r,h,0,,,
dvt,VDACtest,134,g,true,620.7999999970198,2,g,v,1,,,
dvt,VDACtest,135,g,true,572.2999999970198,1,r,v,0,,,
dvt,VDACtest,136,g,true,637,1,r,h,2,,,
dvt,VDACtest,137,g,true,724.4000000059605,2,g,h,1,,,
dvt,VDACtest,138,g,true,637.3999999910593,2,g,h,2,,,
dvt,VDACtest,139,g,true,514.6000000089407,1,r,h,2,,,
dvt,VDACtest,140,g,true,533.2000000029802,1,r,h,2,,,
dvt,VDACtest,141,g,true,565.5999999940395,1,r,v,5,,,
dvt,VDACtest,142,g,true,597.1999999880791,2,g,v,5,,,
dvt,VDACtest,143,g,true,677.7000000029802,1,r,v,0,,,
dvt,VDACtest,144,g,true,604.3999999910593,1,r,h,5,,,
dvt,VDACtest,145,g,true,995.4000000059605,2,g,v,2,,,
dvt,VDACtest,146,g,true,678.0999999940395,1,r,h,1,,,
dvt,VDACtest,147,g,true,523.7000000029802,1,r,h,4,,,
dvt,VDACtest,148,g,true,613.0999999940395,2,g,h,3,,,
dvt,VDACtest,149,g,true,579.8999999910593,2,g,v,3,,,
dvt,VDACtest,150,g,true,514.7000000029802,2,g,h,2,,,
brk,brk,brk,brk,brk,brk,brk,brk,brk,brk,brk,brk,
dvt,VDACtest,151,g,true,705.0999999940395,2,g,h,0,,,
dvt,VDACtest,152,g,true,747.3999999910593,2,g,v,3,,,
dvt,VDACtest,153,g,true,598.5999999940395,1,r,v,4,,,
dvt,VDACtest,154,g,true,708.7000000029802,1,r,h,1,,,
dvt,VDACtest,155,g,true,739.2000000029802,2,g,h,0,,,
dvt,VDACtest,156,g,true,641.5,1,r,h,1,,,
dvt,VDACtest,157,g,true,588,2,g,v,3,,,
dvt,VDACtest,158,g,true,468.20000000298023,1,r,h,0,,,
dvt,VDACtest,159,g,true,493.90000000596046,1,r,h,2,,,
dvt,VDACtest,160,g,true,572.7999999970198,1,r,v,1,,,
dvt,VDACtest,161,g,true,661.2999999970198,2,g,v,2,,,
dvt,VDACtest,162,g,true,619.5999999940395,1,r,v,3,,,
dvt,VDACtest,163,g,true,589.9000000059605,2,g,h,5,,,
dvt,VDACtest,164,g,true,556.5999999940395,2,g,h,5,,,
dvt,VDACtest,165,g,true,614,2,g,v,4,,,
dvt,VDACtest,166,g,true,726.1999999880791,1,r,v,2,,,
dvt,VDACtest,167,g,true,533,2,g,v,0,,,
dvt,VDACtest,168,g,true,611.6000000089407,1,r,v,3,,,
dvt,VDACtest,169,g,true,542.2999999970198,2,g,v,5,,,
dvt,VDACtest,170,g,true,540.5,1,r,v,2,,,
dvt,VDACtest,171,g,true,517.1000000089407,1,r,h,5,,,
dvt,VDACtest,172,g,true,837.5,2,g,v,4,,,
dvt,VDACtest,173,g,true,462.79999999701977,2,g,v,4,,,
dvt,VDACtest,174,g,true,549.2999999970198,2,g,h,5,,,
dvt,VDACtest,175,g,true,532.5,2,g,h,0,,,
dvt,VDACtest,176,g,true,420.40000000596046,2,g,h,5,,,
dvt,VDACtest,177,g,true,636.1999999880791,2,g,v,1,,,
dvt,VDACtest,178,g,null,null,1,r,v,5,,,
dvt,VDACtest,179,g,true,690.4000000059605,1,r,v,0,,,
dvt,VDACtest,180,g,true,452.5,1,r,v,5,,,
dvt,VDACtest,181,g,true,821,2,g,v,2,,,
dvt,VDACtest,182,g,true,478,1,r,h,0,,,
dvt,VDACtest,183,g,true,901.2000000029802,2,g,h,4,,,
dvt,VDACtest,184,g,true,644.3999999910593,1,r,v,5,,,
dvt,VDACtest,185,g,true,441.8999999910593,1,r,h,0,,,
dvt,VDACtest,186,g,true,622.4000000059605,1,r,v,2,,,
dvt,VDACtest,187,g,true,596.0999999940395,1,r,v,3,,,
dvt,VDACtest,188,g,true,613.1999999880791,2,g,v,5,,,
dvt,VDACtest,189,g,true,813.0999999940395,1,r,v,1,,,
dvt,VDACtest,190,g,true,508,1,r,h,5,,,
dvt,VDACtest,191,g,true,548.6999999880791,1,r,h,3,,,
dvt,VDACtest,192,g,true,524,1,r,h,4,,,
dvt,VDACtest,193,g,true,542.5,1,r,v,3,,,
dvt,VDACtest,194,g,true,565.0999999940395,1,r,v,4,,,
dvt,VDACtest,195,g,true,661.2999999970198,1,r,h,2,,,
dvt,VDACtest,196,g,true,565.7999999970198,2,g,v,5,,,
dvt,VDACtest,197,g,true,772.5999999940395,2,g,h,1,,,
dvt,VDACtest,198,g,true,452.8999999910593,1,r,h,1,,,
dvt,VDACtest,199,g,true,805.6000000089407,2,g,h,0,,,
dvt,VDACtest,200,g,true,500.79999999701977,2,g,h,0,,,
dvt,RSVPtrain,0,g,false,1723.7000000029802,2,g,,2,2,2,
dvt,RSVPtrain,0,g,true,1311.800000011921,2,g,,1,0,1,
dvt,RSVPtrain,0,g,true,839.6000000089407,0,b,,0,3,0,
dvt,RSVPtrain,0,g,true,898.7000000029802,2,g,,3,1,1,
dvt,RSVPtrain,0,g,true,1031.5999999940395,1,r,,0,0,2,
dvt,RSVPtrain,0,g,false,949.6000000089407,0,b,,1,3,0,
dvt,RSVPtrain,0,g,true,816.8000000119209,1,r,,1,1,2,
dvt,RSVPtrain,0,g,true,926.6000000089407,1,r,,3,2,1,
dvt,RSVPtrain,0,g,true,871.2000000029802,0,b,,3,3,0,
dvt,RSVPtrain,0,g,true,824.9000000059605,2,g,,3,0,1,
dvt,RSVPtest,1,g,false,623.7000000029802,1,r,,1,0,1,
dvt,RSVPtest,2,g,true,822.6999999880791,0,b,,3,3,0,
dvt,RSVPtest,3,g,true,719.9000000059605,1,r,,3,2,1,
dvt,RSVPtest,4,g,false,1240.2000000029802,1,r,,1,2,1,
dvt,RSVPtest,5,g,true,457.20000000298023,2,g,,1,0,1,
dvt,RSVPtest,6,g,false,702.1000000089407,2,g,,1,0,1,
dvt,RSVPtest,7,g,true,1086.5999999940395,1,r,,2,0,1,
dvt,RSVPtest,8,g,true,749.5,0,b,,1,3,0,
dvt,RSVPtest,9,g,false,906,1,r,,0,1,1,
dvt,RSVPtest,10,g,true,568,2,g,,0,2,1,
dvt,RSVPtest,11,g,true,977.0999999940395,0,b,,3,3,0,
dvt,RSVPtest,12,g,true,743.2000000029802,1,r,,0,1,1,
dvt,RSVPtest,13,g,true,687.5999999940395,1,r,,3,1,1,
dvt,RSVPtest,14,g,true,1224.8999999910593,1,r,,3,2,1,
dvt,RSVPtest,15,g,true,1032.6000000089407,0,b,,0,3,0,
dvt,RSVPtest,16,g,false,1242.5999999940395,2,g,,1,0,1,
dvt,RSVPtest,17,g,true,663.2000000029802,0,b,,3,3,0,
dvt,RSVPtest,18,g,true,760.5,1,r,,0,1,1,
dvt,RSVPtest,19,g,true,673,2,g,,1,1,2,
dvt,RSVPtest,20,g,true,1152.4000000059605,2,g,,2,1,1,
dvt,RSVPtest,21,g,true,768.2999999970198,2,g,,3,2,1,
dvt,RSVPtest,22,g,true,693,0,b,,0,3,0,
dvt,RSVPtest,23,g,true,824.0999999940395,2,g,,1,0,1,
dvt,RSVPtest,24,g,true,1198.8999999910593,1,r,,2,1,1,
dvt,RSVPtest,25,g,true,573.9000000059605,1,r,,3,1,1,
dvt,RSVPtest,26,g,false,1198.5,1,r,,2,0,1,
dvt,RSVPtest,27,g,false,759.7999999970198,1,r,,3,0,1,
dvt,RSVPtest,28,g,true,1016.4000000059605,2,g,,0,1,1,
dvt,RSVPtest,29,g,true,855,1,r,,2,1,1,
dvt,RSVPtest,30,g,true,989.4000000059605,2,g,,2,0,1,
dvt,RSVPtest,31,g,false,1045.6000000089407,1,r,,0,2,1,
dvt,RSVPtest,32,g,true,1085.5999999940395,1,r,,3,1,1,
dvt,RSVPtest,33,g,true,873.2000000029802,2,g,,3,1,1,
dvt,RSVPtest,34,g,true,614.3000000119209,2,g,,3,2,1,
dvt,RSVPtest,35,g,true,773.2999999970198,2,g,,0,1,1,
dvt,RSVPtest,36,g,true,1224,1,r,,2,0,1,
dvt,RSVPtest,37,g,true,902.3999999910593,2,g,,1,0,1,
dvt,RSVPtest,38,g,true,899.5,0,b,,0,3,0,
dvt,RSVPtest,39,g,true,576.2000000029802,2,g,,3,0,1,
dvt,RSVPtest,40,g,true,942.3000000119209,2,g,,3,1,1,
dvt,RSVPtest,41,g,true,670.2000000029802,2,g,,3,1,1,
dvt,RSVPtest,42,g,false,1016.8999999910593,2,g,,3,0,1,
dvt,RSVPtest,43,g,true,639,1,r,,3,0,1,
dvt,RSVPtest,44,g,false,969.6000000089407,2,g,,3,2,1,
dvt,RSVPtest,45,g,false,879,0,b,,0,3,0,
dvt,RSVPtest,46,g,true,1550.9000000059605,2,g,,0,0,2,
dvt,RSVPtest,47,g,false,1268.2999999970198,2,g,,3,0,1,
dvt,RSVPtest,48,g,true,688.5,2,g,,3,2,1,
dvt,RSVPtest,49,g,true,943.2999999970198,0,b,,2,3,0,
dvt,RSVPtest,50,g,true,1561,0,b,,3,3,0,
dvt,RSVPtest,51,g,true,1568.8999999910593,0,b,,0,3,0,
dvt,RSVPtest,52,g,false,576,1,r,,1,0,1,
dvt,RSVPtest,53,g,false,774.2000000029802,0,b,,3,3,0,
dvt,RSVPtest,54,g,true,966.2000000029802,1,r,,2,1,1,
dvt,RSVPtest,55,g,true,1046.699999988079,2,g,,2,2,2,
dvt,RSVPtest,56,g,true,774.2999999970198,1,r,,0,0,2,
dvt,RSVPtest,57,g,false,822.3999999910593,1,r,,3,1,1,
dvt,RSVPtest,58,g,true,1229.5,2,g,,2,1,1,
dvt,RSVPtest,59,g,true,853.6000000089407,1,r,,2,1,1,
dvt,RSVPtest,60,g,true,1033.2000000029802,0,b,,1,3,0,
brk,brk,brk,brk,brk,brk,brk,brk,brk,brk,brk,brk,
dvt,RSVPtest,61,g,true,508.6000000089407,1,r,,1,2,1,
dvt,RSVPtest,62,g,true,717.4000000059605,0,b,,1,3,0,
dvt,RSVPtest,63,g,true,775.5,0,b,,3,3,0,
dvt,RSVPtest,64,g,true,900.5,1,r,,2,2,2,
dvt,RSVPtest,65,g,true,871.1999999880791,0,b,,2,3,0,
dvt,RSVPtest,66,g,true,702.9000000059605,2,g,,3,1,1,
dvt,RSVPtest,67,g,true,709.2000000029802,0,b,,0,3,0,
dvt,RSVPtest,68,g,true,813.6000000089407,0,b,,1,3,0,
dvt,RSVPtest,69,g,true,686.0999999940395,2,g,,2,1,1,
dvt,RSVPtest,70,g,true,565.1999999880791,1,r,,0,2,1,
dvt,RSVPtest,71,g,true,816.4000000059605,0,b,,3,3,0,
dvt,RSVPtest,72,g,true,967.1000000089407,1,r,,2,1,1,
dvt,RSVPtest,73,g,true,708.6000000089407,2,g,,3,0,1,
dvt,RSVPtest,74,g,true,717.4000000059605,2,g,,1,2,1,
dvt,RSVPtest,75,g,true,755.3999999910593,0,b,,0,3,0,
dvt,RSVPtest,76,g,true,861.5,2,g,,3,0,1,
dvt,RSVPtest,77,g,true,757.8999999910593,1,r,,3,0,1,
dvt,RSVPtest,78,g,true,724,0,b,,2,3,0,
dvt,RSVPtest,79,g,true,704.1000000089407,0,b,,2,3,0,
dvt,RSVPtest,80,g,true,1376.2999999970198,2,g,,0,0,2,
dvt,RSVPtest,81,g,true,758.5,2,g,,2,0,1,
dvt,RSVPtest,82,g,true,971.6000000089407,2,g,,3,2,1,
dvt,RSVPtest,83,g,true,1734.2999999970198,1,r,,3,2,1,
dvt,RSVPtest,84,g,true,629,0,b,,1,3,0,
dvt,RSVPtest,85,g,false,1085.9000000059605,1,r,,1,1,2,
dvt,RSVPtest,86,g,true,756.4000000059605,2,g,,3,1,1,
dvt,RSVPtest,87,g,true,735.5,1,r,,1,2,1,
dvt,RSVPtest,88,g,true,589.6000000089407,0,b,,1,3,0,
dvt,RSVPtest,89,g,true,711.1000000089407,1,r,,0,0,2,
dvt,RSVPtest,90,g,true,821.6999999880791,1,r,,2,2,2,
dvt,RSVPtest,91,g,true,725.3999999910593,2,g,,3,0,1,
dvt,RSVPtest,92,g,true,761.4000000059605,1,r,,0,0,2,
dvt,RSVPtest,93,g,true,637.4000000059605,2,g,,1,2,1,
dvt,RSVPtest,94,g,true,1023.7000000029802,2,g,,2,1,1,
dvt,RSVPtest,95,g,true,638.5,2,g,,3,2,1,
dvt,RSVPtest,96,g,true,1431.7000000029802,1,r,,0,2,1,
dvt,RSVPtest,97,g,false,784.1000000089407,1,r,,0,2,1,
dvt,RSVPtest,98,g,true,964.4000000059605,2,g,,3,2,1,
dvt,RSVPtest,99,g,false,989.2999999970198,2,g,,3,2,1,
dvt,RSVPtest,100,g,true,1036.8999999910593,0,b,,1,3,0,
dvt,RSVPtest,101,g,true,965.3000000119209,2,g,,0,2,1,
dvt,RSVPtest,102,g,true,845.9000000059605,0,b,,3,3,0,
dvt,RSVPtest,103,g,true,654.2000000029802,2,g,,0,2,1,
dvt,RSVPtest,104,g,true,780.4000000059605,1,r,,1,1,2,
dvt,RSVPtest,105,g,true,527,1,r,,1,1,2,
dvt,RSVPtest,106,g,true,750,2,g,,3,0,1,
dvt,RSVPtest,107,g,true,716.2000000029802,1,r,,3,1,1,
dvt,RSVPtest,108,g,true,702,2,g,,0,2,1,
dvt,RSVPtest,109,g,true,629.6000000089407,2,g,,0,2,1,
dvt,RSVPtest,110,g,true,453.29999999701977,2,g,,1,2,1,
dvt,RSVPtest,111,g,true,837.5,0,b,,3,3,0,
dvt,RSVPtest,112,g,true,1291.5,2,g,,2,2,2,
dvt,RSVPtest,113,g,true,701.5,1,r,,2,2,2,
dvt,RSVPtest,114,g,true,725.5999999940395,1,r,,2,1,1,
dvt,RSVPtest,115,g,true,1173.5999999940395,2,g,,3,1,1,
dvt,RSVPtest,116,g,false,1189,1,r,,2,2,2,
dvt,RSVPtest,117,g,true,790.5999999940395,2,g,,0,1,1,
dvt,RSVPtest,118,g,false,675,2,g,,3,1,1,
dvt,RSVPtest,119,g,true,623.3000000119209,0,b,,3,3,0,
dvt,RSVPtest,120,g,true,925.5,1,r,,3,1,1,
brk,brk,brk,brk,brk,brk,brk,brk,brk,brk,brk,brk,
dvt,RSVPtest,121,g,false,1092.7000000029802,2,g,,3,1,1,
dvt,RSVPtest,122,g,true,645.7000000029802,1,r,,3,2,1,
dvt,RSVPtest,123,g,true,471.8999999910593,2,g,,2,0,1,
dvt,RSVPtest,124,g,true,1109,0,b,,1,3,0,
dvt,RSVPtest,125,g,true,1135.5,1,r,,1,2,1,
dvt,RSVPtest,126,g,true,948.2999999970198,0,b,,2,3,0,
dvt,RSVPtest,127,g,true,798.8999999910593,1,r,,3,2,1,
dvt,RSVPtest,128,g,true,645.4000000059605,2,g,,3,1,1,
dvt,RSVPtest,129,g,true,780.2000000029802,1,r,,0,1,1,
dvt,RSVPtest,130,g,true,740,2,g,,2,1,1,
dvt,RSVPtest,131,g,false,805.5,2,g,,3,1,1,
dvt,RSVPtest,132,g,true,906.7000000029802,2,g,,3,0,1,
dvt,RSVPtest,133,g,true,733.0999999940395,1,r,,0,2,1,
dvt,RSVPtest,134,g,true,781.5999999940395,0,b,,0,3,0,
dvt,RSVPtest,135,g,true,799.0999999940395,0,b,,0,3,0,
dvt,RSVPtest,136,g,false,796.4000000059605,1,r,,3,1,1,
dvt,RSVPtest,137,g,true,705.6000000089407,2,g,,0,0,2,
dvt,RSVPtest,138,g,true,1046.6000000089407,0,b,,3,3,0,
dvt,RSVPtest,139,g,true,756.7999999970198,0,b,,3,3,0,
dvt,RSVPtest,140,g,true,1141.7999999970198,0,b,,3,3,0,
dvt,RSVPtest,141,g,true,621.7999999970198,1,r,,0,2,1,
dvt,RSVPtest,142,g,true,777.2000000029802,1,r,,3,0,1,
dvt,RSVPtest,143,g,true,643.8999999910593,1,r,,3,0,1,
dvt,RSVPtest,144,g,true,1059.2999999970198,2,g,,1,1,2,
dvt,RSVPtest,145,g,true,781.2999999970198,2,g,,1,1,2,
dvt,RSVPtest,146,g,true,1011.2999999970198,2,g,,3,2,1,
dvt,RSVPtest,147,g,true,1459.7000000029802,0,b,,2,3,0,
dvt,RSVPtest,148,g,true,620.5,2,g,,3,0,1,
dvt,RSVPtest,149,g,true,747.4000000059605,0,b,,2,3,0,
dvt,RSVPtest,150,g,false,772,2,g,,3,1,1,
dvt,RSVPtest,151,g,false,1052.8999999910593,0,b,,3,3,0,
dvt,RSVPtest,152,g,true,925.1000000089407,1,r,,0,1,1,
dvt,RSVPtest,153,g,true,1179.5999999940395,0,b,,3,3,0,
dvt,RSVPtest,154,g,true,876.2000000029802,1,r,,3,0,1,
dvt,RSVPtest,155,g,true,861.7000000029802,2,g,,3,0,1,
dvt,RSVPtest,156,g,false,684.5999999940395,1,r,,3,2,1,
dvt,RSVPtest,157,g,true,853.4000000059605,0,b,,3,3,0,
dvt,RSVPtest,158,g,false,749.7000000029802,1,r,,1,2,1,
dvt,RSVPtest,159,g,false,1268.2999999970198,1,r,,1,0,1,
dvt,RSVPtest,160,g,true,496.6000000089407,0,b,,0,3,0,
dvt,RSVPtest,161,g,true,2318,0,b,,2,3,0,
dvt,RSVPtest,162,g,true,702.7000000029802,1,r,,2,0,1,
dvt,RSVPtest,163,g,true,972.2000000029802,1,r,,3,2,1,
dvt,RSVPtest,164,g,true,771.8999999910593,2,g,,1,2,1,
dvt,RSVPtest,165,g,true,508.80000001192093,2,g,,1,2,1,
dvt,RSVPtest,166,g,true,810.3999999910593,1,r,,0,0,2,
dvt,RSVPtest,167,g,true,595.2000000029802,1,r,,2,0,1,
dvt,RSVPtest,168,g,true,892,0,b,,0,3,0,
dvt,RSVPtest,169,g,true,722.7000000029802,0,b,,2,3,0,
dvt,RSVPtest,170,g,true,629.1999999880791,2,g,,2,0,1,
dvt,RSVPtest,171,g,true,806.5,1,r,,0,0,2,
dvt,RSVPtest,172,g,true,746.8999999910593,2,g,,3,2,1,
dvt,RSVPtest,173,g,true,815.0999999940395,1,r,,3,1,1,
dvt,RSVPtest,174,g,true,1050.8999999910593,1,r,,2,2,2,
dvt,RSVPtest,175,g,true,819.1000000089407,0,b,,3,3,0,
dvt,RSVPtest,176,g,false,1461.0999999940395,1,r,,3,0,1,
dvt,RSVPtest,177,g,true,786.9000000059605,1,r,,3,0,1,
dvt,RSVPtest,178,g,true,548.7999999970198,1,r,,0,0,2,
dvt,RSVPtest,179,g,true,794.7000000029802,1,r,,1,0,1,
dvt,RSVPtest,180,g,true,1106.5999999940395,1,r,,3,1,1,
brk,brk,brk,brk,brk,brk,brk,brk,brk,brk,brk,brk,
dvt,RSVPtest,181,g,true,702.8999999910593,0,b,,3,3,0,
dvt,RSVPtest,182,g,true,698.9000000059605,2,g,,2,0,1,
dvt,RSVPtest,183,g,true,818.1999999880791,2,g,,3,0,1,
dvt,RSVPtest,184,g,false,860,2,g,,1,1,2,
dvt,RSVPtest,185,g,true,772.9000000059605,0,b,,3,3,0,
dvt,RSVPtest,186,g,true,1115.7999999970198,0,b,,3,3,0,
dvt,RSVPtest,187,g,true,879.9000000059605,1,r,,3,2,1,
dvt,RSVPtest,188,g,true,1315.5,2,g,,2,0,1,
dvt,RSVPtest,189,g,true,851.5,0,b,,2,3,0,
dvt,RSVPtest,190,g,true,788.5999999940395,2,g,,2,2,2,
dvt,RSVPtest,191,g,true,774.4000000059605,2,g,,2,2,2,
dvt,RSVPtest,192,g,true,675.5,2,g,,0,0,2,
dvt,RSVPtest,193,g,false,806,2,g,,1,0,1,
dvt,RSVPtest,194,g,true,572.4000000059605,2,g,,1,1,2,
dvt,RSVPtest,195,g,true,669.8999999910593,0,b,,2,3,0,
dvt,RSVPtest,196,g,true,706.7000000029802,2,g,,2,2,2,
dvt,RSVPtest,197,g,true,635.6000000089407,1,r,,3,0,1,
dvt,RSVPtest,198,g,true,617.3000000119209,1,r,,1,0,1,
dvt,RSVPtest,199,g,true,996.0999999940395,2,g,,3,2,1,
dvt,RSVPtest,200,g,true,702.5,0,b,,3,3,0,
dvt,RSVPtest,201,g,true,598.3999999910593,1,r,,3,1,1,
dvt,RSVPtest,202,g,true,1212.0999999940395,1,r,,1,1,2,
dvt,RSVPtest,203,g,true,561.9000000059605,2,g,,1,1,2,
dvt,RSVPtest,204,g,true,702,2,g,,3,2,1,
dvt,RSVPtest,205,g,false,2339.7000000029802,1,r,,2,2,2,
dvt,RSVPtest,206,g,true,746.9000000059605,2,g,,0,2,1,
dvt,RSVPtest,207,g,true,1183.300000011921,0,b,,1,3,0,
dvt,RSVPtest,208,g,true,627,1,r,,3,2,1,
dvt,RSVPtest,209,g,true,874.7000000029802,1,r,,0,1,1,
dvt,RSVPtest,210,g,true,819.7999999970198,1,r,,2,0,1,
dvt,RSVPtest,211,g,true,763.8999999910593,2,g,,2,1,1,
dvt,RSVPtest,212,g,true,675,1,r,,3,2,1,
dvt,RSVPtest,213,g,false,1157.6000000089407,0,b,,3,3,0,
dvt,RSVPtest,214,g,true,847.2000000029802,1,r,,1,1,2,
dvt,RSVPtest,215,g,true,2058.9000000059605,1,r,,3,0,1,
dvt,RSVPtest,216,g,true,579.7999999970198,0,b,,1,3,0,
dvt,RSVPtest,217,g,true,749.0999999940395,2,g,,0,1,1,
dvt,RSVPtest,218,g,false,709.4000000059605,1,r,,3,0,1,
dvt,RSVPtest,219,g,true,514.2000000029802,0,b,,2,3,0,
dvt,RSVPtest,220,g,false,962.9000000059605,0,b,,1,3,0,
dvt,RSVPtest,221,g,true,741.1000000089407,1,r,,3,2,1,
dvt,RSVPtest,222,g,true,667.5999999940395,2,g,,3,1,1,
dvt,RSVPtest,223,g,true,733.7999999970198,2,g,,0,1,1,
dvt,RSVPtest,224,g,true,676,0,b,,3,3,0,
dvt,RSVPtest,225,g,true,580.5,2,g,,0,0,2,
dvt,RSVPtest,226,g,true,570.5,1,r,,3,1,1,
dvt,RSVPtest,227,g,true,653.2999999970198,1,r,,3,2,1,
dvt,RSVPtest,228,g,true,758,1,r,,1,1,2,
dvt,RSVPtest,229,g,false,619.2999999970198,1,r,,3,0,1,
dvt,RSVPtest,230,g,true,771.2000000029802,0,b,,3,3,0,
dvt,RSVPtest,231,g,true,1875.5,1,r,,1,0,1,
dvt,RSVPtest,232,g,true,1684.2000000029802,2,g,,1,2,1,
dvt,RSVPtest,233,g,true,787.5,2,g,,0,0,2,
dvt,RSVPtest,234,g,true,634.5,2,g,,0,1,1,
dvt,RSVPtest,235,g,true,644.2999999970198,0,b,,0,3,0,
dvt,RSVPtest,236,g,true,732.5,2,g,,3,0,1,
dvt,RSVPtest,237,g,false,898.7000000029802,2,g,,2,2,2,
dvt,RSVPtest,238,g,true,755.0999999940395,1,r,,1,2,1,
dvt,RSVPtest,239,g,true,554.2000000029802,0,b,,1,3,0,
dvt,RSVPtest,240,g,true,1883,1,r,,3,1,1,
