subID,trialType,trialNum,cntBalance,correct,rt,rwdType,tgtCol,tgtDir,tgtPos,colPos,colMatch,
qou,VDACtrain,0,g,null,null,1,r,v,4,,,
qou,VDACtrain,0,g,true,951.0999999046326,1,r,h,2,,,
qou,VDACtrain,0,g,false,770.5999999046326,2,g,v,2,,,
qou,VDACtrain,0,g,false,842.2000002861023,2,g,h,3,,,
qou,VDACtrain,0,g,null,null,1,r,h,0,,,
qou,VDACtrain,0,g,true,802.5,1,r,h,1,,,
qou,VDACtrain,0,g,true,610.4000000953674,2,g,h,5,,,
qou,VDACtrain,0,g,true,554.7000002861023,2,g,v,0,,,
qou,VDACtrain,0,g,true,555.4000000953674,2,g,v,5,,,
qou,VDACtrain,0,g,null,null,1,r,v,3,,,
qou,VDACtest,1,g,null,null,2,g,h,4,,,
qou,VDACtest,2,g,null,null,2,g,h,0,,,
qou,VDACtest,3,g,true,535.0999999046326,2,g,h,5,,,
qou,VDACtest,4,g,true,612.0999999046326,1,r,v,1,,,
qou,VDACtest,5,g,true,539.7000002861023,1,r,v,5,,,
qou,VDACtest,6,g,true,579,2,g,v,5,,,
qou,VDACtest,7,g,true,509.19999980926514,1,r,h,3,,,
qou,VDACtest,8,g,true,476.30000019073486,1,r,v,4,,,
qou,VDACtest,9,g,true,748.3000001907349,2,g,h,2,,,
qou,VDACtest,10,g,true,618.9000000953674,1,r,v,2,,,
qou,VDACtest,11,g,false,773.5,2,g,v,5,,,
qou,VDACtest,12,g,true,579.8000001907349,1,r,v,3,,,
qou,VDACtest,13,g,true,762.3000001907349,2,g,v,3,,,
qou,VDACtest,14,g,true,642.5999999046326,1,r,v,3,,,
qou,VDACtest,15,g,true,677,2,g,v,1,,,
qou,VDACtest,16,g,true,644.1000003814697,1,r,h,3,,,
qou,VDACtest,17,g,true,788.0999999046326,1,r,h,0,,,
qou,VDACtest,18,g,true,666.4000000953674,1,r,v,2,,,
qou,VDACtest,19,g,true,587.5999999046326,1,r,v,5,,,
qou,VDACtest,20,g,false,843.4000000953674,2,g,h,2,,,
qou,VDACtest,21,g,true,771.5,1,r,h,1,,,
qou,VDACtest,22,g,true,515.7999997138977,2,g,h,3,,,
qou,VDACtest,23,g,true,627.4000000953674,1,r,v,0,,,
qou,VDACtest,24,g,false,619.7999997138977,2,g,v,2,,,
qou,VDACtest,25,g,false,659.1999998092651,1,r,h,0,,,
qou,VDACtest,26,g,true,609.7999997138977,2,g,h,4,,,
qou,VDACtest,27,g,true,762.6999998092651,1,r,v,2,,,
qou,VDACtest,28,g,true,843.5,2,g,v,4,,,
qou,VDACtest,29,g,true,587.9000000953674,2,g,v,0,,,
qou,VDACtest,30,g,null,null,2,g,h,5,,,
qou,VDACtest,31,g,true,862.8000001907349,1,r,h,3,,,
qou,VDACtest,32,g,true,789,2,g,h,0,,,
qou,VDACtest,33,g,true,650.3000001907349,2,g,h,5,,,
qou,VDACtest,34,g,null,null,2,g,v,2,,,
qou,VDACtest,35,g,true,767.7000002861023,2,g,h,3,,,
qou,VDACtest,36,g,null,null,1,r,h,5,,,
qou,VDACtest,37,g,true,840.0999999046326,2,g,h,3,,,
qou,VDACtest,38,g,null,null,1,r,h,2,,,
qou,VDACtest,39,g,null,null,1,r,h,4,,,
qou,VDACtest,40,g,true,735.4000000953674,1,r,v,5,,,
qou,VDACtest,41,g,null,null,1,r,h,4,,,
qou,VDACtest,42,g,false,917.7999997138977,2,g,v,0,,,
qou,VDACtest,43,g,true,829.0999999046326,2,g,h,1,,,
qou,VDACtest,44,g,true,643.7999997138977,2,g,h,1,,,
qou,VDACtest,45,g,true,802.8000001907349,1,r,h,4,,,
qou,VDACtest,46,g,true,691.7000002861023,1,r,v,2,,,
qou,VDACtest,47,g,false,572.2999997138977,2,g,v,2,,,
qou,VDACtest,48,g,true,692.3000001907349,1,r,h,4,,,
qou,VDACtest,49,g,true,739.5,2,g,v,5,,,
qou,VDACtest,50,g,true,858.8000001907349,2,g,v,5,,,
brk,brk,brk,brk,brk,brk,brk,brk,brk,brk,brk,brk,
qou,VDACtest,51,g,null,null,1,r,h,3,,,
qou,VDACtest,52,g,true,711.6999998092651,2,g,h,2,,,
qou,VDACtest,53,g,true,762.5,2,g,h,2,,,
qou,VDACtest,54,g,false,642.7999997138977,2,g,h,0,,,
qou,VDACtest,55,g,true,963.0999999046326,1,r,h,3,,,
qou,VDACtest,56,g,true,787.2999997138977,2,g,v,2,,,
qou,VDACtest,57,g,true,650.1999998092651,2,g,h,3,,,
qou,VDACtest,58,g,true,787.8000001907349,1,r,h,4,,,
qou,VDACtest,59,g,true,617.8000001907349,1,r,h,2,,,
qou,VDACtest,60,g,true,547.0999999046326,2,g,v,3,,,
qou,VDACtest,61,g,true,773,2,g,h,1,,,
qou,VDACtest,62,g,true,682.3000001907349,2,g,v,4,,,
qou,VDACtest,63,g,true,514.8000001907349,2,g,h,3,,,
qou,VDACtest,64,g,null,null,2,g,h,2,,,
qou,VDACtest,65,g,null,null,1,r,h,0,,,
qou,VDACtest,66,g,null,null,2,g,v,5,,,
qou,VDACtest,67,g,true,549.9000000953674,1,r,h,2,,,
qou,VDACtest,68,g,true,570.8000001907349,1,r,v,1,,,
qou,VDACtest,69,g,true,517.1000003814697,1,r,h,2,,,
qou,VDACtest,70,g,true,636.4000000953674,1,r,h,5,,,
qou,VDACtest,71,g,true,883.0999999046326,1,r,h,4,,,
qou,VDACtest,72,g,true,722.5,1,r,h,0,,,
qou,VDACtest,73,g,true,653.0999999046326,1,r,v,5,,,
qou,VDACtest,74,g,false,776.3999996185303,2,g,v,1,,,
qou,VDACtest,75,g,true,594.1999998092651,1,r,v,0,,,
qou,VDACtest,76,g,false,714.7000002861023,2,g,h,5,,,
qou,VDACtest,77,g,false,763.5999999046326,1,r,v,2,,,
qou,VDACtest,78,g,null,null,2,g,v,0,,,
qou,VDACtest,79,g,true,718.5999999046326,2,g,v,2,,,
qou,VDACtest,80,g,true,540.0999999046326,2,g,v,1,,,
qou,VDACtest,81,g,true,651.7999997138977,2,g,h,1,,,
qou,VDACtest,82,g,false,497.80000019073486,2,g,h,5,,,
qou,VDACtest,83,g,true,744.8000001907349,2,g,v,3,,,
qou,VDACtest,84,g,null,null,1,r,h,0,,,
qou,VDACtest,85,g,true,631.5999999046326,2,g,h,2,,,
qou,VDACtest,86,g,true,778.8000001907349,2,g,v,4,,,
qou,VDACtest,87,g,null,null,1,r,h,5,,,
qou,VDACtest,88,g,true,790.9000000953674,1,r,h,2,,,
qou,VDACtest,89,g,true,859.8000001907349,2,g,h,4,,,
qou,VDACtest,90,g,true,969.6999998092651,1,r,h,3,,,
qou,VDACtest,91,g,true,580.4000000953674,2,g,v,4,,,
qou,VDACtest,92,g,true,634.8999996185303,1,r,v,1,,,
qou,VDACtest,93,g,true,540.5,2,g,h,2,,,
qou,VDACtest,94,g,null,null,2,g,h,5,,,
qou,VDACtest,95,g,false,661.3000001907349,1,r,h,1,,,
qou,VDACtest,96,g,true,658.4000000953674,1,r,v,0,,,
qou,VDACtest,97,g,true,707.7999997138977,1,r,v,4,,,
qou,VDACtest,98,g,true,690.8000001907349,2,g,v,0,,,
qou,VDACtest,99,g,true,539.3000001907349,2,g,v,0,,,
qou,VDACtest,100,g,true,778.7000002861023,2,g,v,2,,,
brk,brk,brk,brk,brk,brk,brk,brk,brk,brk,brk,brk,
qou,VDACtest,101,g,false,938.1999998092651,1,r,h,5,,,
qou,VDACtest,102,g,true,881.9000000953674,1,r,h,1,,,
qou,VDACtest,103,g,true,555.5999999046326,1,r,v,1,,,
qou,VDACtest,104,g,true,459.5,1,r,v,1,,,
qou,VDACtest,105,g,false,602.4000000953674,2,g,v,3,,,
qou,VDACtest,106,g,true,834,2,g,h,4,,,
qou,VDACtest,107,g,false,818,1,r,v,3,,,
qou,VDACtest,108,g,true,678.7999997138977,2,g,v,0,,,
qou,VDACtest,109,g,null,null,2,g,h,4,,,
qou,VDACtest,110,g,true,804.4000000953674,2,g,h,4,,,
qou,VDACtest,111,g,true,724.1999998092651,2,g,v,1,,,
qou,VDACtest,112,g,true,699.3000001907349,1,r,v,1,,,
qou,VDACtest,113,g,true,707.2999997138977,2,g,v,4,,,
qou,VDACtest,114,g,null,null,1,r,h,5,,,
qou,VDACtest,115,g,true,557.9000000953674,1,r,v,1,,,
qou,VDACtest,116,g,true,553.6999998092651,2,g,v,1,,,
qou,VDACtest,117,g,true,634.4000000953674,1,r,v,4,,,
qou,VDACtest,118,g,true,628.0999999046326,2,g,v,2,,,
qou,VDACtest,119,g,true,466.69999980926514,1,r,h,2,,,
qou,VDACtest,120,g,true,507.19999980926514,1,r,v,1,,,
qou,VDACtest,121,g,null,null,2,g,v,1,,,
qou,VDACtest,122,g,null,null,1,r,h,1,,,
qou,VDACtest,123,g,true,921.8000001907349,2,g,h,0,,,
qou,VDACtest,124,g,true,529.7999997138977,1,r,v,0,,,
qou,VDACtest,125,g,false,674.4000000953674,1,r,v,2,,,
qou,VDACtest,126,g,true,570.0999999046326,2,g,v,0,,,
qou,VDACtest,127,g,true,769.5,1,r,h,4,,,
qou,VDACtest,128,g,true,674,2,g,h,3,,,
qou,VDACtest,129,g,false,546.5999999046326,1,r,h,0,,,
qou,VDACtest,130,g,true,771.5999999046326,2,g,v,5,,,
qou,VDACtest,131,g,true,651.6999998092651,1,r,v,4,,,
qou,VDACtest,132,g,true,827,2,g,h,0,,,
qou,VDACtest,133,g,true,896.9000000953674,2,g,h,3,,,
qou,VDACtest,134,g,true,876,2,g,h,1,,,
qou,VDACtest,135,g,true,929.5999999046326,2,g,v,0,,,
qou,VDACtest,136,g,null,null,1,r,h,3,,,
qou,VDACtest,137,g,null,null,1,r,v,0,,,
qou,VDACtest,138,g,false,730.5999999046326,2,g,h,5,,,
qou,VDACtest,139,g,null,null,1,r,v,5,,,
qou,VDACtest,140,g,true,740.2999997138977,1,r,v,4,,,
qou,VDACtest,141,g,null,null,2,g,h,1,,,
qou,VDACtest,142,g,null,null,1,r,v,4,,,
qou,VDACtest,143,g,true,824.3000001907349,1,r,h,1,,,
qou,VDACtest,144,g,true,793,2,g,h,0,,,
qou,VDACtest,145,g,true,539.9000000953674,1,r,h,3,,,
qou,VDACtest,146,g,true,618.3999996185303,2,g,h,4,,,
qou,VDACtest,147,g,true,587.1999998092651,1,r,v,3,,,
qou,VDACtest,148,g,false,571.5,1,r,h,0,,,
qou,VDACtest,149,g,false,619.0999999046326,2,g,v,4,,,
qou,VDACtest,150,g,true,579.5,1,r,v,1,,,
brk,brk,brk,brk,brk,brk,brk,brk,brk,brk,brk,brk,
qou,VDACtest,151,g,true,996.5,2,g,v,5,,,
qou,VDACtest,152,g,true,972.0999999046326,2,g,h,1,,,
qou,VDACtest,153,g,true,763.2999997138977,2,g,v,1,,,
qou,VDACtest,154,g,true,771.2999997138977,2,g,h,2,,,
qou,VDACtest,155,g,true,627.0999999046326,2,g,h,3,,,
qou,VDACtest,156,g,true,762.0999999046326,2,g,v,1,,,
qou,VDACtest,157,g,true,812,1,r,v,5,,,
qou,VDACtest,158,g,true,756,2,g,h,4,,,
qou,VDACtest,159,g,true,691.5,1,r,v,2,,,
qou,VDACtest,160,g,true,695.6999998092651,1,r,v,5,,,
qou,VDACtest,161,g,true,699.3000001907349,1,r,v,4,,,
qou,VDACtest,162,g,null,null,1,r,h,2,,,
qou,VDACtest,163,g,true,604.5999999046326,1,r,v,5,,,
qou,VDACtest,164,g,null,null,2,g,v,5,,,
qou,VDACtest,165,g,null,null,1,r,h,4,,,
qou,VDACtest,166,g,true,808.0999999046326,2,g,h,1,,,
qou,VDACtest,167,g,true,610.0999999046326,2,g,v,4,,,
qou,VDACtest,168,g,true,783.7999997138977,1,r,h,5,,,
qou,VDACtest,169,g,false,506.59999990463257,1,r,h,5,,,
qou,VDACtest,170,g,true,578.8000001907349,1,r,v,0,,,
qou,VDACtest,171,g,true,745.3000001907349,1,r,v,3,,,
qou,VDACtest,172,g,false,665.5,2,g,h,1,,,
qou,VDACtest,173,g,null,null,1,r,v,2,,,
qou,VDACtest,174,g,null,null,2,g,v,2,,,
qou,VDACtest,175,g,true,605.5,1,r,h,5,,,
qou,VDACtest,176,g,true,658.1999998092651,2,g,v,4,,,
qou,VDACtest,177,g,false,538.7999997138977,1,r,v,3,,,
qou,VDACtest,178,g,true,539.1000003814697,1,r,h,1,,,
qou,VDACtest,179,g,true,730.9000000953674,1,r,h,4,,,
qou,VDACtest,180,g,true,666.1999998092651,2,g,h,0,,,
qou,VDACtest,181,g,true,722.5,2,g,v,3,,,
qou,VDACtest,182,g,true,651,1,r,h,1,,,
qou,VDACtest,183,g,true,569.7000002861023,1,r,v,3,,,
qou,VDACtest,184,g,true,890.3999996185303,2,g,v,1,,,
qou,VDACtest,185,g,true,897.7000002861023,2,g,h,5,,,
qou,VDACtest,186,g,null,null,2,g,v,3,,,
qou,VDACtest,187,g,true,779.1999998092651,2,g,v,3,,,
qou,VDACtest,188,g,null,null,1,r,v,4,,,
qou,VDACtest,189,g,true,828.0999999046326,1,r,h,0,,,
qou,VDACtest,190,g,true,578.0999999046326,1,r,v,0,,,
qou,VDACtest,191,g,true,618.9000000953674,1,r,v,4,,,
qou,VDACtest,192,g,true,554.2999997138977,2,g,v,4,,,
qou,VDACtest,193,g,true,546.7000002861023,2,g,h,4,,,
qou,VDACtest,194,g,false,569.6999998092651,1,r,h,1,,,
qou,VDACtest,195,g,true,698,1,r,v,0,,,
qou,VDACtest,196,g,true,535.9000000953674,1,r,v,3,,,
qou,VDACtest,197,g,true,569.6999998092651,1,r,h,2,,,
qou,VDACtest,198,g,false,604.1999998092651,2,g,h,0,,,
qou,VDACtest,199,g,true,563.3000001907349,2,g,v,3,,,
qou,VDACtest,200,g,true,704.7000002861023,1,r,h,1,,,
qou,RSVPtrain,0,g,null,null,0,b,,1,3,0,
qou,RSVPtrain,0,g,false,1690.5,1,r,,0,0,2,
qou,RSVPtrain,0,g,true,1755.3000001907349,2,g,,2,2,2,
qou,RSVPtrain,0,g,true,1114,1,r,,1,1,2,
qou,RSVPtrain,0,g,true,804.9000000953674,0,b,,3,3,0,
qou,RSVPtrain,0,g,true,2005.2000002861023,1,r,,3,2,1,
qou,RSVPtrain,0,g,true,508.09999990463257,2,g,,3,0,1,
qou,RSVPtrain,0,g,false,637.6999998092651,2,g,,1,0,1,
qou,RSVPtrain,0,g,true,698.2000002861023,2,g,,3,1,1,
qou,RSVPtrain,0,g,false,691.5,0,b,,0,3,0,
qou,RSVPtest,1,g,true,1633.4000000953674,2,g,,3,1,1,
qou,RSVPtest,2,g,true,1085.7000002861023,0,b,,1,3,0,
qou,RSVPtest,3,g,false,845.5999999046326,1,r,,0,1,1,
qou,RSVPtest,4,g,true,959,0,b,,3,3,0,
qou,RSVPtest,5,g,true,702.5,2,g,,3,1,1,
qou,RSVPtest,6,g,false,871.2000002861023,1,r,,1,0,1,
qou,RSVPtest,7,g,false,940.5999999046326,1,r,,2,1,1,
qou,RSVPtest,8,g,true,884.7999997138977,1,r,,1,1,2,
qou,RSVPtest,9,g,true,1268.7000002861023,2,g,,0,0,2,
qou,RSVPtest,10,g,false,1972.6999998092651,2,g,,3,2,1,
qou,RSVPtest,11,g,false,1699.5999999046326,1,r,,2,2,2,
qou,RSVPtest,12,g,true,372.2999997138977,2,g,,2,1,1,
qou,RSVPtest,13,g,null,null,1,r,,3,0,1,
qou,RSVPtest,14,g,false,1295.4000000953674,0,b,,3,3,0,
qou,RSVPtest,15,g,true,1379.8999996185303,2,g,,0,1,1,
qou,RSVPtest,16,g,false,1371.5999999046326,2,g,,0,2,1,
qou,RSVPtest,17,g,true,1261.6999998092651,2,g,,0,2,1,
qou,RSVPtest,18,g,null,null,2,g,,1,1,2,
qou,RSVPtest,19,g,false,1876.2000002861023,2,g,,0,1,1,
qou,RSVPtest,20,g,true,2472.8999996185303,1,r,,3,0,1,
qou,RSVPtest,21,g,null,null,2,g,,3,0,1,
qou,RSVPtest,22,g,null,null,2,g,,0,0,2,
qou,RSVPtest,23,g,null,null,1,r,,2,0,1,
qou,RSVPtest,24,g,null,null,1,r,,3,0,1,
qou,RSVPtest,25,g,null,null,2,g,,3,1,1,
attCheck,attCheck,attCheck,attCheck,attCheck,attCheck,attCheck,attCheck,attCheck,attCheck,attCheck,attCheck,
qou,RSVPtest,26,g,null,null,0,b,,2,3,0,
qou,RSVPtest,27,g,true,513,0,b,,1,3,0,
qou,RSVPtest,28,g,true,789.1999998092651,2,g,,1,1,2,
qou,RSVPtest,29,g,true,539.4000000953674,1,r,,1,1,2,
qou,RSVPtest,30,g,true,1725.2999997138977,1,r,,2,1,1,
qou,RSVPtest,31,g,true,651.7999997138977,1,r,,3,1,1,
qou,RSVPtest,32,g,true,396.90000009536743,2,g,,3,1,1,
qou,RSVPtest,33,g,false,1907.5999999046326,0,b,,1,3,0,
qou,RSVPtest,34,g,false,1114.5,1,r,,2,0,1,
qou,RSVPtest,35,g,true,781.9000000953674,0,b,,1,3,0,
qou,RSVPtest,36,g,true,1958.5,2,g,,1,1,2,
qou,RSVPtest,37,g,null,null,2,g,,2,1,1,
qou,RSVPtest,38,g,null,null,1,r,,0,2,1,
qou,RSVPtest,39,g,false,619.6000003814697,2,g,,3,2,1,
qou,RSVPtest,40,g,false,374.90000009536743,2,g,,2,1,1,
qou,RSVPtest,41,g,false,384,1,r,,2,0,1,
qou,RSVPtest,42,g,true,684.1999998092651,2,g,,2,2,2,
qou,RSVPtest,43,g,true,667.3999996185303,2,g,,2,2,2,
qou,RSVPtest,44,g,null,null,1,r,,0,0,2,
qou,RSVPtest,45,g,false,2.1999998092651367,0,b,,1,3,0,
qou,RSVPtest,46,g,true,569.4000000953674,2,g,,0,0,2,
qou,RSVPtest,47,g,true,1276.0999999046326,2,g,,3,1,1,
qou,RSVPtest,48,g,false,1125.5,1,r,,2,1,1,
qou,RSVPtest,49,g,false,1020.2999997138977,1,r,,2,2,2,
qou,RSVPtest,50,g,true,739.7999997138977,0,b,,0,3,0,
qou,RSVPtest,51,g,false,2027,2,g,,2,1,1,
qou,RSVPtest,52,g,true,619.1999998092651,0,b,,3,3,0,
qou,RSVPtest,53,g,true,653.4000000953674,2,g,,3,2,1,
qou,RSVPtest,54,g,true,325.2999997138977,1,r,,3,1,1,
qou,RSVPtest,55,g,true,307.80000019073486,1,r,,3,1,1,
qou,RSVPtest,56,g,true,468.1000003814697,1,r,,1,2,1,
qou,RSVPtest,57,g,null,null,1,r,,0,1,1,
qou,RSVPtest,58,g,true,545.2999997138977,1,r,,3,0,1,
qou,RSVPtest,59,g,true,947.2000002861023,0,b,,3,3,0,
qou,RSVPtest,60,g,null,null,2,g,,1,0,1,
brk,brk,brk,brk,brk,brk,brk,brk,brk,brk,brk,brk,
qou,RSVPtest,61,g,false,637.7000002861023,1,r,,1,2,1,
qou,RSVPtest,62,g,true,277.19999980926514,2,g,,2,0,1,
qou,RSVPtest,63,g,false,628,1,r,,3,2,1,
qou,RSVPtest,64,g,false,484.80000019073486,2,g,,3,2,1,
qou,RSVPtest,65,g,false,1659.2000002861023,1,r,,3,1,1,
qou,RSVPtest,66,g,true,2245,2,g,,3,0,1,
qou,RSVPtest,67,g,true,890.5999999046326,0,b,,3,3,0,
qou,RSVPtest,68,g,false,1179.3999996185303,2,g,,2,1,1,
qou,RSVPtest,69,g,true,739.0999999046326,0,b,,2,3,0,
qou,RSVPtest,70,g,true,1396.8999996185303,2,g,,1,2,1,
qou,RSVPtest,71,g,false,2066.0999999046326,1,r,,2,1,1,
qou,RSVPtest,72,g,null,null,0,b,,3,3,0,
qou,RSVPtest,73,g,false,708.6000003814697,0,b,,2,3,0,
qou,RSVPtest,74,g,false,986.2000002861023,0,b,,3,3,0,
qou,RSVPtest,75,g,null,null,0,b,,0,3,0,
qou,RSVPtest,76,g,true,771.0999999046326,1,r,,3,2,1,
qou,RSVPtest,77,g,true,1116.7000002861023,1,r,,3,2,1,
qou,RSVPtest,78,g,null,null,2,g,,3,0,1,
qou,RSVPtest,79,g,false,897.5999999046326,0,b,,0,3,0,
qou,RSVPtest,80,g,true,772.7000002861023,2,g,,3,0,1,
qou,RSVPtest,81,g,false,779.8999996185303,1,r,,1,2,1,
qou,RSVPtest,82,g,false,123.09999990463257,0,b,,3,3,0,
qou,RSVPtest,83,g,true,472.90000009536743,2,g,,3,1,1,
qou,RSVPtest,84,g,true,1250.2999997138977,1,r,,3,1,1,
qou,RSVPtest,85,g,true,667.7999997138977,1,r,,3,2,1,
qou,RSVPtest,86,g,true,595.9000000953674,1,r,,3,0,1,
qou,RSVPtest,87,g,false,1050.9000000953674,0,b,,2,3,0,
qou,RSVPtest,88,g,true,1912.6999998092651,1,r,,3,1,1,
qou,RSVPtest,89,g,null,null,1,r,,1,1,2,
qou,RSVPtest,90,g,null,null,1,r,,2,2,2,
qou,RSVPtest,91,g,false,1503.5,1,r,,2,2,2,
qou,RSVPtest,92,g,true,467.80000019073486,2,g,,3,2,1,
qou,RSVPtest,93,g,true,1660.0999999046326,1,r,,3,0,1,
qou,RSVPtest,94,g,null,null,1,r,,0,2,1,
qou,RSVPtest,95,g,null,null,1,r,,1,2,1,
qou,RSVPtest,96,g,null,null,2,g,,1,1,2,
qou,RSVPtest,97,g,null,null,1,r,,1,2,1,
qou,RSVPtest,98,g,false,731.5999999046326,2,g,,1,2,1,
qou,RSVPtest,99,g,null,null,2,g,,3,0,1,
qou,RSVPtest,100,g,null,null,2,g,,3,2,1,
qou,RSVPtest,101,g,false,2073,1,r,,1,0,1,
qou,RSVPtest,102,g,true,465.30000019073486,1,r,,3,2,1,
qou,RSVPtest,103,g,true,669.3000001907349,1,r,,3,1,1,
qou,RSVPtest,104,g,false,572.2999997138977,1,r,,1,1,2,
qou,RSVPtest,105,g,null,null,2,g,,1,0,1,
qou,RSVPtest,106,g,false,2209.699999809265,2,g,,0,1,1,
qou,RSVPtest,107,g,null,null,1,r,,3,2,1,
qou,RSVPtest,108,g,null,null,1,r,,2,1,1,
qou,RSVPtest,109,g,true,559.6000003814697,2,g,,3,0,1,
qou,RSVPtest,110,g,true,353.40000009536743,1,r,,3,2,1,
qou,RSVPtest,111,g,null,null,2,g,,3,0,1,
qou,RSVPtest,112,g,false,1345.0999999046326,1,r,,0,1,1,
qou,RSVPtest,113,g,true,2193.5,0,b,,3,3,0,
qou,RSVPtest,114,g,true,563.3000001907349,1,r,,3,2,1,
qou,RSVPtest,115,g,null,null,2,g,,3,2,1,
qou,RSVPtest,116,g,false,2397.0999999046326,0,b,,1,3,0,
qou,RSVPtest,117,g,false,2161.1000003814697,2,g,,1,0,1,
qou,RSVPtest,118,g,false,562.1999998092651,2,g,,3,1,1,
qou,RSVPtest,119,g,true,1204,0,b,,3,3,0,
qou,RSVPtest,120,g,true,893.0999999046326,0,b,,3,3,0,
brk,brk,brk,brk,brk,brk,brk,brk,brk,brk,brk,brk,
qou,RSVPtest,121,g,null,null,2,g,,1,0,1,
qou,RSVPtest,122,g,null,null,0,b,,3,3,0,
qou,RSVPtest,123,g,false,394.8999996185303,0,b,,0,3,0,
qou,RSVPtest,124,g,true,667.5999999046326,1,r,,3,0,1,
qou,RSVPtest,125,g,false,513.7999997138977,1,r,,0,2,1,
qou,RSVPtest,126,g,true,948.5999999046326,1,r,,3,1,1,
qou,RSVPtest,127,g,true,1043.5999999046326,1,r,,3,0,1,
qou,RSVPtest,128,g,false,554.4000000953674,1,r,,0,0,2,
qou,RSVPtest,129,g,true,1508.8000001907349,1,r,,3,2,1,
qou,RSVPtest,130,g,true,1660.8000001907349,2,g,,2,0,1,
qou,RSVPtest,131,g,true,52.19999980926514,1,r,,3,1,1,
qou,RSVPtest,132,g,false,27.799999713897705,2,g,,0,1,1,
qou,RSVPtest,133,g,false,475,2,g,,2,2,2,
qou,RSVPtest,134,g,false,627.7999997138977,0,b,,1,3,0,
qou,RSVPtest,135,g,false,914.5,1,r,,3,1,1,
qou,RSVPtest,136,g,false,1106.9000000953674,2,g,,1,2,1,
qou,RSVPtest,137,g,null,null,1,r,,0,0,2,
qou,RSVPtest,138,g,null,null,1,r,,1,1,2,
qou,RSVPtest,139,g,null,null,2,g,,3,0,1,
qou,RSVPtest,140,g,true,419.7999997138977,1,r,,3,2,1,
qou,RSVPtest,141,g,false,435.09999990463257,0,b,,1,3,0,
qou,RSVPtest,142,g,false,1300.0999999046326,0,b,,0,3,0,
qou,RSVPtest,143,g,false,371.19999980926514,2,g,,1,2,1,
qou,RSVPtest,144,g,false,1906.1999998092651,0,b,,2,3,0,
qou,RSVPtest,145,g,false,690.2000002861023,1,r,,2,0,1,
qou,RSVPtest,146,g,false,916.0999999046326,1,r,,1,0,1,
qou,RSVPtest,147,g,true,1009.8000001907349,2,g,,3,2,1,
qou,RSVPtest,148,g,true,1547.2999997138977,2,g,,1,1,2,
qou,RSVPtest,149,g,true,1281.7000002861023,0,b,,3,3,0,
qou,RSVPtest,150,g,true,1410.8000001907349,0,b,,0,3,0,
qou,RSVPtest,151,g,true,916.6999998092651,2,g,,2,2,2,
qou,RSVPtest,152,g,false,1241.9000000953674,0,b,,0,3,0,
qou,RSVPtest,153,g,false,985.3000001907349,1,r,,0,2,1,
qou,RSVPtest,154,g,false,673.5999999046326,2,g,,2,2,2,
qou,RSVPtest,155,g,false,1515.5999999046326,1,r,,1,0,1,
qou,RSVPtest,156,g,false,496.59999990463257,2,g,,0,2,1,
qou,RSVPtest,157,g,true,1313,0,b,,3,3,0,
qou,RSVPtest,158,g,true,705.3000001907349,0,b,,3,3,0,
qou,RSVPtest,159,g,true,1580.5,2,g,,0,0,2,
qou,RSVPtest,160,g,true,946.5999999046326,0,b,,0,3,0,
qou,RSVPtest,161,g,null,null,1,r,,0,0,2,
qou,RSVPtest,162,g,null,null,1,r,,2,2,2,
qou,RSVPtest,163,g,null,null,1,r,,3,1,1,
qou,RSVPtest,164,g,null,null,0,b,,3,3,0,
qou,RSVPtest,165,g,false,629.0999999046326,2,g,,0,1,1,
qou,RSVPtest,166,g,true,768.8999996185303,0,b,,2,3,0,
qou,RSVPtest,167,g,false,1188.3000001907349,2,g,,1,0,1,
qou,RSVPtest,168,g,null,null,0,b,,2,3,0,
qou,RSVPtest,169,g,null,null,2,g,,3,2,1,
qou,RSVPtest,170,g,null,null,1,r,,0,0,2,
qou,RSVPtest,171,g,true,987.4000000953674,0,b,,1,3,0,
qou,RSVPtest,172,g,null,null,1,r,,0,2,1,
qou,RSVPtest,173,g,null,null,2,g,,1,1,2,
qou,RSVPtest,174,g,null,null,1,r,,1,0,1,
qou,RSVPtest,175,g,null,null,1,r,,3,0,1,
qou,RSVPtest,176,g,false,268.2999997138977,0,b,,1,3,0,
qou,RSVPtest,177,g,false,1040.0999999046326,0,b,,3,3,0,
qou,RSVPtest,178,g,false,528.4000000953674,1,r,,3,2,1,
qou,RSVPtest,179,g,false,1131.4000000953674,2,g,,2,0,1,
qou,RSVPtest,180,g,null,null,0,b,,2,3,0,
brk,brk,brk,brk,brk,brk,brk,brk,brk,brk,brk,brk,
qou,RSVPtest,181,g,null,null,2,g,,0,1,1,
qou,RSVPtest,182,g,true,1737.4000000953674,0,b,,1,3,0,
qou,RSVPtest,183,g,true,801.0999999046326,0,b,,2,3,0,
qou,RSVPtest,184,g,false,1361.7999997138977,2,g,,2,1,1,
qou,RSVPtest,185,g,true,1330.0999999046326,1,r,,3,1,1,
qou,RSVPtest,186,g,false,736.8000001907349,1,r,,3,2,1,
qou,RSVPtest,187,g,false,993.1000003814697,0,b,,0,3,0,
qou,RSVPtest,188,g,true,1361.6000003814697,1,r,,2,2,2,
qou,RSVPtest,189,g,true,923.1999998092651,0,b,,2,3,0,
qou,RSVPtest,190,g,false,1171.1000003814697,2,g,,3,1,1,
qou,RSVPtest,191,g,true,578.8000001907349,2,g,,3,0,1,
qou,RSVPtest,192,g,true,1394.1999998092651,1,r,,0,1,1,
qou,RSVPtest,193,g,true,835,1,r,,3,0,1,
qou,RSVPtest,194,g,true,1056.9000000953674,2,g,,3,0,1,
qou,RSVPtest,195,g,true,828.5,1,r,,2,1,1,
qou,RSVPtest,196,g,false,985.4000000953674,2,g,,1,2,1,
qou,RSVPtest,197,g,true,699.4000000953674,2,g,,3,1,1,
qou,RSVPtest,198,g,false,623.5999999046326,2,g,,1,2,1,
qou,RSVPtest,199,g,false,1320.4000000953674,0,b,,3,3,0,
qou,RSVPtest,200,g,true,936.7999997138977,0,b,,3,3,0,
qou,RSVPtest,201,g,true,809.8999996185303,2,g,,2,2,2,
qou,RSVPtest,202,g,true,1001,1,r,,3,0,1,
qou,RSVPtest,203,g,true,1538.3999996185303,1,r,,2,0,1,
qou,RSVPtest,204,g,true,647.7000002861023,0,b,,0,3,0,
qou,RSVPtest,205,g,true,697.8000001907349,0,b,,2,3,0,
qou,RSVPtest,206,g,true,768.5,1,r,,1,0,1,
qou,RSVPtest,207,g,true,874.8000001907349,0,b,,3,3,0,
qou,RSVPtest,208,g,false,959.5999999046326,2,g,,2,0,1,
qou,RSVPtest,209,g,true,689,2,g,,0,0,2,
qou,RSVPtest,210,g,true,1184.5999999046326,0,b,,1,3,0,
qou,RSVPtest,211,g,null,null,0,b,,3,3,0,
qou,RSVPtest,212,g,true,1211.2999997138977,2,g,,3,0,1,
qou,RSVPtest,213,g,false,774.5,2,g,,0,2,1,
qou,RSVPtest,214,g,true,841.5,1,r,,0,1,1,
qou,RSVPtest,215,g,true,1544.3000001907349,1,r,,0,0,2,
qou,RSVPtest,216,g,true,944.5,1,r,,3,0,1,
qou,RSVPtest,217,g,false,2024.5,2,g,,3,1,1,
qou,RSVPtest,218,g,null,null,1,r,,0,2,1,
qou,RSVPtest,219,g,true,1004.5999999046326,2,g,,3,1,1,
qou,RSVPtest,220,g,true,982.2000002861023,1,r,,1,2,1,
qou,RSVPtest,221,g,false,1123,2,g,,0,2,1,
qou,RSVPtest,222,g,false,817.1999998092651,0,b,,2,3,0,
qou,RSVPtest,223,g,true,1794.9000000953674,0,b,,0,3,0,
qou,RSVPtest,224,g,null,null,2,g,,2,0,1,
qou,RSVPtest,225,g,null,null,2,g,,3,1,1,
qou,RSVPtest,226,g,false,928.5,0,b,,3,3,0,
qou,RSVPtest,227,g,true,947,2,g,,2,0,1,
qou,RSVPtest,228,g,true,611.2000002861023,1,r,,1,1,2,
qou,RSVPtest,229,g,false,610.2999997138977,2,g,,3,2,1,
qou,RSVPtest,230,g,false,874.3000001907349,1,r,,0,1,1,
qou,RSVPtest,231,g,true,547.1999998092651,2,g,,1,0,1,
qou,RSVPtest,232,g,true,1098,2,g,,3,2,1,
qou,RSVPtest,233,g,true,1064.5,0,b,,0,3,0,
qou,RSVPtest,234,g,false,1859,2,g,,0,0,2,
qou,RSVPtest,235,g,true,2094.4000000953674,2,g,,3,0,1,
qou,RSVPtest,236,g,null,null,2,g,,0,2,1,
qou,RSVPtest,237,g,null,null,1,r,,2,0,1,
qou,RSVPtest,238,g,true,1070.4000000953674,0,b,,3,3,0,
qou,RSVPtest,239,g,true,1178.5999999046326,0,b,,3,3,0,
qou,RSVPtest,240,g,true,976.5,2,g,,3,2,1,
