subID,trialType,trialNum,cntBalance,correct,rt,rwdType,tgtCol,tgtDir,tgtPos,colPos,colMatch,
xqo,VDACtrain,0,g,null,null,1,r,h,0,,,
xqo,VDACtrain,0,g,null,null,1,r,h,2,,,
xqo,VDACtrain,0,g,true,940.2999999523163,2,g,v,0,,,
xqo,VDACtrain,0,g,null,null,2,g,v,5,,,
xqo,VDACtrain,0,g,true,670.2000000476837,2,g,h,3,,,
xqo,VDACtrain,0,g,null,null,2,g,h,5,,,
xqo,VDACtrain,0,g,true,630.1000001430511,1,r,h,1,,,
xqo,VDACtrain,0,g,null,null,1,r,v,3,,,
xqo,VDACtrain,0,g,null,null,2,g,v,2,,,
xqo,VDACtrain,0,g,true,715.2999999523163,1,r,v,4,,,
xqo,VDACtest,1,g,true,664.4000000953674,2,g,v,2,,,
xqo,VDACtest,2,g,true,704.5,1,r,h,2,,,
xqo,VDACtest,3,g,true,592.2000000476837,2,g,v,4,,,
xqo,VDACtest,4,g,true,814.6999998092651,2,g,h,5,,,
xqo,VDACtest,5,g,null,null,2,g,h,4,,,
xqo,VDACtest,6,g,null,null,1,r,v,3,,,
xqo,VDACtest,7,g,false,958.5999999046326,2,g,v,2,,,
xqo,VDACtest,8,g,true,861.3000001907349,2,g,v,5,,,
xqo,VDACtest,9,g,null,null,1,r,h,1,,,
xqo,VDACtest,10,g,false,791.7999999523163,2,g,h,3,,,
xqo,VDACtest,11,g,true,725.6000001430511,2,g,h,4,,,
xqo,VDACtest,12,g,true,697.7999999523163,1,r,v,2,,,
xqo,VDACtest,13,g,true,609.1999998092651,2,g,h,4,,,
xqo,VDACtest,14,g,true,702.8000001907349,2,g,v,1,,,
xqo,VDACtest,15,g,true,738.2999999523163,1,r,h,3,,,
xqo,VDACtest,16,g,false,863.6999998092651,2,g,v,3,,,
xqo,VDACtest,17,g,true,936.2999999523163,2,g,h,5,,,
xqo,VDACtest,18,g,true,863.7999999523163,2,g,h,2,,,
xqo,VDACtest,19,g,true,509.90000009536743,2,g,v,3,,,
xqo,VDACtest,20,g,true,960.1000001430511,1,r,h,4,,,
xqo,VDACtest,21,g,null,null,1,r,h,5,,,
xqo,VDACtest,22,g,true,609,1,r,h,3,,,
xqo,VDACtest,23,g,true,807.6999998092651,1,r,h,3,,,
xqo,VDACtest,24,g,null,null,1,r,h,2,,,
xqo,VDACtest,25,g,true,607.4000000953674,2,g,h,2,,,
xqo,VDACtest,26,g,true,982.8999998569489,1,r,v,5,,,
xqo,VDACtest,27,g,false,641.2000000476837,2,g,h,0,,,
xqo,VDACtest,28,g,null,null,1,r,v,3,,,
xqo,VDACtest,29,g,true,869.4000000953674,2,g,h,0,,,
xqo,VDACtest,30,g,true,801.9000000953674,2,g,v,1,,,
xqo,VDACtest,31,g,true,929.1000001430511,1,r,h,4,,,
xqo,VDACtest,32,g,true,793.7000000476837,1,r,h,3,,,
xqo,VDACtest,33,g,true,615.3000001907349,2,g,v,5,,,
xqo,VDACtest,34,g,true,865.7999999523163,2,g,h,0,,,
xqo,VDACtest,35,g,true,551.8000001907349,1,r,v,5,,,
xqo,VDACtest,36,g,true,744.2999999523163,2,g,h,3,,,
xqo,VDACtest,37,g,true,888.6000001430511,1,r,v,0,,,
xqo,VDACtest,38,g,true,905.2000000476837,1,r,v,1,,,
xqo,VDACtest,39,g,true,959.5999999046326,1,r,h,3,,,
xqo,VDACtest,40,g,true,823.6999998092651,1,r,v,1,,,
xqo,VDACtest,41,g,false,888,1,r,v,2,,,
xqo,VDACtest,42,g,null,null,2,g,h,4,,,
xqo,VDACtest,43,g,true,769.0999999046326,2,g,v,1,,,
xqo,VDACtest,44,g,false,848.5,2,g,v,3,,,
xqo,VDACtest,45,g,null,null,1,r,h,2,,,
xqo,VDACtest,46,g,true,805.9000000953674,1,r,v,5,,,
xqo,VDACtest,47,g,false,871.7999999523163,1,r,v,1,,,
xqo,VDACtest,48,g,true,961.0999999046326,2,g,h,0,,,
xqo,VDACtest,49,g,true,561.0999999046326,2,g,h,3,,,
xqo,VDACtest,50,g,true,951.5,1,r,h,1,,,
brk,brk,brk,brk,brk,brk,brk,brk,brk,brk,brk,brk,
xqo,VDACtest,51,g,true,813,2,g,h,2,,,
xqo,VDACtest,52,g,true,935.1000001430511,2,g,h,1,,,
xqo,VDACtest,53,g,true,694.7999999523163,1,r,v,0,,,
xqo,VDACtest,54,g,false,769,1,r,h,4,,,
xqo,VDACtest,55,g,null,null,1,r,v,0,,,
xqo,VDACtest,56,g,true,845.5999999046326,1,r,h,5,,,
xqo,VDACtest,57,g,true,695.9000000953674,2,g,h,4,,,
xqo,VDACtest,58,g,true,623.9000000953674,1,r,v,4,,,
xqo,VDACtest,59,g,true,726.7999999523163,1,r,v,3,,,
xqo,VDACtest,60,g,null,null,2,g,h,1,,,
xqo,VDACtest,61,g,true,766.1999998092651,1,r,v,2,,,
xqo,VDACtest,62,g,true,704,1,r,v,1,,,
xqo,VDACtest,63,g,true,704.3000001907349,2,g,v,5,,,
xqo,VDACtest,64,g,true,694.2000000476837,1,r,h,5,,,
xqo,VDACtest,65,g,true,696.2999999523163,2,g,v,1,,,
xqo,VDACtest,66,g,null,null,2,g,v,3,,,
xqo,VDACtest,67,g,true,820.4000000953674,2,g,v,4,,,
xqo,VDACtest,68,g,true,975.5999999046326,1,r,v,1,,,
xqo,VDACtest,69,g,null,null,1,r,v,5,,,
xqo,VDACtest,70,g,true,757,1,r,v,5,,,
xqo,VDACtest,71,g,true,647.2000000476837,1,r,h,1,,,
xqo,VDACtest,72,g,true,736.6000001430511,1,r,h,0,,,
xqo,VDACtest,73,g,true,782.7000000476837,2,g,v,2,,,
xqo,VDACtest,74,g,true,759.4000000953674,1,r,h,1,,,
xqo,VDACtest,75,g,true,621.0999999046326,1,r,v,2,,,
xqo,VDACtest,76,g,null,null,1,r,h,5,,,
xqo,VDACtest,77,g,true,750.5,2,g,v,5,,,
xqo,VDACtest,78,g,null,null,1,r,v,2,,,
xqo,VDACtest,79,g,true,664.5999999046326,1,r,h,0,,,
xqo,VDACtest,80,g,true,695.5,2,g,v,3,,,
xqo,VDACtest,81,g,true,736.9000000953674,2,g,h,5,,,
xqo,VDACtest,82,g,true,870.5,1,r,v,4,,,
xqo,VDACtest,83,g,true,720.7000000476837,1,r,v,4,,,
xqo,VDACtest,84,g,true,784.6000001430511,1,r,v,0,,,
xqo,VDACtest,85,g,true,960.1999998092651,2,g,h,5,,,
xqo,VDACtest,86,g,true,855.8999998569489,2,g,h,4,,,
xqo,VDACtest,87,g,true,606.5999999046326,2,g,v,4,,,
xqo,VDACtest,88,g,true,861.7999999523163,2,g,h,3,,,
xqo,VDACtest,89,g,true,615.5,2,g,v,1,,,
xqo,VDACtest,90,g,true,720.8999998569489,2,g,v,2,,,
xqo,VDACtest,91,g,true,743.7000000476837,2,g,h,1,,,
xqo,VDACtest,92,g,true,624.2000000476837,1,r,h,2,,,
xqo,VDACtest,93,g,true,599.5999999046326,2,g,h,2,,,
xqo,VDACtest,94,g,true,823.7000000476837,2,g,h,1,,,
xqo,VDACtest,95,g,true,711.5,2,g,v,4,,,
xqo,VDACtest,96,g,true,672.0999999046326,2,g,h,1,,,
xqo,VDACtest,97,g,false,856,1,r,v,0,,,
xqo,VDACtest,98,g,true,767.8999998569489,2,g,h,1,,,
xqo,VDACtest,99,g,true,751.5999999046326,1,r,h,2,,,
xqo,VDACtest,100,g,null,null,1,r,h,2,,,
brk,brk,brk,brk,brk,brk,brk,brk,brk,brk,brk,brk,
xqo,VDACtest,101,g,true,916.8999998569489,1,r,v,5,,,
xqo,VDACtest,102,g,true,820.5999999046326,1,r,v,5,,,
xqo,VDACtest,103,g,null,null,1,r,v,3,,,
xqo,VDACtest,104,g,false,880.5,1,r,h,5,,,
xqo,VDACtest,105,g,true,728.5,2,g,h,2,,,
xqo,VDACtest,106,g,true,671,1,r,h,0,,,
xqo,VDACtest,107,g,true,599.2999999523163,1,r,v,1,,,
xqo,VDACtest,108,g,true,616.2000000476837,2,g,v,4,,,
xqo,VDACtest,109,g,true,975.7000000476837,2,g,v,4,,,
xqo,VDACtest,110,g,true,687.6000001430511,1,r,h,0,,,
xqo,VDACtest,111,g,true,544.7999999523163,1,r,h,1,,,
xqo,VDACtest,112,g,true,816.2000000476837,1,r,v,3,,,
xqo,VDACtest,113,g,true,704,1,r,v,4,,,
xqo,VDACtest,114,g,true,793.2000000476837,2,g,h,0,,,
xqo,VDACtest,115,g,true,855,2,g,v,1,,,
xqo,VDACtest,116,g,true,680.2000000476837,2,g,v,4,,,
xqo,VDACtest,117,g,true,545.0999999046326,2,g,v,0,,,
xqo,VDACtest,118,g,null,null,1,r,v,4,,,
xqo,VDACtest,119,g,true,825.7000000476837,1,r,h,3,,,
xqo,VDACtest,120,g,null,null,1,r,v,2,,,
xqo,VDACtest,121,g,true,703,2,g,h,3,,,
xqo,VDACtest,122,g,true,992.9000000953674,2,g,h,3,,,
xqo,VDACtest,123,g,true,511.40000009536743,2,g,v,0,,,
xqo,VDACtest,124,g,true,447.40000009536743,2,g,v,3,,,
xqo,VDACtest,125,g,true,881.0999999046326,1,r,h,5,,,
xqo,VDACtest,126,g,true,573.5,1,r,h,5,,,
xqo,VDACtest,127,g,false,711.2000000476837,2,g,h,1,,,
xqo,VDACtest,128,g,true,792.8000001907349,1,r,h,2,,,
xqo,VDACtest,129,g,true,702.0999999046326,2,g,v,1,,,
xqo,VDACtest,130,g,true,648.9000000953674,1,r,v,0,,,
xqo,VDACtest,131,g,true,624.5999999046326,2,g,h,2,,,
xqo,VDACtest,132,g,true,630.5,2,g,v,2,,,
xqo,VDACtest,133,g,false,743.9000000953674,2,g,v,0,,,
xqo,VDACtest,134,g,true,641.0999999046326,2,g,v,5,,,
xqo,VDACtest,135,g,true,935.6000001430511,1,r,v,4,,,
xqo,VDACtest,136,g,true,633,2,g,v,1,,,
xqo,VDACtest,137,g,true,607.8999998569489,2,g,h,2,,,
xqo,VDACtest,138,g,true,831.0999999046326,1,r,h,0,,,
xqo,VDACtest,139,g,true,535.5,2,g,h,0,,,
xqo,VDACtest,140,g,true,566.8999998569489,2,g,h,5,,,
xqo,VDACtest,141,g,true,615.5999999046326,1,r,h,2,,,
xqo,VDACtest,142,g,true,944,1,r,h,5,,,
xqo,VDACtest,143,g,true,502.90000009536743,2,g,h,5,,,
xqo,VDACtest,144,g,true,493.90000009536743,2,g,v,0,,,
xqo,VDACtest,145,g,true,711.8999998569489,2,g,v,1,,,
xqo,VDACtest,146,g,true,750.8000001907349,1,r,v,1,,,
xqo,VDACtest,147,g,true,533.5,1,r,v,1,,,
xqo,VDACtest,148,g,true,583.5999999046326,2,g,v,4,,,
xqo,VDACtest,149,g,false,584.2000000476837,2,g,v,2,,,
xqo,VDACtest,150,g,false,734.0999999046326,1,r,h,0,,,
brk,brk,brk,brk,brk,brk,brk,brk,brk,brk,brk,brk,
xqo,VDACtest,151,g,null,null,2,g,v,0,,,
xqo,VDACtest,152,g,true,826.0999999046326,2,g,h,0,,,
xqo,VDACtest,153,g,true,565.8999998569489,2,g,v,2,,,
xqo,VDACtest,154,g,true,654.6999998092651,2,g,h,0,,,
xqo,VDACtest,155,g,true,705.5,2,g,h,1,,,
xqo,VDACtest,156,g,true,671.9000000953674,1,r,v,4,,,
xqo,VDACtest,157,g,true,551.9000000953674,2,g,v,4,,,
xqo,VDACtest,158,g,true,567.2999999523163,1,r,v,4,,,
xqo,VDACtest,159,g,true,696.2000000476837,1,r,v,3,,,
xqo,VDACtest,160,g,true,758.4000000953674,1,r,h,1,,,
xqo,VDACtest,161,g,true,559,1,r,v,4,,,
xqo,VDACtest,162,g,true,616.5,1,r,v,1,,,
xqo,VDACtest,163,g,true,527.4000000953674,1,r,h,3,,,
xqo,VDACtest,164,g,true,727.2000000476837,2,g,h,4,,,
xqo,VDACtest,165,g,true,807.3000001907349,1,r,v,3,,,
xqo,VDACtest,166,g,true,607,1,r,h,1,,,
xqo,VDACtest,167,g,true,647.0999999046326,1,r,h,4,,,
xqo,VDACtest,168,g,true,590.3999998569489,2,g,h,3,,,
xqo,VDACtest,169,g,true,631.5,1,r,h,1,,,
xqo,VDACtest,170,g,true,624.2999999523163,1,r,v,2,,,
xqo,VDACtest,171,g,true,702.6000001430511,2,g,h,4,,,
xqo,VDACtest,172,g,true,704.0999999046326,2,g,h,4,,,
xqo,VDACtest,173,g,true,656.5999999046326,1,r,h,4,,,
xqo,VDACtest,174,g,true,607.5999999046326,1,r,h,4,,,
xqo,VDACtest,175,g,true,536,1,r,h,4,,,
xqo,VDACtest,176,g,false,765,2,g,h,2,,,
xqo,VDACtest,177,g,true,792.4000000953674,1,r,h,0,,,
xqo,VDACtest,178,g,null,null,2,g,v,5,,,
xqo,VDACtest,179,g,true,694,1,r,h,3,,,
xqo,VDACtest,180,g,false,742.4000000953674,2,g,h,5,,,
xqo,VDACtest,181,g,null,null,2,g,v,0,,,
xqo,VDACtest,182,g,true,568.2000000476837,1,r,h,4,,,
xqo,VDACtest,183,g,false,775.5,1,r,h,4,,,
xqo,VDACtest,184,g,true,863.0999999046326,2,g,v,5,,,
xqo,VDACtest,185,g,true,592.7000000476837,2,g,h,1,,,
xqo,VDACtest,186,g,true,662.5,2,g,h,3,,,
xqo,VDACtest,187,g,true,614.8000001907349,2,g,v,3,,,
xqo,VDACtest,188,g,true,663.8999998569489,2,g,v,0,,,
xqo,VDACtest,189,g,true,624.5999999046326,2,g,v,5,,,
xqo,VDACtest,190,g,false,918.6000001430511,1,r,v,2,,,
xqo,VDACtest,191,g,true,495.7999999523163,2,g,v,0,,,
xqo,VDACtest,192,g,true,807.3000001907349,2,g,h,5,,,
xqo,VDACtest,193,g,true,558.2000000476837,1,r,v,0,,,
xqo,VDACtest,194,g,true,494.59999990463257,2,g,v,3,,,
xqo,VDACtest,195,g,true,622.7000000476837,1,r,h,0,,,
xqo,VDACtest,196,g,true,534.7999999523163,1,r,v,0,,,
xqo,VDACtest,197,g,true,736.0999999046326,1,r,v,3,,,
xqo,VDACtest,198,g,true,760.4000000953674,1,r,h,1,,,
xqo,VDACtest,199,g,true,631.6000001430511,2,g,v,2,,,
xqo,VDACtest,200,g,true,599,1,r,v,5,,,
xqo,RSVPtrain,0,g,null,null,1,r,,3,2,1,
xqo,RSVPtrain,0,g,false,1914.3000001907349,2,g,,2,2,2,
xqo,RSVPtrain,0,g,true,1521.3999998569489,2,g,,1,0,1,
xqo,RSVPtrain,0,g,false,706.8999998569489,1,r,,1,1,2,
xqo,RSVPtrain,0,g,true,731,2,g,,3,1,1,
xqo,RSVPtrain,0,g,true,907.2999999523163,2,g,,3,0,1,
xqo,RSVPtrain,0,g,false,728.9000000953674,1,r,,0,0,2,
xqo,RSVPtrain,0,g,false,803.4000000953674,0,b,,0,3,0,
xqo,RSVPtrain,0,g,true,1092,0,b,,1,3,0,
xqo,RSVPtrain,0,g,true,669.4000000953674,0,b,,3,3,0,
xqo,RSVPtest,1,g,null,null,2,g,,1,0,1,
xqo,RSVPtest,2,g,false,1424.0999999046326,1,r,,1,1,2,
xqo,RSVPtest,3,g,true,850.7999999523163,1,r,,3,1,1,
xqo,RSVPtest,4,g,false,1051.5,1,r,,0,2,1,
xqo,RSVPtest,5,g,true,1073.2999999523163,0,b,,2,3,0,
xqo,RSVPtest,6,g,true,1106.6000001430511,0,b,,2,3,0,
xqo,RSVPtest,7,g,false,523.3999998569489,1,r,,0,2,1,
xqo,RSVPtest,8,g,false,1050.3999998569489,2,g,,3,1,1,
xqo,RSVPtest,9,g,true,1264.3000001907349,0,b,,0,3,0,
xqo,RSVPtest,10,g,true,1067,2,g,,3,1,1,
xqo,RSVPtest,11,g,true,825,1,r,,3,2,1,
xqo,RSVPtest,12,g,true,514.4000000953674,2,g,,2,2,2,
xqo,RSVPtest,13,g,true,739.2000000476837,2,g,,3,2,1,
xqo,RSVPtest,14,g,true,423.7999999523163,2,g,,0,0,2,
xqo,RSVPtest,15,g,true,515.5999999046326,1,r,,3,1,1,
xqo,RSVPtest,16,g,true,2419.5,1,r,,3,1,1,
xqo,RSVPtest,17,g,true,520.7000000476837,2,g,,0,1,1,
xqo,RSVPtest,18,g,false,777.5,2,g,,0,2,1,
xqo,RSVPtest,19,g,false,571.4000000953674,0,b,,3,3,0,
xqo,RSVPtest,20,g,true,499.2000000476837,0,b,,1,3,0,
xqo,RSVPtest,21,g,true,937.7000000476837,0,b,,3,3,0,
xqo,RSVPtest,22,g,true,929.9000000953674,1,r,,1,0,1,
xqo,RSVPtest,23,g,true,808.7000000476837,2,g,,1,2,1,
xqo,RSVPtest,24,g,false,963.2000000476837,1,r,,0,0,2,
xqo,RSVPtest,25,g,false,776.4000000953674,2,g,,2,0,1,
xqo,RSVPtest,26,g,true,618.2999999523163,0,b,,3,3,0,
xqo,RSVPtest,27,g,true,610.7000000476837,1,r,,3,1,1,
xqo,RSVPtest,28,g,true,476.5,2,g,,2,0,1,
xqo,RSVPtest,29,g,false,690.4000000953674,0,b,,1,3,0,
xqo,RSVPtest,30,g,false,1348.5,2,g,,2,0,1,
xqo,RSVPtest,31,g,false,521.9000000953674,2,g,,0,1,1,
xqo,RSVPtest,32,g,false,633.3999998569489,2,g,,0,0,2,
xqo,RSVPtest,33,g,true,1693.2000000476837,2,g,,2,2,2,
xqo,RSVPtest,34,g,true,784.9000000953674,2,g,,3,1,1,
xqo,RSVPtest,35,g,false,443.89999985694885,2,g,,0,0,2,
xqo,RSVPtest,36,g,true,452,2,g,,2,2,2,
xqo,RSVPtest,37,g,true,567.5999999046326,1,r,,3,1,1,
xqo,RSVPtest,38,g,true,815.7999999523163,0,b,,3,3,0,
xqo,RSVPtest,39,g,false,520.7999999523163,1,r,,1,0,1,
xqo,RSVPtest,40,g,true,719.7000000476837,2,g,,3,1,1,
xqo,RSVPtest,41,g,true,729.1999998092651,1,r,,3,2,1,
xqo,RSVPtest,42,g,false,545.6999998092651,2,g,,2,1,1,
xqo,RSVPtest,43,g,false,505.90000009536743,2,g,,1,2,1,
xqo,RSVPtest,44,g,false,585.9000000953674,2,g,,1,2,1,
xqo,RSVPtest,45,g,true,536,1,r,,3,2,1,
xqo,RSVPtest,46,g,true,547.1999998092651,1,r,,3,0,1,
xqo,RSVPtest,47,g,false,561.8000001907349,0,b,,2,3,0,
xqo,RSVPtest,48,g,true,544.9000000953674,2,g,,3,0,1,
xqo,RSVPtest,49,g,false,670.8999998569489,0,b,,1,3,0,
xqo,RSVPtest,50,g,true,434.7999999523163,2,g,,0,0,2,
xqo,RSVPtest,51,g,false,609.8999998569489,2,g,,0,2,1,
xqo,RSVPtest,52,g,true,560.2000000476837,1,r,,2,2,2,
xqo,RSVPtest,53,g,true,633.0999999046326,1,r,,1,0,1,
xqo,RSVPtest,54,g,true,561.7000000476837,0,b,,2,3,0,
xqo,RSVPtest,55,g,true,425.7000000476837,1,r,,0,1,1,
xqo,RSVPtest,56,g,true,672.0999999046326,1,r,,3,0,1,
xqo,RSVPtest,57,g,false,673.2999999523163,1,r,,3,2,1,
xqo,RSVPtest,58,g,false,720.9000000953674,2,g,,2,1,1,
xqo,RSVPtest,59,g,true,727.3000001907349,2,g,,2,1,1,
xqo,RSVPtest,60,g,false,699.5999999046326,0,b,,2,3,0,
brk,brk,brk,brk,brk,brk,brk,brk,brk,brk,brk,brk,
xqo,RSVPtest,61,g,false,637.5,2,g,,2,0,1,
xqo,RSVPtest,62,g,true,776.7000000476837,2,g,,2,2,2,
xqo,RSVPtest,63,g,true,592.7000000476837,1,r,,3,1,1,
xqo,RSVPtest,64,g,true,777.7999999523163,2,g,,2,1,1,
xqo,RSVPtest,65,g,true,642.0999999046326,1,r,,1,0,1,
xqo,RSVPtest,66,g,true,503.7999999523163,1,r,,2,2,2,
xqo,RSVPtest,67,g,true,681.0999999046326,2,g,,3,1,1,
xqo,RSVPtest,68,g,true,706.0999999046326,1,r,,0,2,1,
xqo,RSVPtest,69,g,false,785.3999998569489,1,r,,2,0,1,
xqo,RSVPtest,70,g,true,590.2999999523163,1,r,,3,0,1,
xqo,RSVPtest,71,g,false,938.6999998092651,0,b,,0,3,0,
xqo,RSVPtest,72,g,true,496.60000014305115,1,r,,1,1,2,
xqo,RSVPtest,73,g,true,573.6000001430511,1,r,,3,1,1,
xqo,RSVPtest,74,g,true,801.0999999046326,2,g,,3,2,1,
xqo,RSVPtest,75,g,true,738.1999998092651,2,g,,3,0,1,
xqo,RSVPtest,76,g,true,560.9000000953674,0,b,,1,3,0,
xqo,RSVPtest,77,g,false,672.4000000953674,1,r,,2,1,1,
xqo,RSVPtest,78,g,true,569.8000001907349,1,r,,2,0,1,
xqo,RSVPtest,79,g,true,614.5999999046326,1,r,,3,0,1,
xqo,RSVPtest,80,g,true,772,0,b,,2,3,0,
xqo,RSVPtest,81,g,true,633.3000001907349,0,b,,3,3,0,
xqo,RSVPtest,82,g,true,497.69999980926514,2,g,,3,0,1,
xqo,RSVPtest,83,g,true,663.8000001907349,2,g,,1,2,1,
xqo,RSVPtest,84,g,true,879.4000000953674,1,r,,1,0,1,
xqo,RSVPtest,85,g,true,664.4000000953674,1,r,,0,0,2,
xqo,RSVPtest,86,g,true,608.1000001430511,1,r,,3,2,1,
xqo,RSVPtest,87,g,false,833.5999999046326,2,g,,0,1,1,
xqo,RSVPtest,88,g,false,800.3000001907349,0,b,,3,3,0,
xqo,RSVPtest,89,g,true,663.5,1,r,,3,0,1,
xqo,RSVPtest,90,g,true,680.6000001430511,1,r,,3,0,1,
xqo,RSVPtest,91,g,false,606,2,g,,0,1,1,
xqo,RSVPtest,92,g,true,712.8000001907349,0,b,,1,3,0,
xqo,RSVPtest,93,g,true,833.7000000476837,1,r,,3,1,1,
xqo,RSVPtest,94,g,false,599.2999999523163,2,g,,3,2,1,
xqo,RSVPtest,95,g,true,817.8000001907349,0,b,,3,3,0,
xqo,RSVPtest,96,g,false,698.4000000953674,2,g,,3,0,1,
xqo,RSVPtest,97,g,true,929.7000000476837,1,r,,0,0,2,
xqo,RSVPtest,98,g,false,684.0999999046326,0,b,,2,3,0,
xqo,RSVPtest,99,g,true,680.8000001907349,0,b,,3,3,0,
xqo,RSVPtest,100,g,true,830,1,r,,2,0,1,
xqo,RSVPtest,101,g,true,586,0,b,,0,3,0,
xqo,RSVPtest,102,g,true,592.7999999523163,2,g,,3,2,1,
xqo,RSVPtest,103,g,true,703.7000000476837,2,g,,3,1,1,
xqo,RSVPtest,104,g,true,799.9000000953674,2,g,,3,1,1,
xqo,RSVPtest,105,g,true,801,1,r,,0,2,1,
xqo,RSVPtest,106,g,false,1135,2,g,,1,0,1,
xqo,RSVPtest,107,g,true,528.0999999046326,2,g,,3,2,1,
xqo,RSVPtest,108,g,true,592.6000001430511,1,r,,3,0,1,
xqo,RSVPtest,109,g,false,607.8999998569489,0,b,,3,3,0,
xqo,RSVPtest,110,g,true,518.5999999046326,2,g,,1,1,2,
xqo,RSVPtest,111,g,true,686.8999998569489,1,r,,0,1,1,
xqo,RSVPtest,112,g,true,585.7999999523163,0,b,,3,3,0,
xqo,RSVPtest,113,g,true,792.4000000953674,0,b,,0,3,0,
xqo,RSVPtest,114,g,true,423.90000009536743,1,r,,3,1,1,
xqo,RSVPtest,115,g,true,540.7000000476837,1,r,,3,2,1,
xqo,RSVPtest,116,g,true,575.5,1,r,,2,0,1,
xqo,RSVPtest,117,g,true,904.9000000953674,2,g,,3,0,1,
xqo,RSVPtest,118,g,true,675.6999998092651,1,r,,3,2,1,
xqo,RSVPtest,119,g,true,751.1999998092651,0,b,,3,3,0,
xqo,RSVPtest,120,g,true,743.1999998092651,0,b,,2,3,0,
brk,brk,brk,brk,brk,brk,brk,brk,brk,brk,brk,brk,
xqo,RSVPtest,121,g,true,590.9000000953674,2,g,,1,0,1,
xqo,RSVPtest,122,g,true,516.7999999523163,1,r,,0,1,1,
xqo,RSVPtest,123,g,false,832.8999998569489,1,r,,2,1,1,
xqo,RSVPtest,124,g,true,918.5,1,r,,2,2,2,
xqo,RSVPtest,125,g,false,558.1999998092651,2,g,,0,2,1,
xqo,RSVPtest,126,g,true,598.7999999523163,2,g,,3,2,1,
xqo,RSVPtest,127,g,false,757.6000001430511,0,b,,1,3,0,
xqo,RSVPtest,128,g,true,815.8000001907349,1,r,,2,1,1,
xqo,RSVPtest,129,g,false,979.0999999046326,1,r,,1,1,2,
xqo,RSVPtest,130,g,false,608.2000000476837,1,r,,1,2,1,
xqo,RSVPtest,131,g,true,615.2000000476837,1,r,,2,0,1,
xqo,RSVPtest,132,g,true,648.6000001430511,2,g,,3,1,1,
xqo,RSVPtest,133,g,false,718.6999998092651,1,r,,1,2,1,
xqo,RSVPtest,134,g,false,439.5,2,g,,2,0,1,
xqo,RSVPtest,135,g,true,481.80000019073486,0,b,,3,3,0,
xqo,RSVPtest,136,g,true,576.6000001430511,1,r,,1,0,1,
xqo,RSVPtest,137,g,true,577.2000000476837,0,b,,1,3,0,
xqo,RSVPtest,138,g,true,688.1999998092651,2,g,,3,2,1,
xqo,RSVPtest,139,g,true,630,2,g,,3,1,1,
xqo,RSVPtest,140,g,true,758.6999998092651,0,b,,3,3,0,
xqo,RSVPtest,141,g,true,541.2999999523163,1,r,,1,2,1,
xqo,RSVPtest,142,g,true,448.2000000476837,0,b,,0,3,0,
xqo,RSVPtest,143,g,false,760.3999998569489,0,b,,3,3,0,
xqo,RSVPtest,144,g,true,692.6000001430511,1,r,,3,2,1,
xqo,RSVPtest,145,g,false,537.1000001430511,0,b,,1,3,0,
xqo,RSVPtest,146,g,true,478,2,g,,3,1,1,
xqo,RSVPtest,147,g,true,752,1,r,,1,2,1,
xqo,RSVPtest,148,g,false,1704.2000000476837,1,r,,1,1,2,
xqo,RSVPtest,149,g,true,503.7999999523163,0,b,,0,3,0,
xqo,RSVPtest,150,g,true,647.4000000953674,2,g,,2,1,1,
xqo,RSVPtest,151,g,false,671.7000000476837,1,r,,0,1,1,
xqo,RSVPtest,152,g,false,805.5,0,b,,3,3,0,
xqo,RSVPtest,153,g,true,717.5999999046326,1,r,,2,2,2,
xqo,RSVPtest,154,g,true,2355.899999856949,2,g,,3,0,1,
xqo,RSVPtest,155,g,true,694.6000001430511,0,b,,0,3,0,
xqo,RSVPtest,156,g,true,679.9000000953674,1,r,,2,1,1,
xqo,RSVPtest,157,g,true,671.4000000953674,0,b,,1,3,0,
xqo,RSVPtest,158,g,true,581.9000000953674,1,r,,2,1,1,
xqo,RSVPtest,159,g,true,657.1000001430511,0,b,,2,3,0,
xqo,RSVPtest,160,g,true,488.60000014305115,1,r,,2,2,2,
xqo,RSVPtest,161,g,false,878.1000001430511,2,g,,3,0,1,
xqo,RSVPtest,162,g,true,758.5,2,g,,2,2,2,
xqo,RSVPtest,163,g,true,725.1999998092651,2,g,,3,2,1,
xqo,RSVPtest,164,g,true,550.7000000476837,0,b,,0,3,0,
xqo,RSVPtest,165,g,false,599.1000001430511,1,r,,0,2,1,
xqo,RSVPtest,166,g,false,502.90000009536743,2,g,,3,0,1,
xqo,RSVPtest,167,g,false,533.2000000476837,2,g,,1,0,1,
xqo,RSVPtest,168,g,false,668.3999998569489,0,b,,0,3,0,
xqo,RSVPtest,169,g,true,646.5,2,g,,3,0,1,
xqo,RSVPtest,170,g,true,639,2,g,,3,2,1,
xqo,RSVPtest,171,g,true,782.7999999523163,0,b,,1,3,0,
xqo,RSVPtest,172,g,false,543,2,g,,0,0,2,
xqo,RSVPtest,173,g,true,1011.5999999046326,0,b,,2,3,0,
xqo,RSVPtest,174,g,true,932.8000001907349,0,b,,0,3,0,
xqo,RSVPtest,175,g,true,658.9000000953674,1,r,,3,1,1,
xqo,RSVPtest,176,g,true,646.8999998569489,2,g,,3,2,1,
xqo,RSVPtest,177,g,true,670,2,g,,1,1,2,
xqo,RSVPtest,178,g,true,834.9000000953674,1,r,,2,0,1,
xqo,RSVPtest,179,g,true,540.8999998569489,1,r,,3,0,1,
xqo,RSVPtest,180,g,true,671.9000000953674,0,b,,3,3,0,
brk,brk,brk,brk,brk,brk,brk,brk,brk,brk,brk,brk,
xqo,RSVPtest,181,g,true,492.5,0,b,,3,3,0,
xqo,RSVPtest,182,g,true,671.1000001430511,1,r,,3,2,1,
xqo,RSVPtest,183,g,true,439.09999990463257,0,b,,0,3,0,
xqo,RSVPtest,184,g,true,726.7999999523163,2,g,,3,1,1,
xqo,RSVPtest,185,g,false,759,2,g,,1,2,1,
xqo,RSVPtest,186,g,false,724.2000000476837,1,r,,0,0,2,
xqo,RSVPtest,187,g,true,612.5,0,b,,3,3,0,
xqo,RSVPtest,188,g,true,757.5,1,r,,3,2,1,
xqo,RSVPtest,189,g,false,591.2999999523163,2,g,,1,1,2,
xqo,RSVPtest,190,g,true,646.2999999523163,1,r,,1,2,1,
xqo,RSVPtest,191,g,true,478.5,2,g,,3,2,1,
xqo,RSVPtest,192,g,false,613.2999999523163,2,g,,1,2,1,
xqo,RSVPtest,193,g,false,725.4000000953674,2,g,,3,0,1,
xqo,RSVPtest,194,g,true,749.7999999523163,2,g,,0,1,1,
xqo,RSVPtest,195,g,false,694.7999999523163,2,g,,1,1,2,
xqo,RSVPtest,196,g,true,847.3999998569489,1,r,,0,0,2,
xqo,RSVPtest,197,g,false,468.40000009536743,2,g,,0,2,1,
xqo,RSVPtest,198,g,false,1077.6999998092651,1,r,,1,1,2,
xqo,RSVPtest,199,g,true,989.5,2,g,,2,0,1,
xqo,RSVPtest,200,g,true,797.1000001430511,0,b,,3,3,0,
xqo,RSVPtest,201,g,true,621.7000000476837,1,r,,3,2,1,
xqo,RSVPtest,202,g,false,639,1,r,,3,0,1,
xqo,RSVPtest,203,g,true,483.2999999523163,1,r,,3,2,1,
xqo,RSVPtest,204,g,true,661.2000000476837,2,g,,3,0,1,
xqo,RSVPtest,205,g,true,620.2999999523163,0,b,,2,3,0,
xqo,RSVPtest,206,g,true,663.7000000476837,0,b,,3,3,0,
xqo,RSVPtest,207,g,true,1379.2999999523163,1,r,,3,0,1,
xqo,RSVPtest,208,g,false,534.1000001430511,2,g,,0,1,1,
xqo,RSVPtest,209,g,true,709.9000000953674,1,r,,1,2,1,
xqo,RSVPtest,210,g,true,648.2000000476837,0,b,,3,3,0,
xqo,RSVPtest,211,g,true,447.90000009536743,1,r,,0,1,1,
xqo,RSVPtest,212,g,true,764,0,b,,1,3,0,
xqo,RSVPtest,213,g,true,693.5999999046326,0,b,,3,3,0,
xqo,RSVPtest,214,g,true,773.2999999523163,0,b,,1,3,0,
xqo,RSVPtest,215,g,true,540.2000000476837,0,b,,3,3,0,
xqo,RSVPtest,216,g,true,988.7000000476837,2,g,,2,2,2,
xqo,RSVPtest,217,g,true,590.5,2,g,,2,1,1,
xqo,RSVPtest,218,g,true,477.90000009536743,1,r,,1,1,2,
xqo,RSVPtest,219,g,true,1108.1000001430511,0,b,,3,3,0,
xqo,RSVPtest,220,g,true,825.1000001430511,1,r,,2,1,1,
xqo,RSVPtest,221,g,true,605.6000001430511,2,g,,1,0,1,
xqo,RSVPtest,222,g,true,708.3000001907349,1,r,,0,1,1,
xqo,RSVPtest,223,g,true,604.8999998569489,1,r,,3,1,1,
xqo,RSVPtest,224,g,true,447.7999999523163,1,r,,0,0,2,
xqo,RSVPtest,225,g,true,1039.0999999046326,2,g,,3,2,1,
xqo,RSVPtest,226,g,true,510.2999999523163,0,b,,2,3,0,
xqo,RSVPtest,227,g,true,542.4000000953674,2,g,,0,2,1,
xqo,RSVPtest,228,g,false,478.89999985694885,2,g,,0,0,2,
xqo,RSVPtest,229,g,true,702.7000000476837,1,r,,3,0,1,
xqo,RSVPtest,230,g,true,878.4000000953674,2,g,,1,0,1,
xqo,RSVPtest,231,g,true,596.5999999046326,2,g,,3,1,1,
xqo,RSVPtest,232,g,true,397.5,1,r,,0,2,1,
xqo,RSVPtest,233,g,true,686.0999999046326,2,g,,1,1,2,
xqo,RSVPtest,234,g,false,701.3000001907349,1,r,,3,1,1,
xqo,RSVPtest,235,g,true,574.5999999046326,1,r,,2,2,2,
xqo,RSVPtest,236,g,true,464.90000009536743,0,b,,0,3,0,
xqo,RSVPtest,237,g,false,438.59999990463257,2,g,,1,1,2,
xqo,RSVPtest,238,g,false,501.80000019073486,1,r,,3,0,1,
xqo,RSVPtest,239,g,true,598.2999999523163,2,g,,3,0,1,
xqo,RSVPtest,240,g,false,693.4000000953674,2,g,,0,2,1,
