subID,trialType,trialNum,cntBalance,correct,rt,rwdType,tgtCol,tgtDir,tgtPos,colPos,colMatch,
fo6,VDACtrain,0,r,null,null,1,g,v,5,,,
fo6,VDACtrain,0,r,true,771,1,g,v,2,,,
fo6,VDACtrain,0,r,null,null,2,r,h,2,,,
fo6,VDACtrain,0,r,true,584.8000000119209,1,g,h,3,,,
fo6,VDACtrain,0,r,true,640.6999999880791,2,r,h,0,,,
fo6,VDACtrain,0,r,true,615.1000000238419,2,r,v,3,,,
fo6,VDACtrain,0,r,true,795,2,r,v,4,,,
fo6,VDACtrain,0,r,true,867,2,r,h,1,,,
fo6,VDACtrain,0,r,true,631.1000000238419,1,g,v,0,,,
fo6,VDACtrain,0,r,true,537.5999999642372,1,g,h,5,,,
fo6,VDACtest,1,r,true,659.6999999880791,2,r,v,3,,,
fo6,VDACtest,2,r,false,592.1999999880791,1,g,v,4,,,
fo6,VDACtest,3,r,true,720,2,r,h,2,,,
fo6,VDACtest,4,r,true,522.3999999761581,1,g,h,4,,,
fo6,VDACtest,5,r,true,634.3000000119209,1,g,v,1,,,
fo6,VDACtest,6,r,true,625.6000000238419,2,r,h,1,,,
fo6,VDACtest,7,r,true,505.2000000476837,2,r,v,1,,,
fo6,VDACtest,8,r,false,490,1,g,h,1,,,
fo6,VDACtest,9,r,true,736,2,r,h,5,,,
fo6,VDACtest,10,r,true,640.4000000357628,1,g,v,3,,,
fo6,VDACtest,11,r,true,465.5999999642372,1,g,h,5,,,
fo6,VDACtest,12,r,false,447.39999997615814,2,r,v,2,,,
fo6,VDACtest,13,r,true,584.3999999761581,2,r,v,2,,,
fo6,VDACtest,14,r,true,705.9000000357628,1,g,v,0,,,
fo6,VDACtest,15,r,true,720.6000000238419,1,g,h,1,,,
fo6,VDACtest,16,r,true,569.1999999880791,2,r,h,2,,,
fo6,VDACtest,17,r,true,498.10000002384186,2,r,v,5,,,
fo6,VDACtest,18,r,true,639.6999999880791,1,g,v,0,,,
fo6,VDACtest,19,r,true,656.8999999761581,2,r,v,4,,,
fo6,VDACtest,20,r,true,744.8000000119209,1,g,h,1,,,
fo6,VDACtest,21,r,true,671.9000000357628,2,r,v,5,,,
fo6,VDACtest,22,r,false,632.6999999880791,1,g,v,0,,,
fo6,VDACtest,23,r,true,495.9000000357628,1,g,v,1,,,
fo6,VDACtest,24,r,true,552.5,1,g,h,2,,,
fo6,VDACtest,25,r,true,576.5999999642372,2,r,v,0,,,
fo6,VDACtest,26,r,true,457.19999998807907,1,g,h,3,,,
fo6,VDACtest,27,r,true,633,2,r,v,4,,,
fo6,VDACtest,28,r,false,624.3000000119209,1,g,v,3,,,
fo6,VDACtest,29,r,true,664.6999999880791,2,r,h,4,,,
fo6,VDACtest,30,r,true,913.1999999880791,1,g,h,3,,,
fo6,VDACtest,31,r,true,585.3000000119209,2,r,h,1,,,
fo6,VDACtest,32,r,true,617.5,2,r,h,5,,,
fo6,VDACtest,33,r,true,568.8000000119209,1,g,v,3,,,
fo6,VDACtest,34,r,true,471.9000000357628,1,g,v,2,,,
fo6,VDACtest,35,r,true,614.5999999642372,1,g,h,0,,,
fo6,VDACtest,36,r,true,642.0999999642372,1,g,h,2,,,
fo6,VDACtest,37,r,true,601.5,1,g,h,5,,,
fo6,VDACtest,38,r,true,631.6000000238419,1,g,v,4,,,
fo6,VDACtest,39,r,true,760.7999999523163,2,r,h,3,,,
fo6,VDACtest,40,r,true,825.1999999880791,1,g,h,4,,,
fo6,VDACtest,41,r,true,687.6000000238419,2,r,v,2,,,
fo6,VDACtest,42,r,false,562.2999999523163,1,g,h,4,,,
fo6,VDACtest,43,r,true,627.0999999642372,1,g,h,5,,,
fo6,VDACtest,44,r,true,664.7000000476837,1,g,h,1,,,
fo6,VDACtest,45,r,true,857.9000000357628,2,r,v,3,,,
fo6,VDACtest,46,r,true,768.1000000238419,2,r,h,1,,,
fo6,VDACtest,47,r,true,512.8000000119209,1,g,v,4,,,
fo6,VDACtest,48,r,false,608,2,r,v,5,,,
fo6,VDACtest,49,r,false,753.5999999642372,1,g,h,4,,,
fo6,VDACtest,50,r,true,768,1,g,v,2,,,
brk,brk,brk,brk,brk,brk,brk,brk,brk,brk,brk,brk,
fo6,VDACtest,51,r,true,719.1999999880791,2,r,v,0,,,
fo6,VDACtest,52,r,true,625,1,g,h,0,,,
fo6,VDACtest,53,r,true,591.5,2,r,h,4,,,
fo6,VDACtest,54,r,true,616.8999999761581,2,r,v,5,,,
fo6,VDACtest,55,r,true,615,2,r,h,1,,,
fo6,VDACtest,56,r,true,594,1,g,h,0,,,
fo6,VDACtest,57,r,true,586.6999999880791,2,r,v,1,,,
fo6,VDACtest,58,r,true,535.3000000119209,1,g,v,5,,,
fo6,VDACtest,59,r,true,527.5,1,g,h,0,,,
fo6,VDACtest,60,r,false,777,2,r,v,2,,,
fo6,VDACtest,61,r,true,607.6999999880791,1,g,h,0,,,
fo6,VDACtest,62,r,true,641.7000000476837,2,r,v,5,,,
fo6,VDACtest,63,r,true,544.5,2,r,h,0,,,
fo6,VDACtest,64,r,false,713.1000000238419,2,r,h,4,,,
fo6,VDACtest,65,r,true,727.6999999880791,1,g,h,0,,,
fo6,VDACtest,66,r,true,623.9000000357628,2,r,h,4,,,
fo6,VDACtest,67,r,true,671.8000000119209,2,r,h,1,,,
fo6,VDACtest,68,r,true,679.8000000119209,2,r,v,2,,,
fo6,VDACtest,69,r,true,616.6999999880791,2,r,h,3,,,
fo6,VDACtest,70,r,true,568.5,2,r,v,4,,,
fo6,VDACtest,71,r,null,null,1,g,h,3,,,
fo6,VDACtest,72,r,true,454.39999997615814,1,g,h,3,,,
fo6,VDACtest,73,r,true,583.5999999642372,2,r,v,1,,,
fo6,VDACtest,74,r,true,935.5999999642372,1,g,v,2,,,
fo6,VDACtest,75,r,true,562.3999999761581,1,g,v,0,,,
fo6,VDACtest,76,r,false,655.5999999642372,1,g,h,4,,,
fo6,VDACtest,77,r,true,657,2,r,h,5,,,
fo6,VDACtest,78,r,true,584.0999999642372,2,r,h,0,,,
fo6,VDACtest,79,r,true,535,1,g,h,2,,,
fo6,VDACtest,80,r,true,446.9000000357628,2,r,v,4,,,
fo6,VDACtest,81,r,true,503.10000002384186,2,r,h,3,,,
fo6,VDACtest,82,r,true,471.30000001192093,1,g,v,2,,,
fo6,VDACtest,83,r,false,577.5999999642372,2,r,v,2,,,
fo6,VDACtest,84,r,true,697.1000000238419,2,r,h,1,,,
fo6,VDACtest,85,r,true,633.1999999880791,2,r,h,0,,,
fo6,VDACtest,86,r,true,520,2,r,v,0,,,
fo6,VDACtest,87,r,true,721.5999999642372,1,g,v,5,,,
fo6,VDACtest,88,r,true,719.6000000238419,1,g,v,1,,,
fo6,VDACtest,89,r,true,488.19999998807907,2,r,h,5,,,
fo6,VDACtest,90,r,true,650.1999999880791,1,g,h,1,,,
fo6,VDACtest,91,r,null,null,2,r,v,3,,,
fo6,VDACtest,92,r,true,576.6999999880791,1,g,v,2,,,
fo6,VDACtest,93,r,true,664.5,1,g,h,0,,,
fo6,VDACtest,94,r,false,503.80000001192093,1,g,h,5,,,
fo6,VDACtest,95,r,true,681,2,r,h,3,,,
fo6,VDACtest,96,r,true,583.7000000476837,1,g,h,1,,,
fo6,VDACtest,97,r,true,544,2,r,v,3,,,
fo6,VDACtest,98,r,true,527.5999999642372,1,g,v,2,,,
fo6,VDACtest,99,r,true,650.8000000119209,2,r,h,3,,,
fo6,VDACtest,100,r,true,760,1,g,h,5,,,
brk,brk,brk,brk,brk,brk,brk,brk,brk,brk,brk,brk,
fo6,VDACtest,101,r,true,640.5999999642372,2,r,v,3,,,
fo6,VDACtest,102,r,true,584.5,2,r,v,1,,,
fo6,VDACtest,103,r,true,502.69999998807907,1,g,v,0,,,
fo6,VDACtest,104,r,true,601.8000000119209,1,g,v,4,,,
fo6,VDACtest,105,r,true,478.89999997615814,1,g,v,5,,,
fo6,VDACtest,106,r,true,568.3999999761581,2,r,h,2,,,
fo6,VDACtest,107,r,true,448.69999998807907,1,g,v,1,,,
fo6,VDACtest,108,r,true,544.1000000238419,2,r,v,5,,,
fo6,VDACtest,109,r,true,552.7999999523163,1,g,v,1,,,
fo6,VDACtest,110,r,true,616.8000000119209,1,g,h,4,,,
fo6,VDACtest,111,r,true,625.1999999880791,2,r,h,3,,,
fo6,VDACtest,112,r,false,561.3000000119209,2,r,v,1,,,
fo6,VDACtest,113,r,true,567.1000000238419,2,r,h,2,,,
fo6,VDACtest,114,r,true,464.69999998807907,2,r,v,4,,,
fo6,VDACtest,115,r,true,440.39999997615814,1,g,v,4,,,
fo6,VDACtest,116,r,true,409.10000002384186,2,r,v,4,,,
fo6,VDACtest,117,r,true,480.19999998807907,1,g,v,0,,,
fo6,VDACtest,118,r,true,551.5,2,r,v,3,,,
fo6,VDACtest,119,r,true,465.60000002384186,1,g,h,0,,,
fo6,VDACtest,120,r,true,615.4000000357628,2,r,v,3,,,
fo6,VDACtest,121,r,true,487.80000001192093,2,r,v,0,,,
fo6,VDACtest,122,r,true,737.6000000238419,2,r,h,1,,,
fo6,VDACtest,123,r,true,504.9000000357628,1,g,v,5,,,
fo6,VDACtest,124,r,true,673.4000000357628,2,r,h,4,,,
fo6,VDACtest,125,r,true,673.2999999523163,2,r,h,0,,,
fo6,VDACtest,126,r,true,479.89999997615814,1,g,v,3,,,
fo6,VDACtest,127,r,true,520.1999999880791,1,g,h,5,,,
fo6,VDACtest,128,r,true,536.8000000119209,1,g,v,1,,,
fo6,VDACtest,129,r,true,576,1,g,h,3,,,
fo6,VDACtest,130,r,true,656.3000000119209,2,r,h,4,,,
fo6,VDACtest,131,r,true,623.5,2,r,h,1,,,
fo6,VDACtest,132,r,true,536.1000000238419,2,r,h,0,,,
fo6,VDACtest,133,r,true,400.80000001192093,1,g,v,4,,,
fo6,VDACtest,134,r,true,447.30000001192093,1,g,h,4,,,
fo6,VDACtest,135,r,true,470.9000000357628,2,r,h,3,,,
fo6,VDACtest,136,r,true,463.5,1,g,h,1,,,
fo6,VDACtest,137,r,true,528.8000000119209,1,g,v,0,,,
fo6,VDACtest,138,r,true,584.1000000238419,2,r,v,5,,,
fo6,VDACtest,139,r,false,496.80000001192093,1,g,h,4,,,
fo6,VDACtest,140,r,false,487.30000001192093,1,g,v,5,,,
fo6,VDACtest,141,r,true,751.8000000119209,2,r,h,2,,,
fo6,VDACtest,142,r,true,607.9000000357628,2,r,h,1,,,
fo6,VDACtest,143,r,true,457.2999999523163,2,r,v,0,,,
fo6,VDACtest,144,r,true,567.9000000357628,1,g,h,2,,,
fo6,VDACtest,145,r,true,583.8000000119209,2,r,h,0,,,
fo6,VDACtest,146,r,true,464.19999998807907,2,r,v,1,,,
fo6,VDACtest,147,r,true,454.39999997615814,2,r,h,2,,,
fo6,VDACtest,148,r,true,559.6000000238419,1,g,h,5,,,
fo6,VDACtest,149,r,true,416.10000002384186,1,g,v,1,,,
fo6,VDACtest,150,r,true,441.10000002384186,2,r,v,1,,,
brk,brk,brk,brk,brk,brk,brk,brk,brk,brk,brk,brk,
fo6,VDACtest,151,r,true,569,2,r,v,0,,,
fo6,VDACtest,152,r,true,503.80000001192093,1,g,v,3,,,
fo6,VDACtest,153,r,true,521.1999999880791,2,r,v,1,,,
fo6,VDACtest,154,r,true,401,2,r,h,2,,,
fo6,VDACtest,155,r,true,583.1999999880791,2,r,h,0,,,
fo6,VDACtest,156,r,true,463.89999997615814,2,r,h,2,,,
fo6,VDACtest,157,r,true,463.69999998807907,1,g,v,5,,,
fo6,VDACtest,158,r,true,546.5999999642372,1,g,v,2,,,
fo6,VDACtest,159,r,false,475,1,g,h,3,,,
fo6,VDACtest,160,r,true,486.60000002384186,1,g,v,1,,,
fo6,VDACtest,161,r,true,535.4000000357628,1,g,v,2,,,
fo6,VDACtest,162,r,true,655.3000000119209,2,r,h,4,,,
fo6,VDACtest,163,r,true,639.8999999761581,1,g,h,1,,,
fo6,VDACtest,164,r,true,670.7999999523163,1,g,v,0,,,
fo6,VDACtest,165,r,true,511.2999999523163,1,g,v,5,,,
fo6,VDACtest,166,r,true,647,2,r,v,3,,,
fo6,VDACtest,167,r,true,496.5,1,g,v,3,,,
fo6,VDACtest,168,r,true,488.19999998807907,1,g,h,4,,,
fo6,VDACtest,169,r,true,601.1999999880791,1,g,h,2,,,
fo6,VDACtest,170,r,true,551.5,2,r,h,3,,,
fo6,VDACtest,171,r,true,575.3000000119209,2,r,h,5,,,
fo6,VDACtest,172,r,true,423.69999998807907,1,g,v,4,,,
fo6,VDACtest,173,r,true,560.5,2,r,v,1,,,
fo6,VDACtest,174,r,true,478.10000002384186,1,g,h,3,,,
fo6,VDACtest,175,r,false,856.7000000476837,2,r,v,0,,,
fo6,VDACtest,176,r,true,599.6999999880791,1,g,h,1,,,
fo6,VDACtest,177,r,true,519.5,2,r,h,5,,,
fo6,VDACtest,178,r,true,543.5999999642372,2,r,h,0,,,
fo6,VDACtest,179,r,true,504.30000001192093,1,g,h,3,,,
fo6,VDACtest,180,r,true,490.30000001192093,1,g,v,1,,,
fo6,VDACtest,181,r,true,640.6999999880791,2,r,v,2,,,
fo6,VDACtest,182,r,true,494.7999999523163,2,r,v,2,,,
fo6,VDACtest,183,r,true,496.30000001192093,2,r,v,4,,,
fo6,VDACtest,184,r,true,464.5,1,g,v,4,,,
fo6,VDACtest,185,r,true,438.60000002384186,2,r,h,4,,,
fo6,VDACtest,186,r,true,567.5999999642372,1,g,h,2,,,
fo6,VDACtest,187,r,true,432.89999997615814,1,g,v,4,,,
fo6,VDACtest,188,r,true,527.8000000119209,1,g,h,2,,,
fo6,VDACtest,189,r,true,438.5999999642372,1,g,v,5,,,
fo6,VDACtest,190,r,true,696.3000000119209,2,r,h,5,,,
fo6,VDACtest,191,r,true,471,2,r,v,5,,,
fo6,VDACtest,192,r,true,544.5999999642372,2,r,h,4,,,
fo6,VDACtest,193,r,true,584.5,1,g,v,3,,,
fo6,VDACtest,194,r,true,544.6999999880791,1,g,h,5,,,
fo6,VDACtest,195,r,true,655.5,1,g,h,2,,,
fo6,VDACtest,196,r,true,720.8999999761581,2,r,v,4,,,
fo6,VDACtest,197,r,true,432.60000002384186,2,r,v,4,,,
fo6,VDACtest,198,r,true,550.5999999642372,1,g,v,3,,,
fo6,VDACtest,199,r,true,486.7999999523163,2,r,v,0,,,
fo6,VDACtest,200,r,true,608.2000000476837,2,r,h,5,,,
fo6,RSVPtrain,0,r,true,1506.3999999761581,2,r,,3,2,1,
fo6,RSVPtrain,0,r,false,1092.699999988079,1,g,,3,0,1,
fo6,RSVPtrain,0,r,true,1787.4000000357628,2,r,,1,1,2,
fo6,RSVPtrain,0,r,true,1213.699999988079,0,b,,3,3,0,
fo6,RSVPtrain,0,r,true,740.3999999761581,1,g,,2,2,2,
fo6,RSVPtrain,0,r,false,708.3999999761581,0,b,,0,3,0,
fo6,RSVPtrain,0,r,true,1098.1000000238419,0,b,,1,3,0,
fo6,RSVPtrain,0,r,true,1182.4000000357628,1,g,,3,1,1,
fo6,RSVPtrain,0,r,true,708.1000000238419,1,g,,1,0,1,
fo6,RSVPtrain,0,r,true,1061,2,r,,0,0,2,
fo6,RSVPtest,1,r,true,683.6000000238419,2,r,,3,2,1,
fo6,RSVPtest,2,r,true,603,2,r,,3,0,1,
fo6,RSVPtest,3,r,true,908.5999999642372,0,b,,2,3,0,
fo6,RSVPtest,4,r,true,516.1999999880791,2,r,,3,0,1,
fo6,RSVPtest,5,r,false,818.2000000476837,1,g,,3,0,1,
fo6,RSVPtest,6,r,true,594.8000000119209,2,r,,3,2,1,
fo6,RSVPtest,7,r,true,1154.3999999761581,2,r,,3,1,1,
fo6,RSVPtest,8,r,true,635.6999999880791,1,g,,1,0,1,
fo6,RSVPtest,9,r,true,881.8999999761581,2,r,,3,2,1,
fo6,RSVPtest,10,r,true,400.89999997615814,1,g,,0,1,1,
fo6,RSVPtest,11,r,true,476,2,r,,0,1,1,
fo6,RSVPtest,12,r,false,896.4000000357628,2,r,,2,2,2,
fo6,RSVPtest,13,r,true,859.6999999880791,1,g,,3,0,1,
fo6,RSVPtest,14,r,true,729.3000000119209,0,b,,3,3,0,
fo6,RSVPtest,15,r,true,411.4000000357628,1,g,,1,0,1,
fo6,RSVPtest,16,r,true,698.6999999880791,2,r,,3,0,1,
fo6,RSVPtest,17,r,true,601.5999999642372,2,r,,3,0,1,
fo6,RSVPtest,18,r,true,736.6000000238419,1,g,,3,1,1,
fo6,RSVPtest,19,r,true,699.3000000119209,1,g,,3,2,1,
fo6,RSVPtest,20,r,true,970.6999999880791,1,g,,0,0,2,
fo6,RSVPtest,21,r,true,523.3000000119209,2,r,,3,0,1,
fo6,RSVPtest,22,r,true,984.9000000357628,2,r,,0,1,1,
fo6,RSVPtest,23,r,false,481.7999999523163,1,g,,0,2,1,
fo6,RSVPtest,24,r,true,556,0,b,,3,3,0,
fo6,RSVPtest,25,r,true,331.10000002384186,0,b,,2,3,0,
fo6,RSVPtest,26,r,false,402.5999999642372,1,g,,3,0,1,
fo6,RSVPtest,27,r,true,634.6999999880791,0,b,,0,3,0,
fo6,RSVPtest,28,r,false,617.3000000119209,1,g,,0,1,1,
fo6,RSVPtest,29,r,false,868.1000000238419,0,b,,0,3,0,
fo6,RSVPtest,30,r,false,665,2,r,,0,2,1,
fo6,RSVPtest,31,r,true,616.6999999880791,1,g,,3,1,1,
fo6,RSVPtest,32,r,true,624.6000000238419,0,b,,3,3,0,
fo6,RSVPtest,33,r,true,387.69999998807907,1,g,,2,2,2,
fo6,RSVPtest,34,r,false,547.3999999761581,0,b,,0,3,0,
fo6,RSVPtest,35,r,true,466.80000001192093,1,g,,2,1,1,
fo6,RSVPtest,36,r,true,603.5,2,r,,3,1,1,
fo6,RSVPtest,37,r,false,770.1000000238419,0,b,,0,3,0,
fo6,RSVPtest,38,r,true,637,0,b,,1,3,0,
fo6,RSVPtest,39,r,false,1137,0,b,,2,3,0,
fo6,RSVPtest,40,r,false,770.3000000119209,2,r,,3,0,1,
fo6,RSVPtest,41,r,true,746.5,0,b,,3,3,0,
fo6,RSVPtest,42,r,true,738.5,1,g,,2,0,1,
fo6,RSVPtest,43,r,true,810.8000000119209,2,r,,1,2,1,
fo6,RSVPtest,44,r,true,666.1999999880791,0,b,,2,3,0,
fo6,RSVPtest,45,r,true,746,0,b,,3,3,0,
fo6,RSVPtest,46,r,true,704.3999999761581,1,g,,3,2,1,
fo6,RSVPtest,47,r,true,617,1,g,,3,0,1,
fo6,RSVPtest,48,r,true,619.7999999523163,0,b,,1,3,0,
fo6,RSVPtest,49,r,true,458.10000002384186,2,r,,1,1,2,
fo6,RSVPtest,50,r,true,698.3000000119209,0,b,,3,3,0,
fo6,RSVPtest,51,r,true,697.3000000119209,2,r,,2,2,2,
fo6,RSVPtest,52,r,true,443.5,1,g,,0,2,1,
fo6,RSVPtest,53,r,true,579.1000000238419,1,g,,0,0,2,
fo6,RSVPtest,54,r,true,650.6999999880791,2,r,,3,1,1,
fo6,RSVPtest,55,r,true,602.3999999761581,2,r,,0,1,1,
fo6,RSVPtest,56,r,true,706.0999999642372,1,g,,1,1,2,
fo6,RSVPtest,57,r,true,665.4000000357628,1,g,,3,2,1,
fo6,RSVPtest,58,r,false,625.6000000238419,2,r,,1,0,1,
fo6,RSVPtest,59,r,true,618.6000000238419,0,b,,2,3,0,
fo6,RSVPtest,60,r,true,579.2000000476837,2,r,,1,2,1,
brk,brk,brk,brk,brk,brk,brk,brk,brk,brk,brk,brk,
fo6,RSVPtest,61,r,true,571.2000000476837,2,r,,3,1,1,
fo6,RSVPtest,62,r,true,569.6999999880791,2,r,,1,2,1,
fo6,RSVPtest,63,r,true,651.6999999880791,0,b,,1,3,0,
fo6,RSVPtest,64,r,false,667,1,g,,1,0,1,
fo6,RSVPtest,65,r,true,642.3999999761581,1,g,,3,1,1,
fo6,RSVPtest,66,r,true,673.8000000119209,1,g,,3,2,1,
fo6,RSVPtest,67,r,true,751.3000000119209,0,b,,3,3,0,
fo6,RSVPtest,68,r,true,687.2999999523163,1,g,,3,2,1,
fo6,RSVPtest,69,r,true,562.8999999761581,0,b,,1,3,0,
fo6,RSVPtest,70,r,true,664.1999999880791,1,g,,3,0,1,
fo6,RSVPtest,71,r,true,489.19999998807907,0,b,,2,3,0,
fo6,RSVPtest,72,r,true,536.6000000238419,2,r,,3,2,1,
fo6,RSVPtest,73,r,true,567.1000000238419,2,r,,1,0,1,
fo6,RSVPtest,74,r,true,762.1999999880791,1,g,,1,1,2,
fo6,RSVPtest,75,r,true,691.6999999880791,1,g,,3,2,1,
fo6,RSVPtest,76,r,false,761.1000000238419,1,g,,1,0,1,
fo6,RSVPtest,77,r,false,746.8999999761581,1,g,,1,1,2,
fo6,RSVPtest,78,r,true,873.2000000476837,1,g,,3,2,1,
fo6,RSVPtest,79,r,true,794.3000000119209,2,r,,3,1,1,
fo6,RSVPtest,80,r,true,656.9000000357628,1,g,,0,2,1,
fo6,RSVPtest,81,r,true,536.8999999761581,2,r,,1,0,1,
fo6,RSVPtest,82,r,false,1072.300000011921,1,g,,1,1,2,
fo6,RSVPtest,83,r,true,671.1999999880791,0,b,,0,3,0,
fo6,RSVPtest,84,r,true,481.69999998807907,0,b,,0,3,0,
fo6,RSVPtest,85,r,true,639.1000000238419,1,g,,3,1,1,
fo6,RSVPtest,86,r,true,584.2999999523163,0,b,,3,3,0,
fo6,RSVPtest,87,r,true,823.8999999761581,1,g,,2,2,2,
fo6,RSVPtest,88,r,true,762.1999999880791,1,g,,3,0,1,
fo6,RSVPtest,89,r,false,617.8000000119209,2,r,,2,0,1,
fo6,RSVPtest,90,r,true,802.8000000119209,1,g,,3,1,1,
fo6,RSVPtest,91,r,true,610.2000000476837,1,g,,2,0,1,
fo6,RSVPtest,92,r,true,698.5999999642372,2,r,,2,2,2,
fo6,RSVPtest,93,r,false,962.6999999880791,2,r,,3,2,1,
fo6,RSVPtest,94,r,true,841.5,2,r,,3,2,1,
fo6,RSVPtest,95,r,true,778.8999999761581,1,g,,1,0,1,
fo6,RSVPtest,96,r,true,521.8000000119209,1,g,,0,1,1,
fo6,RSVPtest,97,r,true,1114.699999988079,0,b,,1,3,0,
fo6,RSVPtest,98,r,false,683.3999999761581,1,g,,1,1,2,
fo6,RSVPtest,99,r,true,794.5,2,r,,2,0,1,
fo6,RSVPtest,100,r,true,568.5,1,g,,3,2,1,
fo6,RSVPtest,101,r,true,450.10000002384186,1,g,,2,1,1,
fo6,RSVPtest,102,r,true,386,1,g,,0,0,2,
fo6,RSVPtest,103,r,true,375,2,r,,0,2,1,
fo6,RSVPtest,104,r,false,635.1000000238419,1,g,,3,1,1,
fo6,RSVPtest,105,r,true,666.3999999761581,1,g,,3,0,1,
fo6,RSVPtest,106,r,true,583.6999999880791,1,g,,2,1,1,
fo6,RSVPtest,107,r,true,674.2999999523163,2,r,,2,1,1,
fo6,RSVPtest,108,r,false,502.80000001192093,1,g,,0,1,1,
fo6,RSVPtest,109,r,true,643.3999999761581,2,r,,3,2,1,
fo6,RSVPtest,110,r,true,785.5999999642372,1,g,,3,1,1,
fo6,RSVPtest,111,r,true,592.6000000238419,1,g,,2,2,2,
fo6,RSVPtest,112,r,true,609.1999999880791,2,r,,3,0,1,
fo6,RSVPtest,113,r,true,865.3000000119209,2,r,,1,2,1,
fo6,RSVPtest,114,r,true,625.3000000119209,1,g,,1,2,1,
fo6,RSVPtest,115,r,false,722.5,1,g,,2,1,1,
fo6,RSVPtest,116,r,true,416,2,r,,2,0,1,
fo6,RSVPtest,117,r,true,399.5,1,g,,0,1,1,
fo6,RSVPtest,118,r,true,527.3000000119209,2,r,,3,0,1,
fo6,RSVPtest,119,r,true,593.6000000238419,1,g,,3,1,1,
fo6,RSVPtest,120,r,false,545.5,0,b,,2,3,0,
brk,brk,brk,brk,brk,brk,brk,brk,brk,brk,brk,brk,
fo6,RSVPtest,121,r,true,547.0999999642372,2,r,,3,0,1,
fo6,RSVPtest,122,r,false,407.39999997615814,2,r,,3,1,1,
fo6,RSVPtest,123,r,true,546.6999999880791,1,g,,2,0,1,
fo6,RSVPtest,124,r,true,648.3000000119209,0,b,,3,3,0,
fo6,RSVPtest,125,r,true,442.60000002384186,1,g,,2,0,1,
fo6,RSVPtest,126,r,true,553.0999999642372,0,b,,3,3,0,
fo6,RSVPtest,127,r,true,777.1000000238419,2,r,,0,1,1,
fo6,RSVPtest,128,r,true,633.5,1,g,,3,0,1,
fo6,RSVPtest,129,r,true,664.1999999880791,0,b,,3,3,0,
fo6,RSVPtest,130,r,true,478.0999999642372,2,r,,2,1,1,
fo6,RSVPtest,131,r,false,576.7999999523163,0,b,,1,3,0,
fo6,RSVPtest,132,r,true,911.5,2,r,,0,0,2,
fo6,RSVPtest,133,r,true,519.5999999642372,2,r,,1,0,1,
fo6,RSVPtest,134,r,true,382.30000001192093,1,g,,0,0,2,
fo6,RSVPtest,135,r,true,497.69999998807907,1,g,,3,2,1,
fo6,RSVPtest,136,r,true,383,2,r,,0,1,1,
fo6,RSVPtest,137,r,true,592.5999999642372,0,b,,0,3,0,
fo6,RSVPtest,138,r,false,504.5,0,b,,0,3,0,
fo6,RSVPtest,139,r,true,528.8999999761581,1,g,,3,0,1,
fo6,RSVPtest,140,r,false,529.6999999880791,1,g,,0,1,1,
fo6,RSVPtest,141,r,true,688.6000000238419,2,r,,3,2,1,
fo6,RSVPtest,142,r,true,374.19999998807907,2,r,,0,2,1,
fo6,RSVPtest,143,r,true,648.3999999761581,2,r,,2,2,2,
fo6,RSVPtest,144,r,true,513,2,r,,2,2,2,
fo6,RSVPtest,145,r,false,729.6999999880791,2,r,,3,2,1,
fo6,RSVPtest,146,r,true,607.8000000119209,0,b,,3,3,0,
fo6,RSVPtest,147,r,true,568.5,0,b,,3,3,0,
fo6,RSVPtest,148,r,false,735.7000000476837,1,g,,0,2,1,
fo6,RSVPtest,149,r,false,760.5999999642372,0,b,,1,3,0,
fo6,RSVPtest,150,r,true,407.7000000476837,2,r,,2,0,1,
fo6,RSVPtest,151,r,true,672.5,0,b,,1,3,0,
fo6,RSVPtest,152,r,true,440.30000001192093,0,b,,2,3,0,
fo6,RSVPtest,153,r,true,641.3999999761581,1,g,,1,2,1,
fo6,RSVPtest,154,r,true,586,0,b,,2,3,0,
fo6,RSVPtest,155,r,false,682.5,0,b,,2,3,0,
fo6,RSVPtest,156,r,true,537.6999999880791,2,r,,0,2,1,
fo6,RSVPtest,157,r,true,582.8999999761581,2,r,,3,1,1,
fo6,RSVPtest,158,r,true,665.6999999880791,0,b,,1,3,0,
fo6,RSVPtest,159,r,true,400.69999998807907,0,b,,2,3,0,
fo6,RSVPtest,160,r,true,567.9000000357628,0,b,,3,3,0,
fo6,RSVPtest,161,r,true,343.7999999523163,2,r,,1,0,1,
fo6,RSVPtest,162,r,false,607.6999999880791,0,b,,0,3,0,
fo6,RSVPtest,163,r,true,651.0999999642372,1,g,,3,2,1,
fo6,RSVPtest,164,r,true,367.4000000357628,2,r,,0,0,2,
fo6,RSVPtest,165,r,true,457.19999998807907,2,r,,2,0,1,
fo6,RSVPtest,166,r,true,623.5,0,b,,3,3,0,
fo6,RSVPtest,167,r,true,543.8000000119209,2,r,,3,1,1,
fo6,RSVPtest,168,r,true,359.9000000357628,1,g,,2,2,2,
fo6,RSVPtest,169,r,true,385.4000000357628,0,b,,0,3,0,
fo6,RSVPtest,170,r,true,447.60000002384186,2,r,,2,1,1,
fo6,RSVPtest,171,r,true,486.19999998807907,1,g,,3,0,1,
fo6,RSVPtest,172,r,true,679.6000000238419,1,g,,3,1,1,
fo6,RSVPtest,173,r,true,653.3000000119209,0,b,,3,3,0,
fo6,RSVPtest,174,r,false,689.1999999880791,2,r,,1,1,2,
fo6,RSVPtest,175,r,true,409,2,r,,2,1,1,
fo6,RSVPtest,176,r,false,696.6999999880791,1,g,,0,2,1,
fo6,RSVPtest,177,r,true,598.3999999761581,1,g,,2,0,1,
fo6,RSVPtest,178,r,true,752.6999999880791,1,g,,3,1,1,
fo6,RSVPtest,179,r,true,846.9000000357628,2,r,,1,1,2,
fo6,RSVPtest,180,r,true,607.8000000119209,2,r,,3,0,1,
brk,brk,brk,brk,brk,brk,brk,brk,brk,brk,brk,brk,
fo6,RSVPtest,181,r,false,668.3000000119209,2,r,,3,1,1,
fo6,RSVPtest,182,r,true,565,0,b,,3,3,0,
fo6,RSVPtest,183,r,true,671.2000000476837,2,r,,1,1,2,
fo6,RSVPtest,184,r,true,414.89999997615814,1,g,,2,1,1,
fo6,RSVPtest,185,r,true,409.89999997615814,1,g,,2,2,2,
fo6,RSVPtest,186,r,false,775.3000000119209,2,r,,3,1,1,
fo6,RSVPtest,187,r,false,630.8999999761581,0,b,,3,3,0,
fo6,RSVPtest,188,r,true,543.3999999761581,1,g,,1,2,1,
fo6,RSVPtest,189,r,true,673,2,r,,3,1,1,
fo6,RSVPtest,190,r,true,640,0,b,,1,3,0,
fo6,RSVPtest,191,r,true,641.5,1,g,,2,0,1,
fo6,RSVPtest,192,r,true,623.6999999880791,1,g,,1,1,2,
fo6,RSVPtest,193,r,false,590.8000000119209,1,g,,0,2,1,
fo6,RSVPtest,194,r,false,524.9000000357628,2,r,,0,2,1,
fo6,RSVPtest,195,r,true,613.8000000119209,1,g,,2,1,1,
fo6,RSVPtest,196,r,true,573.6999999880791,1,g,,3,2,1,
fo6,RSVPtest,197,r,true,560.8999999761581,2,r,,3,0,1,
fo6,RSVPtest,198,r,true,550.0999999642372,1,g,,3,0,1,
fo6,RSVPtest,199,r,true,472,0,b,,1,3,0,
fo6,RSVPtest,200,r,true,624.3999999761581,2,r,,3,2,1,
fo6,RSVPtest,201,r,false,662.7999999523163,1,g,,0,0,2,
fo6,RSVPtest,202,r,true,584.3000000119209,1,g,,1,0,1,
fo6,RSVPtest,203,r,true,585.1999999880791,0,b,,3,3,0,
fo6,RSVPtest,204,r,false,520,1,g,,3,2,1,
fo6,RSVPtest,205,r,true,577.3000000119209,2,r,,1,2,1,
fo6,RSVPtest,206,r,false,655.6999999880791,2,r,,0,2,1,
fo6,RSVPtest,207,r,true,640.7000000476837,1,g,,2,2,2,
fo6,RSVPtest,208,r,false,423.89999997615814,2,r,,0,0,2,
fo6,RSVPtest,209,r,false,673,1,g,,1,2,1,
fo6,RSVPtest,210,r,true,621.2999999523163,2,r,,3,0,1,
fo6,RSVPtest,211,r,true,673,2,r,,1,0,1,
fo6,RSVPtest,212,r,true,597.6999999880791,1,g,,3,1,1,
fo6,RSVPtest,213,r,false,744.6999999880791,0,b,,3,3,0,
fo6,RSVPtest,214,r,true,991.9000000357628,0,b,,3,3,0,
fo6,RSVPtest,215,r,true,621.5,2,r,,2,0,1,
fo6,RSVPtest,216,r,true,584.0999999642372,1,g,,0,0,2,
fo6,RSVPtest,217,r,false,639.6000000238419,0,b,,1,3,0,
fo6,RSVPtest,218,r,true,663.5,2,r,,0,0,2,
fo6,RSVPtest,219,r,true,564.8000000119209,0,b,,3,3,0,
fo6,RSVPtest,220,r,true,598.5,0,b,,3,3,0,
fo6,RSVPtest,221,r,true,640.5,2,r,,1,2,1,
fo6,RSVPtest,222,r,true,535.8999999761581,2,r,,3,2,1,
fo6,RSVPtest,223,r,true,503.9000000357628,1,g,,3,1,1,
fo6,RSVPtest,224,r,true,367.39999997615814,0,b,,2,3,0,
fo6,RSVPtest,225,r,false,512,2,r,,0,1,1,
fo6,RSVPtest,226,r,true,510,2,r,,1,1,2,
fo6,RSVPtest,227,r,false,982.3999999761581,2,r,,3,1,1,
fo6,RSVPtest,228,r,true,527.3000000119209,0,b,,3,3,0,
fo6,RSVPtest,229,r,true,599.3999999761581,2,r,,0,0,2,
fo6,RSVPtest,230,r,true,559.4000000357628,2,r,,2,2,2,
fo6,RSVPtest,231,r,true,695.5,2,r,,1,1,2,
fo6,RSVPtest,232,r,false,533.3999999761581,2,r,,2,1,1,
fo6,RSVPtest,233,r,true,489,2,r,,0,0,2,
fo6,RSVPtest,234,r,true,726.6000000238419,1,g,,1,2,1,
fo6,RSVPtest,235,r,true,383.69999998807907,0,b,,0,3,0,
fo6,RSVPtest,236,r,true,551.4000000357628,2,r,,3,2,1,
fo6,RSVPtest,237,r,false,678.8000000119209,2,r,,2,1,1,
fo6,RSVPtest,238,r,true,663.3000000119209,1,g,,3,0,1,
fo6,RSVPtest,239,r,true,357.5999999642372,1,g,,1,2,1,
fo6,RSVPtest,240,r,true,495.7999999523163,0,b,,0,3,0,
