subID,trialType,trialNum,cntBalance,correct,rt,rwdType,tgtCol,tgtDir,tgtPos,colPos,colMatch,
nnp,VDACtrain,0,r,null,null,1,g,v,2,,,
nnp,VDACtrain,0,r,null,null,2,r,v,3,,,
nnp,VDACtrain,0,r,false,943.2999999523163,1,g,v,5,,,
nnp,VDACtrain,0,r,false,985.8999998569489,2,r,h,0,,,
nnp,VDACtrain,0,r,false,743.2000000476837,1,g,v,0,,,
nnp,VDACtrain,0,r,null,null,2,r,h,2,,,
nnp,VDACtrain,0,r,false,767.7999999523163,1,g,h,5,,,
nnp,VDACtrain,0,r,null,null,1,g,h,3,,,
nnp,VDACtrain,0,r,null,null,2,r,h,1,,,
nnp,VDACtrain,0,r,false,740.5999999046326,2,r,v,4,,,
nnp,VDACtrain,0,r,null,null,1,g,h,3,,,
nnp,VDACtrain,0,r,true,845.3999998569489,1,g,v,5,,,
nnp,VDACtrain,0,r,true,881.6000001430511,2,r,v,4,,,
nnp,VDACtrain,0,r,null,null,2,r,h,0,,,
nnp,VDACtrain,0,r,true,953.8999998569489,2,r,h,2,,,
nnp,VDACtrain,0,r,null,null,1,g,h,5,,,
nnp,VDACtrain,0,r,true,697.0999999046326,1,g,v,2,,,
nnp,VDACtrain,0,r,true,672.2000000476837,1,g,v,0,,,
nnp,VDACtrain,0,r,true,655.9000000953674,2,r,h,1,,,
nnp,VDACtrain,0,r,false,673.7000000476837,2,r,v,3,,,
nnp,VDACtest,1,r,true,813.5999999046326,2,r,v,4,,,
nnp,VDACtest,2,r,null,null,1,g,v,5,,,
nnp,VDACtest,3,r,false,793.7999999523163,2,r,v,0,,,
nnp,VDACtest,4,r,null,null,1,g,h,3,,,
nnp,VDACtest,5,r,true,736.5999999046326,2,r,h,4,,,
nnp,VDACtest,6,r,true,897,2,r,v,0,,,
nnp,VDACtest,7,r,true,697.2000000476837,2,r,h,4,,,
nnp,VDACtest,8,r,false,616.5,2,r,v,2,,,
nnp,VDACtest,9,r,false,648.5999999046326,1,g,v,0,,,
nnp,VDACtest,10,r,true,592.8999998569489,1,g,h,1,,,
nnp,VDACtest,11,r,null,null,1,g,h,4,,,
nnp,VDACtest,12,r,null,null,1,g,h,2,,,
nnp,VDACtest,13,r,true,716,2,r,h,4,,,
nnp,VDACtest,14,r,true,808.7000000476837,1,g,v,1,,,
nnp,VDACtest,15,r,true,847.6999998092651,2,r,v,5,,,
nnp,VDACtest,16,r,null,null,1,g,v,0,,,
nnp,VDACtest,17,r,true,520.6000001430511,1,g,v,1,,,
nnp,VDACtest,18,r,true,863.5,2,r,h,2,,,
nnp,VDACtest,19,r,true,625.2000000476837,2,r,v,3,,,
nnp,VDACtest,20,r,false,800.3999998569489,2,r,v,5,,,
nnp,VDACtest,21,r,true,697.1000001430511,2,r,v,2,,,
nnp,VDACtest,22,r,true,791.5999999046326,1,g,v,1,,,
nnp,VDACtest,23,r,true,736.8000001907349,2,r,h,5,,,
nnp,VDACtest,24,r,true,608.7999999523163,2,r,h,5,,,
nnp,VDACtest,25,r,true,630.5,2,r,h,1,,,
nnp,VDACtest,26,r,true,728.5,1,g,v,3,,,
nnp,VDACtest,27,r,true,585.7999999523163,2,r,v,3,,,
nnp,VDACtest,28,r,null,null,2,r,h,3,,,
nnp,VDACtest,29,r,true,695.5,2,r,h,0,,,
nnp,VDACtest,30,r,true,609.0999999046326,2,r,v,4,,,
nnp,VDACtest,31,r,null,null,1,g,v,2,,,
nnp,VDACtest,32,r,false,711.7999999523163,2,r,v,1,,,
nnp,VDACtest,33,r,true,871.9000000953674,2,r,h,3,,,
nnp,VDACtest,34,r,true,896.2999999523163,1,g,h,2,,,
nnp,VDACtest,35,r,true,879.9000000953674,1,g,v,4,,,
nnp,VDACtest,36,r,true,953.7000000476837,2,r,v,0,,,
nnp,VDACtest,37,r,true,664.4000000953674,1,g,v,2,,,
nnp,VDACtest,38,r,true,833.5,2,r,v,1,,,
nnp,VDACtest,39,r,true,784.7000000476837,2,r,h,2,,,
nnp,VDACtest,40,r,true,905.5999999046326,2,r,h,4,,,
nnp,VDACtest,41,r,null,null,2,r,v,2,,,
nnp,VDACtest,42,r,true,677.2000000476837,2,r,h,0,,,
nnp,VDACtest,43,r,true,661,1,g,v,4,,,
nnp,VDACtest,44,r,true,945,1,g,h,5,,,
nnp,VDACtest,45,r,true,656.2999999523163,2,r,h,5,,,
nnp,VDACtest,46,r,true,609.8999998569489,1,g,v,0,,,
nnp,VDACtest,47,r,true,546.7000000476837,1,g,v,5,,,
nnp,VDACtest,48,r,true,577.0999999046326,1,g,v,3,,,
nnp,VDACtest,49,r,true,632.3999998569489,1,g,h,0,,,
nnp,VDACtest,50,r,true,721.8000001907349,1,g,h,1,,,
brk,brk,brk,brk,brk,brk,brk,brk,brk,brk,brk,brk,
nnp,VDACtest,51,r,true,847,2,r,h,4,,,
nnp,VDACtest,52,r,true,857.1000001430511,2,r,v,2,,,
nnp,VDACtest,53,r,true,745.2000000476837,1,g,v,3,,,
nnp,VDACtest,54,r,true,601.5999999046326,1,g,v,1,,,
nnp,VDACtest,55,r,true,817.1999998092651,1,g,v,4,,,
nnp,VDACtest,56,r,true,681.0999999046326,2,r,v,3,,,
nnp,VDACtest,57,r,true,586.2000000476837,1,g,v,2,,,
nnp,VDACtest,58,r,true,641.2000000476837,2,r,v,5,,,
nnp,VDACtest,59,r,true,560.5999999046326,2,r,v,4,,,
nnp,VDACtest,60,r,true,578.0999999046326,1,g,v,5,,,
nnp,VDACtest,61,r,true,553.1000001430511,1,g,h,5,,,
nnp,VDACtest,62,r,true,768.2999999523163,1,g,v,0,,,
nnp,VDACtest,63,r,true,600.9000000953674,2,r,v,5,,,
nnp,VDACtest,64,r,true,647.7999999523163,1,g,h,0,,,
nnp,VDACtest,65,r,true,568.6000001430511,1,g,v,3,,,
nnp,VDACtest,66,r,true,793.5999999046326,1,g,v,4,,,
nnp,VDACtest,67,r,true,648.0999999046326,1,g,h,4,,,
nnp,VDACtest,68,r,null,null,2,r,v,3,,,
nnp,VDACtest,69,r,true,713.7000000476837,1,g,h,1,,,
nnp,VDACtest,70,r,true,688.7000000476837,1,g,v,5,,,
nnp,VDACtest,71,r,true,905.2999999523163,2,r,h,3,,,
nnp,VDACtest,72,r,true,816.5999999046326,1,g,v,0,,,
nnp,VDACtest,73,r,true,753,2,r,v,5,,,
nnp,VDACtest,74,r,true,664.3999998569489,2,r,v,1,,,
nnp,VDACtest,75,r,true,665.2000000476837,1,g,h,3,,,
nnp,VDACtest,76,r,true,600.7000000476837,2,r,h,4,,,
nnp,VDACtest,77,r,true,704.0999999046326,2,r,v,0,,,
nnp,VDACtest,78,r,null,null,2,r,h,0,,,
nnp,VDACtest,79,r,true,753.2999999523163,1,g,h,4,,,
nnp,VDACtest,80,r,true,743.7000000476837,1,g,h,2,,,
nnp,VDACtest,81,r,true,729.2000000476837,1,g,h,0,,,
nnp,VDACtest,82,r,true,608,1,g,h,0,,,
nnp,VDACtest,83,r,true,570.2999999523163,1,g,v,2,,,
nnp,VDACtest,84,r,true,737.7000000476837,2,r,h,0,,,
nnp,VDACtest,85,r,true,623.2999999523163,1,g,h,2,,,
nnp,VDACtest,86,r,true,936.5,2,r,h,5,,,
nnp,VDACtest,87,r,true,623.6000001430511,2,r,h,1,,,
nnp,VDACtest,88,r,true,688.7000000476837,2,r,v,3,,,
nnp,VDACtest,89,r,true,600.3999998569489,2,r,h,4,,,
nnp,VDACtest,90,r,true,527.7000000476837,2,r,h,2,,,
nnp,VDACtest,91,r,true,663.5,1,g,h,3,,,
nnp,VDACtest,92,r,true,977.3000001907349,1,g,v,1,,,
nnp,VDACtest,93,r,true,752.5,1,g,h,5,,,
nnp,VDACtest,94,r,true,609,1,g,h,5,,,
nnp,VDACtest,95,r,true,831.9000000953674,2,r,h,5,,,
nnp,VDACtest,96,r,true,656.8000001907349,2,r,h,4,,,
nnp,VDACtest,97,r,true,617.0999999046326,2,r,h,1,,,
nnp,VDACtest,98,r,true,672,2,r,v,2,,,
nnp,VDACtest,99,r,true,624.6000001430511,1,g,h,4,,,
nnp,VDACtest,100,r,true,528.5,2,r,v,4,,,
brk,brk,brk,brk,brk,brk,brk,brk,brk,brk,brk,brk,
nnp,VDACtest,101,r,true,770.0999999046326,1,g,h,5,,,
nnp,VDACtest,102,r,true,641.0999999046326,2,r,v,0,,,
nnp,VDACtest,103,r,true,537.4000000953674,1,g,v,1,,,
nnp,VDACtest,104,r,true,687.7999999523163,1,g,v,4,,,
nnp,VDACtest,105,r,null,null,1,g,h,5,,,
nnp,VDACtest,106,r,true,873.0999999046326,2,r,h,3,,,
nnp,VDACtest,107,r,true,543.6999998092651,1,g,v,0,,,
nnp,VDACtest,108,r,true,617.2000000476837,2,r,h,1,,,
nnp,VDACtest,109,r,true,441.5,1,g,v,0,,,
nnp,VDACtest,110,r,false,744.0999999046326,2,r,h,0,,,
nnp,VDACtest,111,r,true,625.5,2,r,h,1,,,
nnp,VDACtest,112,r,true,689.5,2,r,v,1,,,
nnp,VDACtest,113,r,true,753.3999998569489,2,r,v,0,,,
nnp,VDACtest,114,r,true,624.7999999523163,2,r,v,4,,,
nnp,VDACtest,115,r,null,null,1,g,h,2,,,
nnp,VDACtest,116,r,true,668.6999998092651,1,g,v,4,,,
nnp,VDACtest,117,r,true,576.7999999523163,2,r,v,3,,,
nnp,VDACtest,118,r,true,578.0999999046326,2,r,h,3,,,
nnp,VDACtest,119,r,true,624.6999998092651,1,g,v,2,,,
nnp,VDACtest,120,r,true,617.2999999523163,2,r,h,1,,,
nnp,VDACtest,121,r,true,578.5,2,r,h,3,,,
nnp,VDACtest,122,r,false,672.5999999046326,2,r,v,1,,,
nnp,VDACtest,123,r,true,817.2999999523163,1,g,h,3,,,
nnp,VDACtest,124,r,true,594.1999998092651,1,g,h,0,,,
nnp,VDACtest,125,r,true,624.5,1,g,v,4,,,
nnp,VDACtest,126,r,true,753.1000001430511,1,g,h,4,,,
nnp,VDACtest,127,r,true,609.2000000476837,1,g,h,4,,,
nnp,VDACtest,128,r,true,824,1,g,h,0,,,
nnp,VDACtest,129,r,true,648.6000001430511,1,g,v,5,,,
nnp,VDACtest,130,r,true,585.8000001907349,1,g,v,1,,,
nnp,VDACtest,131,r,true,513,1,g,v,1,,,
nnp,VDACtest,132,r,true,728.7000000476837,1,g,h,3,,,
nnp,VDACtest,133,r,false,769.5,1,g,v,3,,,
nnp,VDACtest,134,r,true,880.9000000953674,2,r,v,2,,,
nnp,VDACtest,135,r,true,912.7000000476837,2,r,v,0,,,
nnp,VDACtest,136,r,true,696.5,1,g,v,2,,,
nnp,VDACtest,137,r,false,736.6000001430511,2,r,v,1,,,
nnp,VDACtest,138,r,true,577.2999999523163,2,r,v,1,,,
nnp,VDACtest,139,r,null,null,1,g,h,3,,,
nnp,VDACtest,140,r,true,690.7999999523163,2,r,h,1,,,
nnp,VDACtest,141,r,false,577.7999999523163,2,r,v,2,,,
nnp,VDACtest,142,r,true,546.2999999523163,1,g,v,5,,,
nnp,VDACtest,143,r,true,528.7000000476837,1,g,h,1,,,
nnp,VDACtest,144,r,false,944.7999999523163,1,g,v,4,,,
nnp,VDACtest,145,r,true,688.8999998569489,1,g,h,0,,,
nnp,VDACtest,146,r,true,975.5999999046326,2,r,v,3,,,
nnp,VDACtest,147,r,true,648.0999999046326,1,g,h,1,,,
nnp,VDACtest,148,r,true,696.8999998569489,2,r,v,5,,,
nnp,VDACtest,149,r,true,495.60000014305115,1,g,v,1,,,
nnp,VDACtest,150,r,false,775.8999998569489,2,r,v,1,,,
brk,brk,brk,brk,brk,brk,brk,brk,brk,brk,brk,brk,
nnp,VDACtest,151,r,true,720.4000000953674,1,g,h,2,,,
nnp,VDACtest,152,r,true,767.7000000476837,1,g,h,4,,,
nnp,VDACtest,153,r,true,592.7000000476837,1,g,h,1,,,
nnp,VDACtest,154,r,true,616.7999999523163,1,g,v,3,,,
nnp,VDACtest,155,r,true,872.4000000953674,2,r,v,4,,,
nnp,VDACtest,156,r,true,673,1,g,h,1,,,
nnp,VDACtest,157,r,true,568.1000001430511,2,r,v,1,,,
nnp,VDACtest,158,r,true,736.4000000953674,2,r,h,0,,,
nnp,VDACtest,159,r,true,584.6000001430511,1,g,v,5,,,
nnp,VDACtest,160,r,true,568.7999999523163,2,r,h,4,,,
nnp,VDACtest,161,r,true,624.4000000953674,1,g,h,3,,,
nnp,VDACtest,162,r,true,888.2000000476837,2,r,h,2,,,
nnp,VDACtest,163,r,true,689,2,r,v,3,,,
nnp,VDACtest,164,r,true,560.9000000953674,2,r,v,0,,,
nnp,VDACtest,165,r,true,720,1,g,h,5,,,
nnp,VDACtest,166,r,true,560.5,2,r,h,1,,,
nnp,VDACtest,167,r,true,647.7000000476837,2,r,h,0,,,
nnp,VDACtest,168,r,true,552.0999999046326,1,g,v,0,,,
nnp,VDACtest,169,r,true,640.3999998569489,2,r,h,2,,,
nnp,VDACtest,170,r,true,527.2000000476837,2,r,h,2,,,
nnp,VDACtest,171,r,true,704,2,r,h,5,,,
nnp,VDACtest,172,r,true,697.8000001907349,1,g,v,3,,,
nnp,VDACtest,173,r,null,null,2,r,v,5,,,
nnp,VDACtest,174,r,true,511.59999990463257,2,r,h,0,,,
nnp,VDACtest,175,r,true,817.8999998569489,1,g,h,1,,,
nnp,VDACtest,176,r,true,599.7000000476837,1,g,v,4,,,
nnp,VDACtest,177,r,false,728.9000000953674,2,r,v,2,,,
nnp,VDACtest,178,r,true,535,2,r,h,1,,,
nnp,VDACtest,179,r,true,560.9000000953674,1,g,v,3,,,
nnp,VDACtest,180,r,true,712.6999998092651,1,g,h,4,,,
nnp,VDACtest,181,r,true,631.7000000476837,2,r,h,3,,,
nnp,VDACtest,182,r,true,568.1999998092651,1,g,h,3,,,
nnp,VDACtest,183,r,false,701.7000000476837,2,r,v,5,,,
nnp,VDACtest,184,r,true,648.7000000476837,2,r,h,2,,,
nnp,VDACtest,185,r,true,816.1000001430511,1,g,h,4,,,
nnp,VDACtest,186,r,true,688.5,1,g,h,1,,,
nnp,VDACtest,187,r,true,497.09999990463257,1,g,h,5,,,
nnp,VDACtest,188,r,true,768,2,r,v,4,,,
nnp,VDACtest,189,r,true,615.2999999523163,1,g,h,2,,,
nnp,VDACtest,190,r,true,521,2,r,h,3,,,
nnp,VDACtest,191,r,true,639.1999998092651,2,r,h,5,,,
nnp,VDACtest,192,r,true,713.4000000953674,1,g,h,0,,,
nnp,VDACtest,193,r,true,809.4000000953674,2,r,h,2,,,
nnp,VDACtest,194,r,true,529.7999999523163,1,g,v,2,,,
nnp,VDACtest,195,r,true,536.7999999523163,1,g,v,2,,,
nnp,VDACtest,196,r,true,816.4000000953674,2,r,v,4,,,
nnp,VDACtest,197,r,true,600.7000000476837,2,r,v,4,,,
nnp,VDACtest,198,r,true,688.2000000476837,1,g,v,5,,,
nnp,VDACtest,199,r,true,721.2999999523163,1,g,h,2,,,
nnp,VDACtest,200,r,true,695.5999999046326,2,r,h,5,,,
nnp,RSVPtrain,0,r,null,null,1,g,,3,0,1,
nnp,RSVPtrain,0,r,false,1680.8999998569489,1,g,,3,1,1,
nnp,RSVPtrain,0,r,true,1651.4000000953674,1,g,,2,2,2,
nnp,RSVPtrain,0,r,true,1233.6000001430511,1,g,,1,0,1,
nnp,RSVPtrain,0,r,true,1042.5999999046326,0,b,,0,3,0,
nnp,RSVPtrain,0,r,true,1235.6000001430511,2,r,,3,2,1,
nnp,RSVPtrain,0,r,true,1026,2,r,,0,0,2,
nnp,RSVPtrain,0,r,true,1069,2,r,,1,1,2,
nnp,RSVPtrain,0,r,true,930,0,b,,1,3,0,
nnp,RSVPtrain,0,r,true,1339.8999998569489,0,b,,3,3,0,
nnp,RSVPtest,1,r,true,1252.2000000476837,1,g,,0,0,2,
nnp,RSVPtest,2,r,true,922.6000001430511,0,b,,3,3,0,
nnp,RSVPtest,3,r,true,1178.1000001430511,2,r,,2,2,2,
nnp,RSVPtest,4,r,true,1042.4000000953674,1,g,,1,1,2,
nnp,RSVPtest,5,r,true,1098.7000000476837,1,g,,0,0,2,
nnp,RSVPtest,6,r,true,1041.4000000953674,2,r,,3,0,1,
nnp,RSVPtest,7,r,true,1019.5999999046326,1,g,,1,0,1,
nnp,RSVPtest,8,r,true,1147.0999999046326,0,b,,1,3,0,
nnp,RSVPtest,9,r,true,1732.1000001430511,0,b,,3,3,0,
nnp,RSVPtest,10,r,true,930.5,0,b,,3,3,0,
nnp,RSVPtest,11,r,false,994.2999999523163,1,g,,3,0,1,
nnp,RSVPtest,12,r,true,1218.5,1,g,,0,0,2,
nnp,RSVPtest,13,r,false,1393.2000000476837,2,r,,1,2,1,
nnp,RSVPtest,14,r,true,993.8999998569489,1,g,,2,2,2,
nnp,RSVPtest,15,r,true,978.8000001907349,1,g,,0,1,1,
nnp,RSVPtest,16,r,true,875.6999998092651,2,r,,0,2,1,
nnp,RSVPtest,17,r,false,1311.4000000953674,1,g,,2,0,1,
nnp,RSVPtest,18,r,true,1130,1,g,,3,0,1,
nnp,RSVPtest,19,r,true,1051.4000000953674,2,r,,2,1,1,
nnp,RSVPtest,20,r,true,1145.7999999523163,2,r,,3,2,1,
nnp,RSVPtest,21,r,true,794.6000001430511,0,b,,3,3,0,
nnp,RSVPtest,22,r,true,1314.8999998569489,0,b,,2,3,0,
nnp,RSVPtest,23,r,true,913,2,r,,2,2,2,
nnp,RSVPtest,24,r,true,793.7999999523163,2,r,,3,0,1,
nnp,RSVPtest,25,r,true,769.2000000476837,2,r,,0,0,2,
nnp,RSVPtest,26,r,true,1184.6999998092651,0,b,,3,3,0,
nnp,RSVPtest,27,r,true,911.2000000476837,0,b,,2,3,0,
nnp,RSVPtest,28,r,true,1532.0999999046326,1,g,,0,1,1,
nnp,RSVPtest,29,r,true,1225.7000000476837,1,g,,3,2,1,
nnp,RSVPtest,30,r,true,1002,2,r,,3,1,1,
nnp,RSVPtest,31,r,false,719.9000000953674,2,r,,1,0,1,
nnp,RSVPtest,32,r,false,1285,2,r,,0,0,2,
nnp,RSVPtest,33,r,true,908.5999999046326,2,r,,3,0,1,
nnp,RSVPtest,34,r,true,1243.9000000953674,1,g,,1,2,1,
nnp,RSVPtest,35,r,true,1120.4000000953674,2,r,,2,1,1,
nnp,RSVPtest,36,r,true,1394.8999998569489,2,r,,1,1,2,
nnp,RSVPtest,37,r,false,1210.0999999046326,2,r,,3,1,1,
nnp,RSVPtest,38,r,true,1160.7999999523163,1,g,,0,0,2,
nnp,RSVPtest,39,r,true,1331,1,g,,3,1,1,
nnp,RSVPtest,40,r,true,1001.5,2,r,,1,0,1,
nnp,RSVPtest,41,r,true,1306.7999999523163,1,g,,1,2,1,
nnp,RSVPtest,42,r,true,717,1,g,,0,1,1,
nnp,RSVPtest,43,r,true,1050.5,1,g,,0,1,1,
nnp,RSVPtest,44,r,true,938.8999998569489,2,r,,1,2,1,
nnp,RSVPtest,45,r,true,882.0999999046326,0,b,,2,3,0,
nnp,RSVPtest,46,r,false,1331.1000001430511,0,b,,3,3,0,
nnp,RSVPtest,47,r,true,1058.3000001907349,0,b,,0,3,0,
nnp,RSVPtest,48,r,false,887.7000000476837,2,r,,3,0,1,
nnp,RSVPtest,49,r,true,834,0,b,,1,3,0,
nnp,RSVPtest,50,r,false,859.2000000476837,0,b,,3,3,0,
nnp,RSVPtest,51,r,false,946.7999999523163,2,r,,1,2,1,
nnp,RSVPtest,52,r,true,978,1,g,,1,1,2,
nnp,RSVPtest,53,r,true,952.4000000953674,0,b,,1,3,0,
nnp,RSVPtest,54,r,false,1031.3999998569489,1,g,,3,0,1,
nnp,RSVPtest,55,r,true,1226.7000000476837,2,r,,3,1,1,
nnp,RSVPtest,56,r,true,1082.7999999523163,1,g,,3,1,1,
nnp,RSVPtest,57,r,true,1162.8999998569489,0,b,,0,3,0,
nnp,RSVPtest,58,r,true,840.2000000476837,2,r,,3,0,1,
nnp,RSVPtest,59,r,true,1356.0999999046326,2,r,,1,2,1,
nnp,RSVPtest,60,r,false,1122.3999998569489,0,b,,1,3,0,
brk,brk,brk,brk,brk,brk,brk,brk,brk,brk,brk,brk,
nnp,RSVPtest,61,r,null,null,2,r,,3,2,1,
nnp,RSVPtest,62,r,false,1061.5,1,g,,1,2,1,
nnp,RSVPtest,63,r,true,1026.3000001907349,2,r,,3,0,1,
nnp,RSVPtest,64,r,true,1009.2999999523163,0,b,,1,3,0,
nnp,RSVPtest,65,r,true,1048.2999999523163,2,r,,1,0,1,
nnp,RSVPtest,66,r,true,1081.0999999046326,2,r,,2,2,2,
nnp,RSVPtest,67,r,true,1005.5,0,b,,3,3,0,
nnp,RSVPtest,68,r,true,1128.6999998092651,1,g,,2,0,1,
nnp,RSVPtest,69,r,true,1095,2,r,,3,1,1,
nnp,RSVPtest,70,r,true,1064.5999999046326,1,g,,3,1,1,
nnp,RSVPtest,71,r,true,1362.3000001907349,2,r,,2,1,1,
nnp,RSVPtest,72,r,false,1018,2,r,,2,0,1,
nnp,RSVPtest,73,r,true,1106.1000001430511,1,g,,3,2,1,
nnp,RSVPtest,74,r,true,1010.1999998092651,2,r,,1,2,1,
nnp,RSVPtest,75,r,false,1146,1,g,,0,2,1,
nnp,RSVPtest,76,r,true,1065.1000001430511,2,r,,3,0,1,
nnp,RSVPtest,77,r,false,1183.5999999046326,0,b,,3,3,0,
nnp,RSVPtest,78,r,true,1178.0999999046326,0,b,,3,3,0,
nnp,RSVPtest,79,r,true,1690.5999999046326,2,r,,0,0,2,
nnp,RSVPtest,80,r,true,1129.9000000953674,0,b,,2,3,0,
nnp,RSVPtest,81,r,true,1161.0999999046326,2,r,,1,1,2,
nnp,RSVPtest,82,r,true,1330,2,r,,2,0,1,
nnp,RSVPtest,83,r,true,1097.0999999046326,2,r,,1,2,1,
nnp,RSVPtest,84,r,false,1402,1,g,,3,2,1,
nnp,RSVPtest,85,r,true,1344.1999998092651,2,r,,1,1,2,
nnp,RSVPtest,86,r,true,1143,1,g,,3,2,1,
nnp,RSVPtest,87,r,true,1210,1,g,,3,0,1,
nnp,RSVPtest,88,r,true,1194.3999998569489,0,b,,2,3,0,
nnp,RSVPtest,89,r,true,1144.2000000476837,0,b,,3,3,0,
nnp,RSVPtest,90,r,true,1257.3000001907349,1,g,,1,2,1,
nnp,RSVPtest,91,r,false,921.7999999523163,2,r,,0,1,1,
nnp,RSVPtest,92,r,true,1016.2999999523163,1,g,,3,0,1,
nnp,RSVPtest,93,r,true,1121.5,0,b,,0,3,0,
nnp,RSVPtest,94,r,true,1304.2999999523163,2,r,,2,2,2,
nnp,RSVPtest,95,r,true,1241.2999999523163,2,r,,0,2,1,
nnp,RSVPtest,96,r,false,1240.7999999523163,2,r,,1,1,2,
nnp,RSVPtest,97,r,true,1103.1000001430511,1,g,,2,2,2,
nnp,RSVPtest,98,r,true,1209.5999999046326,1,g,,2,1,1,
nnp,RSVPtest,99,r,false,1306,2,r,,3,2,1,
nnp,RSVPtest,100,r,true,1088.5,2,r,,3,2,1,
nnp,RSVPtest,101,r,true,1169.9000000953674,1,g,,2,1,1,
nnp,RSVPtest,102,r,true,1201.4000000953674,2,r,,3,2,1,
nnp,RSVPtest,103,r,true,1048.7000000476837,1,g,,3,0,1,
nnp,RSVPtest,104,r,true,1327.7000000476837,1,g,,3,2,1,
nnp,RSVPtest,105,r,true,1223.7000000476837,1,g,,3,2,1,
nnp,RSVPtest,106,r,true,1175.2999999523163,0,b,,2,3,0,
nnp,RSVPtest,107,r,true,1209.8999998569489,1,g,,3,2,1,
nnp,RSVPtest,108,r,true,1191.4000000953674,1,g,,3,1,1,
nnp,RSVPtest,109,r,true,1119.8999998569489,2,r,,3,0,1,
nnp,RSVPtest,110,r,true,1063.7999999523163,0,b,,2,3,0,
nnp,RSVPtest,111,r,true,1150.3999998569489,1,g,,0,0,2,
nnp,RSVPtest,112,r,true,1200.2999999523163,2,r,,2,2,2,
nnp,RSVPtest,113,r,true,1058.0999999046326,2,r,,2,0,1,
nnp,RSVPtest,114,r,true,1038.2999999523163,1,g,,2,2,2,
nnp,RSVPtest,115,r,true,1511.2000000476837,2,r,,2,0,1,
nnp,RSVPtest,116,r,true,1655.7999999523163,0,b,,3,3,0,
nnp,RSVPtest,117,r,true,1399.5,0,b,,3,3,0,
nnp,RSVPtest,118,r,true,1425.3999998569489,0,b,,2,3,0,
nnp,RSVPtest,119,r,true,1041.4000000953674,1,g,,3,2,1,
nnp,RSVPtest,120,r,true,1136.4000000953674,0,b,,3,3,0,
brk,brk,brk,brk,brk,brk,brk,brk,brk,brk,brk,brk,
nnp,RSVPtest,121,r,false,1331,2,r,,3,2,1,
nnp,RSVPtest,122,r,true,907.1000001430511,1,g,,0,2,1,
nnp,RSVPtest,123,r,true,946.7000000476837,2,r,,2,2,2,
nnp,RSVPtest,124,r,true,848.7000000476837,2,r,,0,1,1,
nnp,RSVPtest,125,r,true,858.2999999523163,0,b,,1,3,0,
nnp,RSVPtest,126,r,true,746.2000000476837,1,g,,3,1,1,
nnp,RSVPtest,127,r,true,928.3999998569489,2,r,,1,1,2,
nnp,RSVPtest,128,r,true,899.2000000476837,1,g,,0,2,1,
nnp,RSVPtest,129,r,true,944.5999999046326,1,g,,1,0,1,
nnp,RSVPtest,130,r,true,1009.1000001430511,1,g,,3,1,1,
nnp,RSVPtest,131,r,true,1033.7999999523163,0,b,,0,3,0,
nnp,RSVPtest,132,r,true,911.7000000476837,0,b,,2,3,0,
nnp,RSVPtest,133,r,true,1192.5,2,r,,0,0,2,
nnp,RSVPtest,134,r,true,1179,1,g,,3,0,1,
nnp,RSVPtest,135,r,true,1177.4000000953674,1,g,,0,2,1,
nnp,RSVPtest,136,r,true,1144.7000000476837,1,g,,0,1,1,
nnp,RSVPtest,137,r,true,1152.6000001430511,1,g,,3,1,1,
nnp,RSVPtest,138,r,true,1011.8000001907349,0,b,,1,3,0,
nnp,RSVPtest,139,r,true,1145.8000001907349,1,g,,2,1,1,
nnp,RSVPtest,140,r,true,887.9000000953674,2,r,,1,0,1,
nnp,RSVPtest,141,r,true,1015.0999999046326,1,g,,1,1,2,
nnp,RSVPtest,142,r,true,1050.1000001430511,2,r,,3,0,1,
nnp,RSVPtest,143,r,true,1057.7000000476837,1,g,,0,0,2,
nnp,RSVPtest,144,r,true,903.5,1,g,,2,0,1,
nnp,RSVPtest,145,r,true,912.2000000476837,1,g,,2,0,1,
nnp,RSVPtest,146,r,true,1464.1999998092651,2,r,,0,2,1,
nnp,RSVPtest,147,r,true,1104,2,r,,3,1,1,
nnp,RSVPtest,148,r,true,855.7000000476837,1,g,,2,1,1,
nnp,RSVPtest,149,r,true,1207.1999998092651,2,r,,2,1,1,
nnp,RSVPtest,150,r,true,852.6000001430511,2,r,,0,2,1,
nnp,RSVPtest,151,r,true,799.5,0,b,,0,3,0,
nnp,RSVPtest,152,r,true,553.5,1,g,,0,2,1,
nnp,RSVPtest,153,r,true,639.0999999046326,1,g,,2,0,1,
nnp,RSVPtest,154,r,true,1133.7999999523163,2,r,,3,2,1,
nnp,RSVPtest,155,r,true,1040.0999999046326,2,r,,3,2,1,
nnp,RSVPtest,156,r,true,1175.0999999046326,2,r,,3,1,1,
nnp,RSVPtest,157,r,true,1119.5,0,b,,1,3,0,
nnp,RSVPtest,158,r,true,1085.5999999046326,2,r,,3,1,1,
nnp,RSVPtest,159,r,true,671.8999998569489,1,g,,1,0,1,
nnp,RSVPtest,160,r,true,1143.8999998569489,2,r,,3,0,1,
nnp,RSVPtest,161,r,true,1183.7000000476837,0,b,,3,3,0,
nnp,RSVPtest,162,r,false,989.4000000953674,1,g,,3,2,1,
nnp,RSVPtest,163,r,false,1153.7999999523163,1,g,,2,0,1,
nnp,RSVPtest,164,r,true,782.7999999523163,1,g,,2,2,2,
nnp,RSVPtest,165,r,false,1150.2000000476837,0,b,,1,3,0,
nnp,RSVPtest,166,r,true,534.4000000953674,2,r,,3,0,1,
nnp,RSVPtest,167,r,true,705.8999998569489,0,b,,3,3,0,
nnp,RSVPtest,168,r,true,937,1,g,,2,1,1,
nnp,RSVPtest,169,r,true,890.4000000953674,2,r,,3,1,1,
nnp,RSVPtest,170,r,false,929.6000001430511,1,g,,2,1,1,
nnp,RSVPtest,171,r,true,1056.9000000953674,2,r,,0,0,2,
nnp,RSVPtest,172,r,true,992,2,r,,0,2,1,
nnp,RSVPtest,173,r,true,1003.5999999046326,2,r,,2,0,1,
nnp,RSVPtest,174,r,true,785,2,r,,3,2,1,
nnp,RSVPtest,175,r,true,903.6000001430511,2,r,,0,2,1,
nnp,RSVPtest,176,r,true,776,1,g,,3,0,1,
nnp,RSVPtest,177,r,true,833.3000001907349,0,b,,1,3,0,
nnp,RSVPtest,178,r,false,774.8999998569489,1,g,,3,0,1,
nnp,RSVPtest,179,r,true,784.6000001430511,1,g,,3,1,1,
nnp,RSVPtest,180,r,false,1111,2,r,,3,2,1,
brk,brk,brk,brk,brk,brk,brk,brk,brk,brk,brk,brk,
nnp,RSVPtest,181,r,false,1047,1,g,,1,0,1,
nnp,RSVPtest,182,r,true,943.3000001907349,2,r,,3,2,1,
nnp,RSVPtest,183,r,true,780.5,2,r,,3,1,1,
nnp,RSVPtest,184,r,false,1061.8000001907349,2,r,,3,0,1,
nnp,RSVPtest,185,r,true,945.9000000953674,1,g,,3,1,1,
nnp,RSVPtest,186,r,true,911.5999999046326,2,r,,2,0,1,
nnp,RSVPtest,187,r,true,888.2999999523163,0,b,,3,3,0,
nnp,RSVPtest,188,r,true,1135.7999999523163,0,b,,3,3,0,
nnp,RSVPtest,189,r,true,1277.8999998569489,0,b,,3,3,0,
nnp,RSVPtest,190,r,false,1225.2000000476837,1,g,,3,0,1,
nnp,RSVPtest,191,r,true,1000.6000001430511,2,r,,1,0,1,
nnp,RSVPtest,192,r,true,909.6000001430511,0,b,,2,3,0,
nnp,RSVPtest,193,r,true,927.7999999523163,1,g,,0,1,1,
nnp,RSVPtest,194,r,false,1358.2999999523163,0,b,,1,3,0,
nnp,RSVPtest,195,r,true,982.8000001907349,1,g,,1,0,1,
nnp,RSVPtest,196,r,false,836,2,r,,3,1,1,
nnp,RSVPtest,197,r,true,976.2000000476837,1,g,,1,2,1,
nnp,RSVPtest,198,r,true,975.2000000476837,0,b,,0,3,0,
nnp,RSVPtest,199,r,true,998.5999999046326,0,b,,0,3,0,
nnp,RSVPtest,200,r,true,1469.9000000953674,0,b,,3,3,0,
nnp,RSVPtest,201,r,true,987.5,0,b,,3,3,0,
nnp,RSVPtest,202,r,false,1446,0,b,,0,3,0,
nnp,RSVPtest,203,r,true,893,1,g,,1,1,2,
nnp,RSVPtest,204,r,null,null,1,g,,1,0,1,
nnp,RSVPtest,205,r,true,573.5999999046326,1,g,,1,2,1,
nnp,RSVPtest,206,r,true,960,1,g,,3,0,1,
nnp,RSVPtest,207,r,false,910.3999998569489,1,g,,1,1,2,
nnp,RSVPtest,208,r,true,894.4000000953674,1,g,,3,2,1,
nnp,RSVPtest,209,r,true,901.1000001430511,1,g,,2,2,2,
nnp,RSVPtest,210,r,true,744.4000000953674,2,r,,2,1,1,
nnp,RSVPtest,211,r,false,663.1000001430511,0,b,,2,3,0,
nnp,RSVPtest,212,r,true,871.5999999046326,0,b,,1,3,0,
nnp,RSVPtest,213,r,true,742.1000001430511,2,r,,0,1,1,
nnp,RSVPtest,214,r,true,984.5,0,b,,0,3,0,
nnp,RSVPtest,215,r,true,1105.0999999046326,1,g,,3,1,1,
nnp,RSVPtest,216,r,true,809.7999999523163,2,r,,0,1,1,
nnp,RSVPtest,217,r,true,688.7999999523163,0,b,,0,3,0,
nnp,RSVPtest,218,r,true,592.2999999523163,1,g,,1,1,2,
nnp,RSVPtest,219,r,true,767.5999999046326,0,b,,3,3,0,
nnp,RSVPtest,220,r,true,662,1,g,,3,2,1,
nnp,RSVPtest,221,r,true,727.4000000953674,2,r,,1,0,1,
nnp,RSVPtest,222,r,true,590.5999999046326,0,b,,2,3,0,
nnp,RSVPtest,223,r,true,688.2000000476837,2,r,,2,1,1,
nnp,RSVPtest,224,r,true,830.7999999523163,0,b,,0,3,0,
nnp,RSVPtest,225,r,true,606.7999999523163,2,r,,3,2,1,
nnp,RSVPtest,226,r,true,669.7000000476837,0,b,,3,3,0,
nnp,RSVPtest,227,r,true,566.7000000476837,2,r,,3,1,1,
nnp,RSVPtest,228,r,true,752.7999999523163,1,g,,3,2,1,
nnp,RSVPtest,229,r,true,777,2,r,,1,1,2,
nnp,RSVPtest,230,r,true,568.3999998569489,1,g,,0,2,1,
nnp,RSVPtest,231,r,true,704.1000001430511,1,g,,3,1,1,
nnp,RSVPtest,232,r,false,1022.9000000953674,1,g,,3,0,1,
nnp,RSVPtest,233,r,false,774.7000000476837,2,r,,0,1,1,
nnp,RSVPtest,234,r,true,517.9000000953674,2,r,,0,1,1,
nnp,RSVPtest,235,r,true,701.7000000476837,0,b,,3,3,0,
nnp,RSVPtest,236,r,true,692.7999999523163,2,r,,0,0,2,
nnp,RSVPtest,237,r,true,527.2000000476837,0,b,,0,3,0,
nnp,RSVPtest,238,r,true,836.7999999523163,1,g,,3,1,1,
nnp,RSVPtest,239,r,false,853,1,g,,2,2,2,
nnp,RSVPtest,240,r,true,590.2999999523163,2,r,,3,1,1,
