subID,trialType,trialNum,cntBalance,correct,rt,rwdType,tgtCol,tgtDir,tgtPos,colPos,colMatch,
mxp,VDACtrain,0,r,null,null,1,g,v,2,,,
mxp,VDACtrain,0,r,true,663,1,g,v,5,,,
mxp,VDACtrain,0,r,true,531.8999999910593,2,r,v,4,,,
mxp,VDACtrain,0,r,true,506.70000000298023,2,r,v,3,,,
mxp,VDACtrain,0,r,true,555.5,2,r,h,0,,,
mxp,VDACtrain,0,r,true,587.4000000059605,1,g,h,3,,,
mxp,VDACtrain,0,r,true,491.90000000596046,2,r,h,2,,,
mxp,VDACtrain,0,r,false,505.40000000596046,1,g,h,5,,,
mxp,VDACtrain,0,r,false,533.2999999970198,1,g,v,0,,,
mxp,VDACtrain,0,r,true,805.3999999910593,2,r,h,1,,,
mxp,VDACtrain,0,r,true,708,1,g,h,5,,,
mxp,VDACtrain,0,r,true,571.2999999970198,1,g,v,0,,,
mxp,VDACtrain,0,r,true,563.5,1,g,v,2,,,
mxp,VDACtrain,0,r,true,477.79999999701977,1,g,h,3,,,
mxp,VDACtrain,0,r,true,556.4000000059605,2,r,h,0,,,
mxp,VDACtrain,0,r,true,555.7999999970198,1,g,v,5,,,
mxp,VDACtrain,0,r,true,556.5999999940395,2,r,v,3,,,
mxp,VDACtrain,0,r,true,668.6999999880791,2,r,v,4,,,
mxp,VDACtrain,0,r,true,524.8999999910593,2,r,h,2,,,
mxp,VDACtrain,0,r,true,637.3999999910593,2,r,h,1,,,
mxp,VDACtest,1,r,true,650.5999999940395,2,r,h,3,,,
mxp,VDACtest,2,r,true,587.7999999970198,2,r,h,3,,,
mxp,VDACtest,3,r,true,397.20000000298023,2,r,v,4,,,
mxp,VDACtest,4,r,true,453.40000000596046,2,r,v,1,,,
mxp,VDACtest,5,r,true,524.7000000029802,1,g,h,0,,,
mxp,VDACtest,6,r,true,667,2,r,v,5,,,
mxp,VDACtest,7,r,true,428.40000000596046,2,r,h,3,,,
mxp,VDACtest,8,r,false,523.7000000029802,1,g,v,2,,,
mxp,VDACtest,9,r,true,780.7000000029802,1,g,v,5,,,
mxp,VDACtest,10,r,true,533.7000000029802,2,r,v,3,,,
mxp,VDACtest,11,r,true,411.79999999701977,1,g,v,0,,,
mxp,VDACtest,12,r,true,443.5,2,r,v,4,,,
mxp,VDACtest,13,r,false,485.90000000596046,2,r,v,1,,,
mxp,VDACtest,14,r,true,490.79999999701977,1,g,v,1,,,
mxp,VDACtest,15,r,true,669.0999999940395,1,g,v,3,,,
mxp,VDACtest,16,r,true,372.5,2,r,h,0,,,
mxp,VDACtest,17,r,true,675.1999999880791,1,g,v,0,,,
mxp,VDACtest,18,r,true,460.29999999701977,2,r,h,1,,,
mxp,VDACtest,19,r,false,492.29999999701977,2,r,v,2,,,
mxp,VDACtest,20,r,true,644.0999999940395,2,r,h,3,,,
mxp,VDACtest,21,r,true,612.5,1,g,h,1,,,
mxp,VDACtest,22,r,true,548.2999999970198,2,r,h,0,,,
mxp,VDACtest,23,r,true,498.70000000298023,1,g,v,4,,,
mxp,VDACtest,24,r,true,524.9000000059605,1,g,v,5,,,
mxp,VDACtest,25,r,true,460.59999999403954,2,r,h,4,,,
mxp,VDACtest,26,r,true,467.30000001192093,1,g,h,2,,,
mxp,VDACtest,27,r,true,444.29999999701977,1,g,h,5,,,
mxp,VDACtest,28,r,true,477.09999999403954,1,g,h,5,,,
mxp,VDACtest,29,r,true,404.5,1,g,h,4,,,
mxp,VDACtest,30,r,false,404.20000000298023,1,g,v,2,,,
mxp,VDACtest,31,r,false,531.8999999910593,2,r,v,2,,,
mxp,VDACtest,32,r,true,578.5,2,r,v,5,,,
mxp,VDACtest,33,r,true,644.7999999970198,1,g,h,1,,,
mxp,VDACtest,34,r,true,363.90000000596046,1,g,h,2,,,
mxp,VDACtest,35,r,true,596.3999999910593,1,g,v,4,,,
mxp,VDACtest,36,r,true,684.7999999970198,2,r,h,4,,,
mxp,VDACtest,37,r,true,860.8999999910593,2,r,v,1,,,
mxp,VDACtest,38,r,true,442.59999999403954,1,g,h,1,,,
mxp,VDACtest,39,r,true,419.70000000298023,1,g,h,1,,,
mxp,VDACtest,40,r,true,484.20000000298023,2,r,h,4,,,
mxp,VDACtest,41,r,true,475,2,r,h,5,,,
mxp,VDACtest,42,r,true,506.09999999403954,1,g,h,0,,,
mxp,VDACtest,43,r,true,468.20000000298023,2,r,h,4,,,
mxp,VDACtest,44,r,true,462.5,1,g,v,1,,,
mxp,VDACtest,45,r,true,468.09999999403954,2,r,h,5,,,
mxp,VDACtest,46,r,true,762.6000000089407,2,r,v,2,,,
mxp,VDACtest,47,r,true,727.7000000029802,2,r,v,0,,,
mxp,VDACtest,48,r,true,492.79999999701977,2,r,v,5,,,
mxp,VDACtest,49,r,true,540.0999999940395,2,r,h,5,,,
mxp,VDACtest,50,r,true,522.9000000059605,1,g,v,0,,,
brk,brk,brk,brk,brk,brk,brk,brk,brk,brk,brk,brk,
mxp,VDACtest,51,r,true,562.2999999970198,1,g,h,5,,,
mxp,VDACtest,52,r,true,507.30000001192093,1,g,h,5,,,
mxp,VDACtest,53,r,true,541.1000000089407,2,r,h,4,,,
mxp,VDACtest,54,r,true,509,1,g,h,0,,,
mxp,VDACtest,55,r,true,428.40000000596046,2,r,h,2,,,
mxp,VDACtest,56,r,true,594.5,2,r,v,3,,,
mxp,VDACtest,57,r,true,604.2999999970198,2,r,v,2,,,
mxp,VDACtest,58,r,true,539.0999999940395,1,g,h,2,,,
mxp,VDACtest,59,r,true,538.2000000029802,1,g,v,1,,,
mxp,VDACtest,60,r,true,596.4000000059605,2,r,v,3,,,
mxp,VDACtest,61,r,null,null,1,g,v,4,,,
mxp,VDACtest,62,r,true,549,2,r,h,4,,,
mxp,VDACtest,63,r,true,475.70000000298023,2,r,v,0,,,
mxp,VDACtest,64,r,true,595,2,r,h,1,,,
mxp,VDACtest,65,r,true,508,1,g,h,1,,,
mxp,VDACtest,66,r,true,459.40000000596046,2,r,h,5,,,
mxp,VDACtest,67,r,true,498.90000000596046,1,g,h,1,,,
mxp,VDACtest,68,r,true,587.4000000059605,2,r,v,1,,,
mxp,VDACtest,69,r,true,429.5,1,g,h,5,,,
mxp,VDACtest,70,r,true,539.2999999970198,1,g,h,5,,,
mxp,VDACtest,71,r,true,636.4000000059605,2,r,v,4,,,
mxp,VDACtest,72,r,true,532,2,r,h,0,,,
mxp,VDACtest,73,r,true,668.2999999970198,1,g,v,4,,,
mxp,VDACtest,74,r,true,483.59999999403954,2,r,h,1,,,
mxp,VDACtest,75,r,false,411.6000000089407,2,r,h,5,,,
mxp,VDACtest,76,r,true,554.7999999970198,2,r,h,0,,,
mxp,VDACtest,77,r,true,542.1000000089407,2,r,v,5,,,
mxp,VDACtest,78,r,true,508.70000000298023,1,g,h,4,,,
mxp,VDACtest,79,r,true,706.8999999910593,1,g,v,1,,,
mxp,VDACtest,80,r,true,557.2000000029802,1,g,h,3,,,
mxp,VDACtest,81,r,true,589.2999999970198,2,r,v,0,,,
mxp,VDACtest,82,r,true,628.7999999970198,2,r,v,3,,,
mxp,VDACtest,83,r,true,498.79999999701977,1,g,h,2,,,
mxp,VDACtest,84,r,true,380,1,g,h,2,,,
mxp,VDACtest,85,r,true,515.1999999880791,1,g,h,4,,,
mxp,VDACtest,86,r,true,789.1999999880791,1,g,v,0,,,
mxp,VDACtest,87,r,true,547.2000000029802,2,r,h,0,,,
mxp,VDACtest,88,r,true,732.4000000059605,1,g,h,4,,,
mxp,VDACtest,89,r,true,621.5,2,r,h,2,,,
mxp,VDACtest,90,r,false,212.6000000089407,1,g,v,2,,,
mxp,VDACtest,91,r,true,612.8000000119209,2,r,v,5,,,
mxp,VDACtest,92,r,true,555.9000000059605,1,g,h,4,,,
mxp,VDACtest,93,r,true,467.3999999910593,2,r,h,2,,,
mxp,VDACtest,94,r,true,971.8000000119209,1,g,v,4,,,
mxp,VDACtest,95,r,true,356.5,2,r,v,4,,,
mxp,VDACtest,96,r,true,588.5,1,g,v,1,,,
mxp,VDACtest,97,r,true,500.09999999403954,1,g,v,5,,,
mxp,VDACtest,98,r,true,716.5999999940395,1,g,h,1,,,
mxp,VDACtest,99,r,true,428.5,2,r,h,3,,,
mxp,VDACtest,100,r,true,516.6000000089407,1,g,v,5,,,
brk,brk,brk,brk,brk,brk,brk,brk,brk,brk,brk,brk,
mxp,VDACtest,101,r,true,700.9000000059605,1,g,h,0,,,
mxp,VDACtest,102,r,true,562,2,r,v,2,,,
mxp,VDACtest,103,r,true,412.70000000298023,1,g,v,3,,,
mxp,VDACtest,104,r,false,517.2999999970198,2,r,v,3,,,
mxp,VDACtest,105,r,true,490.6000000089407,1,g,v,0,,,
mxp,VDACtest,106,r,true,467.79999999701977,2,r,v,0,,,
mxp,VDACtest,107,r,true,467.70000000298023,2,r,h,0,,,
mxp,VDACtest,108,r,true,469.79999999701977,1,g,h,3,,,
mxp,VDACtest,109,r,true,667.1000000089407,2,r,v,2,,,
mxp,VDACtest,110,r,true,517,2,r,h,2,,,
mxp,VDACtest,111,r,true,676,2,r,v,0,,,
mxp,VDACtest,112,r,true,708.7000000029802,2,r,v,5,,,
mxp,VDACtest,113,r,true,481.3999999910593,1,g,v,4,,,
mxp,VDACtest,114,r,false,491.29999999701977,2,r,h,2,,,
mxp,VDACtest,115,r,true,484.70000000298023,1,g,h,5,,,
mxp,VDACtest,116,r,true,412.5,1,g,h,2,,,
mxp,VDACtest,117,r,true,499.79999999701977,1,g,v,3,,,
mxp,VDACtest,118,r,true,555.7999999970198,1,g,v,3,,,
mxp,VDACtest,119,r,true,827.0999999940395,2,r,v,2,,,
mxp,VDACtest,120,r,true,491.70000000298023,2,r,h,1,,,
mxp,VDACtest,121,r,true,563.5,2,r,h,2,,,
mxp,VDACtest,122,r,true,603.5,1,g,v,4,,,
mxp,VDACtest,123,r,true,667.0999999940395,1,g,h,2,,,
mxp,VDACtest,124,r,true,410.29999999701977,1,g,h,3,,,
mxp,VDACtest,125,r,true,531.9000000059605,2,r,v,1,,,
mxp,VDACtest,126,r,true,564,1,g,v,5,,,
mxp,VDACtest,127,r,true,572.7999999970198,1,g,h,0,,,
mxp,VDACtest,128,r,true,547.7000000029802,1,g,h,3,,,
mxp,VDACtest,129,r,true,507.3999999910593,1,g,h,2,,,
mxp,VDACtest,130,r,true,540.0999999940395,2,r,v,3,,,
mxp,VDACtest,131,r,true,652.2999999970198,2,r,v,4,,,
mxp,VDACtest,132,r,true,426.40000000596046,1,g,v,1,,,
mxp,VDACtest,133,r,true,522.5,2,r,v,5,,,
mxp,VDACtest,134,r,true,435,1,g,v,3,,,
mxp,VDACtest,135,r,true,539,1,g,h,3,,,
mxp,VDACtest,136,r,true,395.5,2,r,v,0,,,
mxp,VDACtest,137,r,true,516.2999999970198,2,r,v,5,,,
mxp,VDACtest,138,r,true,680.6999999880791,2,r,h,4,,,
mxp,VDACtest,139,r,true,627.5,1,g,v,2,,,
mxp,VDACtest,140,r,true,619.9000000059605,2,r,h,1,,,
mxp,VDACtest,141,r,true,572.5,2,r,h,2,,,
mxp,VDACtest,142,r,true,586.5999999940395,1,g,v,0,,,
mxp,VDACtest,143,r,true,428,1,g,v,4,,,
mxp,VDACtest,144,r,true,700.2999999970198,2,r,h,1,,,
mxp,VDACtest,145,r,true,476.6000000089407,1,g,h,3,,,
mxp,VDACtest,146,r,true,466.59999999403954,2,r,h,3,,,
mxp,VDACtest,147,r,true,523.1000000089407,2,r,v,4,,,
mxp,VDACtest,148,r,true,579.7000000029802,2,r,v,1,,,
mxp,VDACtest,149,r,true,564.4000000059605,1,g,v,0,,,
mxp,VDACtest,150,r,true,572.3999999910593,1,g,h,0,,,
brk,brk,brk,brk,brk,brk,brk,brk,brk,brk,brk,brk,
mxp,VDACtest,151,r,true,475.5,2,r,v,0,,,
mxp,VDACtest,152,r,true,650.5999999940395,1,g,v,5,,,
mxp,VDACtest,153,r,true,573.5,1,g,h,0,,,
mxp,VDACtest,154,r,true,626.5999999940395,2,r,v,1,,,
mxp,VDACtest,155,r,true,442.20000000298023,1,g,v,5,,,
mxp,VDACtest,156,r,true,515.2999999970198,1,g,v,2,,,
mxp,VDACtest,157,r,true,501,1,g,v,1,,,
mxp,VDACtest,158,r,true,436.29999999701977,1,g,v,1,,,
mxp,VDACtest,159,r,true,572,2,r,h,2,,,
mxp,VDACtest,160,r,true,548.1000000089407,1,g,h,4,,,
mxp,VDACtest,161,r,false,708.5,2,r,v,1,,,
mxp,VDACtest,162,r,true,620,1,g,v,5,,,
mxp,VDACtest,163,r,true,492.29999999701977,2,r,h,0,,,
mxp,VDACtest,164,r,false,579.6000000089407,1,g,v,2,,,
mxp,VDACtest,165,r,true,540.5,2,r,h,5,,,
mxp,VDACtest,166,r,true,497.79999999701977,1,g,v,3,,,
mxp,VDACtest,167,r,true,433.79999999701977,1,g,v,4,,,
mxp,VDACtest,168,r,true,684.4000000059605,2,r,v,3,,,
mxp,VDACtest,169,r,true,492.5,1,g,h,1,,,
mxp,VDACtest,170,r,true,602.5,2,r,v,3,,,
mxp,VDACtest,171,r,true,572.7000000029802,1,g,v,2,,,
mxp,VDACtest,172,r,true,546.9000000059605,1,g,h,1,,,
mxp,VDACtest,173,r,true,482.29999999701977,1,g,v,1,,,
mxp,VDACtest,174,r,true,701.0999999940395,2,r,v,4,,,
mxp,VDACtest,175,r,true,435.30000001192093,2,r,v,4,,,
mxp,VDACtest,176,r,true,755.3999999910593,2,r,h,1,,,
mxp,VDACtest,177,r,true,579.9000000059605,1,g,h,5,,,
mxp,VDACtest,178,r,true,515.7000000029802,2,r,h,3,,,
mxp,VDACtest,179,r,true,490.59999999403954,1,g,h,3,,,
mxp,VDACtest,180,r,true,941.6000000089407,1,g,v,2,,,
mxp,VDACtest,181,r,true,506.20000000298023,1,g,v,3,,,
mxp,VDACtest,182,r,true,515.5,2,r,h,4,,,
mxp,VDACtest,183,r,true,555.6000000089407,2,r,h,5,,,
mxp,VDACtest,184,r,true,540.8999999910593,1,g,h,4,,,
mxp,VDACtest,185,r,true,410.70000000298023,1,g,h,0,,,
mxp,VDACtest,186,r,true,460.90000000596046,2,r,h,3,,,
mxp,VDACtest,187,r,true,630.7000000029802,1,g,h,4,,,
mxp,VDACtest,188,r,true,455,2,r,v,4,,,
mxp,VDACtest,189,r,true,462.70000000298023,1,g,h,3,,,
mxp,VDACtest,190,r,true,534.7999999970198,2,r,h,4,,,
mxp,VDACtest,191,r,true,623.1999999880791,1,g,h,4,,,
mxp,VDACtest,192,r,true,568.4000000059605,2,r,v,1,,,
mxp,VDACtest,193,r,true,478.59999999403954,2,r,h,1,,,
mxp,VDACtest,194,r,false,506.5,1,g,v,0,,,
mxp,VDACtest,195,r,true,474.29999999701977,2,r,h,0,,,
mxp,VDACtest,196,r,true,539.5,2,r,v,2,,,
mxp,VDACtest,197,r,true,483.59999999403954,1,g,v,3,,,
mxp,VDACtest,198,r,true,468,2,r,v,0,,,
mxp,VDACtest,199,r,true,490.70000000298023,2,r,h,5,,,
mxp,VDACtest,200,r,true,523.4000000059605,2,r,h,1,,,
mxp,RSVPtrain,0,r,true,1570.7999999970198,2,r,,3,2,1,
mxp,RSVPtrain,0,r,false,1413.699999988079,1,g,,1,0,1,
mxp,RSVPtrain,0,r,true,1195.6000000089407,2,r,,1,1,2,
mxp,RSVPtrain,0,r,false,694.1999999880791,0,b,,0,3,0,
mxp,RSVPtrain,0,r,true,1541,1,g,,2,2,2,
mxp,RSVPtrain,0,r,true,1165.5,0,b,,3,3,0,
mxp,RSVPtrain,0,r,true,1101.3999999910593,1,g,,3,0,1,
mxp,RSVPtrain,0,r,true,1543.2999999970198,2,r,,0,0,2,
mxp,RSVPtrain,0,r,true,885.2000000029802,1,g,,3,1,1,
mxp,RSVPtrain,0,r,false,1144.5,0,b,,1,3,0,
mxp,RSVPtest,1,r,true,1040.9000000059605,2,r,,0,0,2,
mxp,RSVPtest,2,r,false,1077.8999999910593,1,g,,3,0,1,
mxp,RSVPtest,3,r,true,823.6999999880791,2,r,,1,0,1,
mxp,RSVPtest,4,r,true,797.2999999970198,2,r,,0,1,1,
mxp,RSVPtest,5,r,false,975.2999999970198,1,g,,1,0,1,
mxp,RSVPtest,6,r,true,972.7000000029802,0,b,,3,3,0,
mxp,RSVPtest,7,r,false,1263.7000000029802,2,r,,0,1,1,
mxp,RSVPtest,8,r,true,1342.1000000089407,2,r,,3,1,1,
mxp,RSVPtest,9,r,true,1136.2000000029802,2,r,,3,0,1,
mxp,RSVPtest,10,r,true,1311.5999999940395,2,r,,1,1,2,
mxp,RSVPtest,11,r,true,823.3000000119209,1,g,,2,0,1,
mxp,RSVPtest,12,r,true,813.9000000059605,2,r,,1,0,1,
mxp,RSVPtest,13,r,false,1159.7000000029802,1,g,,0,1,1,
mxp,RSVPtest,14,r,true,1270,1,g,,3,0,1,
mxp,RSVPtest,15,r,true,1325.5,1,g,,2,1,1,
mxp,RSVPtest,16,r,false,1109.7000000029802,0,b,,3,3,0,
mxp,RSVPtest,17,r,true,1877.5999999940395,2,r,,0,2,1,
mxp,RSVPtest,18,r,true,885.2999999970198,1,g,,0,1,1,
mxp,RSVPtest,19,r,true,1006.2999999970198,0,b,,3,3,0,
mxp,RSVPtest,20,r,true,796.1999999880791,2,r,,1,2,1,
mxp,RSVPtest,21,r,false,1534.2000000029802,0,b,,3,3,0,
mxp,RSVPtest,22,r,true,1045.199999988079,2,r,,3,2,1,
mxp,RSVPtest,23,r,true,893,2,r,,0,2,1,
mxp,RSVPtest,24,r,false,1391.2000000029802,1,g,,2,0,1,
mxp,RSVPtest,25,r,false,981.7000000029802,1,g,,1,1,2,
mxp,RSVPtest,26,r,true,887.0999999940395,1,g,,2,2,2,
mxp,RSVPtest,27,r,true,829.3999999910593,0,b,,2,3,0,
mxp,RSVPtest,28,r,false,1371.3999999910593,1,g,,2,0,1,
mxp,RSVPtest,29,r,true,821.7000000029802,1,g,,1,1,2,
mxp,RSVPtest,30,r,true,853.7999999970198,1,g,,3,2,1,
mxp,RSVPtest,31,r,true,893.9000000059605,0,b,,3,3,0,
mxp,RSVPtest,32,r,true,849.7999999970198,0,b,,3,3,0,
mxp,RSVPtest,33,r,true,1421.800000011921,2,r,,0,0,2,
mxp,RSVPtest,34,r,true,882.2999999970198,1,g,,3,0,1,
mxp,RSVPtest,35,r,true,1240.2000000029802,1,g,,0,1,1,
mxp,RSVPtest,36,r,false,892.5999999940395,2,r,,1,0,1,
mxp,RSVPtest,37,r,true,658.5999999940395,1,g,,1,1,2,
mxp,RSVPtest,38,r,true,2093,1,g,,3,2,1,
mxp,RSVPtest,39,r,false,884.9000000059605,1,g,,1,1,2,
mxp,RSVPtest,40,r,false,1299.6000000089407,2,r,,2,2,2,
mxp,RSVPtest,41,r,false,683.0999999940395,2,r,,2,1,1,
mxp,RSVPtest,42,r,true,748.5,0,b,,0,3,0,
mxp,RSVPtest,43,r,true,773.2999999970198,1,g,,0,0,2,
mxp,RSVPtest,44,r,true,917,1,g,,0,2,1,
mxp,RSVPtest,45,r,true,518.5999999940395,1,g,,2,2,2,
mxp,RSVPtest,46,r,true,429.19999998807907,2,r,,2,2,2,
mxp,RSVPtest,47,r,true,1142.5999999940395,1,g,,3,2,1,
mxp,RSVPtest,48,r,false,893.0999999940395,1,g,,3,1,1,
mxp,RSVPtest,49,r,true,797.0999999940395,2,r,,3,1,1,
mxp,RSVPtest,50,r,true,652.7999999970198,2,r,,1,1,2,
mxp,RSVPtest,51,r,true,884.7000000029802,0,b,,3,3,0,
mxp,RSVPtest,52,r,true,1286.5999999940395,0,b,,1,3,0,
mxp,RSVPtest,53,r,true,458.90000000596046,0,b,,0,3,0,
mxp,RSVPtest,54,r,false,950.7999999970198,2,r,,3,1,1,
mxp,RSVPtest,55,r,true,1293.0999999940395,2,r,,1,2,1,
mxp,RSVPtest,56,r,true,885.4000000059605,0,b,,3,3,0,
mxp,RSVPtest,57,r,true,872.2999999970198,1,g,,3,0,1,
mxp,RSVPtest,58,r,true,1252.4000000059605,2,r,,2,0,1,
mxp,RSVPtest,59,r,true,1061.4000000059605,2,r,,3,2,1,
mxp,RSVPtest,60,r,true,1068.199999988079,2,r,,2,1,1,
brk,brk,brk,brk,brk,brk,brk,brk,brk,brk,brk,brk,
mxp,RSVPtest,61,r,true,721.9000000059605,0,b,,1,3,0,
mxp,RSVPtest,62,r,false,918.5,2,r,,2,1,1,
mxp,RSVPtest,63,r,true,1541.2999999970198,0,b,,0,3,0,
mxp,RSVPtest,64,r,true,677.0999999940395,1,g,,3,0,1,
mxp,RSVPtest,65,r,false,837.5,0,b,,1,3,0,
mxp,RSVPtest,66,r,false,1460.699999988079,0,b,,1,3,0,
mxp,RSVPtest,67,r,true,1189,2,r,,0,0,2,
mxp,RSVPtest,68,r,false,1363.6000000089407,1,g,,1,2,1,
mxp,RSVPtest,69,r,false,1161.6000000089407,0,b,,0,3,0,
mxp,RSVPtest,70,r,true,844.4000000059605,0,b,,3,3,0,
mxp,RSVPtest,71,r,false,1165.1000000089407,0,b,,0,3,0,
mxp,RSVPtest,72,r,false,1481.2999999970198,0,b,,3,3,0,
mxp,RSVPtest,73,r,true,1012.3999999910593,2,r,,3,2,1,
mxp,RSVPtest,74,r,true,796.3999999910593,2,r,,2,1,1,
mxp,RSVPtest,75,r,true,1458.9000000059605,2,r,,0,2,1,
mxp,RSVPtest,76,r,true,1204.7000000029802,1,g,,3,1,1,
mxp,RSVPtest,77,r,true,868.5,1,g,,0,0,2,
mxp,RSVPtest,78,r,false,1250.699999988079,2,r,,2,0,1,
mxp,RSVPtest,79,r,true,2124.1000000089407,1,g,,3,1,1,
mxp,RSVPtest,80,r,true,1290.7000000029802,0,b,,3,3,0,
mxp,RSVPtest,81,r,false,517.2000000029802,2,r,,3,0,1,
mxp,RSVPtest,82,r,true,972.2000000029802,2,r,,3,0,1,
mxp,RSVPtest,83,r,false,2108.1000000089407,1,g,,0,1,1,
mxp,RSVPtest,84,r,true,1091.4000000059605,1,g,,3,1,1,
mxp,RSVPtest,85,r,true,1078.0999999940395,0,b,,1,3,0,
mxp,RSVPtest,86,r,true,1323.3999999910593,1,g,,3,2,1,
mxp,RSVPtest,87,r,false,1012.3000000119209,0,b,,0,3,0,
mxp,RSVPtest,88,r,true,939.6000000089407,1,g,,3,1,1,
mxp,RSVPtest,89,r,true,1189.300000011921,1,g,,2,1,1,
mxp,RSVPtest,90,r,true,1277.8999999910593,2,r,,3,1,1,
mxp,RSVPtest,91,r,false,662.2000000029802,0,b,,2,3,0,
mxp,RSVPtest,92,r,false,1044.2999999970198,1,g,,0,0,2,
mxp,RSVPtest,93,r,false,972.7000000029802,2,r,,2,0,1,
mxp,RSVPtest,94,r,false,1460.2000000029802,2,r,,3,2,1,
mxp,RSVPtest,95,r,false,979.2000000029802,0,b,,1,3,0,
mxp,RSVPtest,96,r,true,1053.9000000059605,0,b,,2,3,0,
mxp,RSVPtest,97,r,true,1397.7999999970198,1,g,,3,2,1,
mxp,RSVPtest,98,r,true,1292,0,b,,1,3,0,
mxp,RSVPtest,99,r,false,1764.4000000059605,1,g,,3,2,1,
mxp,RSVPtest,100,r,false,1379.6000000089407,0,b,,0,3,0,
mxp,RSVPtest,101,r,false,762.4000000059605,0,b,,3,3,0,
mxp,RSVPtest,102,r,true,1307.0999999940395,1,g,,3,0,1,
mxp,RSVPtest,103,r,false,1122.5999999940395,1,g,,1,2,1,
mxp,RSVPtest,104,r,true,1070.5999999940395,2,r,,3,0,1,
mxp,RSVPtest,105,r,true,1230.5,1,g,,3,1,1,
mxp,RSVPtest,106,r,false,1538.5,1,g,,2,1,1,
mxp,RSVPtest,107,r,false,1275.6000000089407,0,b,,0,3,0,
mxp,RSVPtest,108,r,true,1949.0999999940395,2,r,,0,0,2,
mxp,RSVPtest,109,r,false,1394.2999999970198,2,r,,2,0,1,
mxp,RSVPtest,110,r,false,884.8999999910593,1,g,,2,2,2,
mxp,RSVPtest,111,r,true,948.7999999970198,1,g,,3,2,1,
mxp,RSVPtest,112,r,false,940.6000000089407,2,r,,2,0,1,
mxp,RSVPtest,113,r,true,788.2000000029802,2,r,,3,2,1,
mxp,RSVPtest,114,r,true,1059.2999999970198,2,r,,1,1,2,
mxp,RSVPtest,115,r,true,1107.4000000059605,2,r,,1,1,2,
mxp,RSVPtest,116,r,true,516.7999999970198,2,r,,3,1,1,
mxp,RSVPtest,117,r,false,796.5,0,b,,3,3,0,
mxp,RSVPtest,118,r,true,1017.7999999970198,2,r,,3,1,1,
mxp,RSVPtest,119,r,false,836.5999999940395,0,b,,0,3,0,
mxp,RSVPtest,120,r,true,721.7000000029802,2,r,,3,1,1,
brk,brk,brk,brk,brk,brk,brk,brk,brk,brk,brk,brk,
mxp,RSVPtest,121,r,false,730.9000000059605,1,g,,1,0,1,
mxp,RSVPtest,122,r,true,642.9000000059605,1,g,,3,2,1,
mxp,RSVPtest,123,r,false,329.79999999701977,1,g,,1,2,1,
mxp,RSVPtest,124,r,false,1682.5999999940395,0,b,,1,3,0,
mxp,RSVPtest,125,r,true,531.3999999910593,1,g,,3,2,1,
mxp,RSVPtest,126,r,true,939.2999999970198,1,g,,3,1,1,
mxp,RSVPtest,127,r,true,1498.7999999970198,0,b,,3,3,0,
mxp,RSVPtest,128,r,true,1122.5999999940395,1,g,,1,0,1,
mxp,RSVPtest,129,r,true,1420.1000000089407,2,r,,3,0,1,
mxp,RSVPtest,130,r,false,1738.699999988079,0,b,,3,3,0,
mxp,RSVPtest,131,r,false,693.9000000059605,0,b,,0,3,0,
mxp,RSVPtest,132,r,true,820.5999999940395,2,r,,3,2,1,
mxp,RSVPtest,133,r,true,819.5,0,b,,3,3,0,
mxp,RSVPtest,134,r,true,964.9000000059605,2,r,,3,2,1,
mxp,RSVPtest,135,r,true,851.6999999880791,2,r,,0,2,1,
mxp,RSVPtest,136,r,true,1020.7000000029802,1,g,,1,1,2,
mxp,RSVPtest,137,r,true,1212.2000000029802,2,r,,1,2,1,
mxp,RSVPtest,138,r,false,916.8999999910593,1,g,,0,0,2,
mxp,RSVPtest,139,r,false,468.79999999701977,0,b,,2,3,0,
mxp,RSVPtest,140,r,false,2187.0999999940395,2,r,,1,2,1,
mxp,RSVPtest,141,r,true,1156.0999999940395,2,r,,3,1,1,
mxp,RSVPtest,142,r,false,1100.1000000089407,0,b,,1,3,0,
mxp,RSVPtest,143,r,true,1227.9000000059605,1,g,,2,0,1,
mxp,RSVPtest,144,r,true,1163.7999999970198,2,r,,0,2,1,
mxp,RSVPtest,145,r,true,1282.0999999940395,2,r,,3,2,1,
mxp,RSVPtest,146,r,false,1154.5,1,g,,1,0,1,
mxp,RSVPtest,147,r,true,620.4000000059605,0,b,,3,3,0,
mxp,RSVPtest,148,r,true,1473.300000011921,1,g,,3,1,1,
mxp,RSVPtest,149,r,false,852.2000000029802,2,r,,2,2,2,
mxp,RSVPtest,150,r,true,730.7999999970198,1,g,,3,2,1,
mxp,RSVPtest,151,r,true,755.2999999970198,0,b,,3,3,0,
mxp,RSVPtest,152,r,false,227.5,1,g,,0,2,1,
mxp,RSVPtest,153,r,true,762.5999999940395,1,g,,3,0,1,
mxp,RSVPtest,154,r,null,null,2,r,,1,0,1,
mxp,RSVPtest,155,r,true,774.7999999970198,2,r,,0,1,1,
mxp,RSVPtest,156,r,false,700.5999999940395,0,b,,2,3,0,
mxp,RSVPtest,157,r,true,945.2000000029802,0,b,,2,3,0,
mxp,RSVPtest,158,r,true,681.5999999940395,2,r,,3,2,1,
mxp,RSVPtest,159,r,true,1314.2999999970198,2,r,,0,0,2,
mxp,RSVPtest,160,r,false,1083.2000000029802,1,g,,0,1,1,
mxp,RSVPtest,161,r,false,1041.8999999910593,0,b,,0,3,0,
mxp,RSVPtest,162,r,false,785.2000000029802,0,b,,3,3,0,
mxp,RSVPtest,163,r,false,787,1,g,,0,2,1,
mxp,RSVPtest,164,r,true,1314.1000000089407,1,g,,0,2,1,
mxp,RSVPtest,165,r,true,827,1,g,,3,1,1,
mxp,RSVPtest,166,r,true,1305.4000000059605,2,r,,2,1,1,
mxp,RSVPtest,167,r,true,881.6000000089407,2,r,,3,0,1,
mxp,RSVPtest,168,r,true,1018.0999999940395,1,g,,3,0,1,
mxp,RSVPtest,169,r,false,763.7999999970198,1,g,,1,1,2,
mxp,RSVPtest,170,r,true,298.5,1,g,,3,2,1,
mxp,RSVPtest,171,r,false,1987,2,r,,1,2,1,
mxp,RSVPtest,172,r,true,779,0,b,,3,3,0,
mxp,RSVPtest,173,r,true,1530.4000000059605,2,r,,0,1,1,
mxp,RSVPtest,174,r,true,505.29999999701977,2,r,,3,0,1,
mxp,RSVPtest,175,r,true,1691,2,r,,3,2,1,
mxp,RSVPtest,176,r,true,705.8999999910593,2,r,,3,1,1,
mxp,RSVPtest,177,r,true,922.0999999940395,1,g,,3,0,1,
mxp,RSVPtest,178,r,true,975.7999999970198,2,r,,3,0,1,
mxp,RSVPtest,179,r,true,862.2000000029802,2,r,,3,1,1,
mxp,RSVPtest,180,r,true,1226.7999999970198,1,g,,1,0,1,
brk,brk,brk,brk,brk,brk,brk,brk,brk,brk,brk,brk,
mxp,RSVPtest,181,r,false,460.20000000298023,0,b,,1,3,0,
mxp,RSVPtest,182,r,false,922.1000000089407,1,g,,0,0,2,
mxp,RSVPtest,183,r,true,921.0999999940395,2,r,,1,1,2,
mxp,RSVPtest,184,r,true,826.8999999910593,1,g,,3,1,1,
mxp,RSVPtest,185,r,false,274.29999999701977,1,g,,2,2,2,
mxp,RSVPtest,186,r,false,915.6000000089407,2,r,,0,1,1,
mxp,RSVPtest,187,r,false,882.9000000059605,0,b,,1,3,0,
mxp,RSVPtest,188,r,true,858.7000000029802,1,g,,1,2,1,
mxp,RSVPtest,189,r,true,712.8000000119209,1,g,,1,2,1,
mxp,RSVPtest,190,r,true,1203.8999999910593,2,r,,1,0,1,
mxp,RSVPtest,191,r,true,274.40000000596046,1,g,,3,0,1,
mxp,RSVPtest,192,r,false,1358,1,g,,2,0,1,
mxp,RSVPtest,193,r,true,755,1,g,,3,0,1,
mxp,RSVPtest,194,r,true,1465.2000000029802,0,b,,2,3,0,
mxp,RSVPtest,195,r,true,888.5999999940395,0,b,,3,3,0,
mxp,RSVPtest,196,r,false,840.7999999970198,2,r,,2,2,2,
mxp,RSVPtest,197,r,true,1226.5,2,r,,1,1,2,
mxp,RSVPtest,198,r,true,891.3999999910593,2,r,,0,2,1,
mxp,RSVPtest,199,r,true,956.4000000059605,0,b,,3,3,0,
mxp,RSVPtest,200,r,true,891.7000000029802,1,g,,3,0,1,
mxp,RSVPtest,201,r,true,1251.2000000029802,1,g,,0,2,1,
mxp,RSVPtest,202,r,true,1304.5999999940395,1,g,,2,1,1,
mxp,RSVPtest,203,r,false,970.0999999940395,1,g,,0,1,1,
mxp,RSVPtest,204,r,false,1683,2,r,,0,0,2,
mxp,RSVPtest,205,r,true,1511.9000000059605,0,b,,3,3,0,
mxp,RSVPtest,206,r,true,1195.5,1,g,,3,1,1,
mxp,RSVPtest,207,r,false,577.5,2,r,,2,2,2,
mxp,RSVPtest,208,r,null,null,1,g,,1,0,1,
mxp,RSVPtest,209,r,true,1253.5999999940395,2,r,,2,0,1,
mxp,RSVPtest,210,r,true,1122,2,r,,3,0,1,
mxp,RSVPtest,211,r,false,1377.4000000059605,1,g,,2,2,2,
mxp,RSVPtest,212,r,true,1352,0,b,,2,3,0,
mxp,RSVPtest,213,r,true,1162.9000000059605,1,g,,0,0,2,
mxp,RSVPtest,214,r,true,1017,1,g,,2,2,2,
mxp,RSVPtest,215,r,true,880.6000000089407,2,r,,2,2,2,
mxp,RSVPtest,216,r,false,1302.7000000029802,1,g,,1,2,1,
mxp,RSVPtest,217,r,true,1081.2999999970198,2,r,,0,1,1,
mxp,RSVPtest,218,r,true,1488.0999999940395,0,b,,2,3,0,
mxp,RSVPtest,219,r,true,1681.2000000029802,1,g,,3,1,1,
mxp,RSVPtest,220,r,true,931.7000000029802,1,g,,0,2,1,
mxp,RSVPtest,221,r,false,993.0999999940395,2,r,,2,1,1,
mxp,RSVPtest,222,r,false,2272.7999999970198,0,b,,2,3,0,
mxp,RSVPtest,223,r,true,1250.3999999910593,2,r,,1,0,1,
mxp,RSVPtest,224,r,false,1143.3999999910593,1,g,,2,1,1,
mxp,RSVPtest,225,r,true,891.0999999940395,2,r,,3,1,1,
mxp,RSVPtest,226,r,true,1730.1000000089407,0,b,,1,3,0,
mxp,RSVPtest,227,r,true,970.6000000089407,2,r,,1,2,1,
mxp,RSVPtest,228,r,true,546.5999999940395,0,b,,0,3,0,
mxp,RSVPtest,229,r,true,939,0,b,,2,3,0,
mxp,RSVPtest,230,r,true,952.8000000119209,0,b,,3,3,0,
mxp,RSVPtest,231,r,true,1042.6000000089407,0,b,,2,3,0,
mxp,RSVPtest,232,r,true,1224.300000011921,1,g,,2,1,1,
mxp,RSVPtest,233,r,true,787,2,r,,3,0,1,
mxp,RSVPtest,234,r,false,984.0999999940395,2,r,,3,2,1,
mxp,RSVPtest,235,r,true,851.8999999910593,2,r,,3,0,1,
mxp,RSVPtest,236,r,true,1127.300000011921,2,r,,3,1,1,
mxp,RSVPtest,237,r,false,2122.2999999970198,1,g,,2,0,1,
mxp,RSVPtest,238,r,true,657.3999999910593,1,g,,3,2,1,
mxp,RSVPtest,239,r,true,587.8000000119209,2,r,,3,0,1,
mxp,RSVPtest,240,r,true,675.2999999970198,2,r,,3,2,1,
