subID,trialType,trialNum,cntBalance,correct,rt,rwdType,tgtCol,tgtDir,tgtPos,colPos,colMatch,
z6b,VDACtrain,0,r,null,null,2,r,v,4,,,
z6b,VDACtrain,0,r,null,null,2,r,h,1,,,
z6b,VDACtrain,0,r,null,null,2,r,h,2,,,
z6b,VDACtrain,0,r,false,467.6999999284744,1,g,h,5,,,
z6b,VDACtrain,0,r,false,862.3999999761581,1,g,v,0,,,
z6b,VDACtrain,0,r,true,772.8000000715256,1,g,v,2,,,
z6b,VDACtrain,0,r,true,663.4000000953674,2,r,v,3,,,
z6b,VDACtrain,0,r,true,504.39999997615814,1,g,v,5,,,
z6b,VDACtrain,0,r,true,943.3000000715256,2,r,h,0,,,
z6b,VDACtrain,0,r,true,464.89999997615814,1,g,h,3,,,
z6b,VDACtest,1,r,true,552.7999999523163,1,g,v,3,,,
z6b,VDACtest,2,r,true,638.7000000476837,1,g,h,1,,,
z6b,VDACtest,3,r,false,623.1999999284744,1,g,v,1,,,
z6b,VDACtest,4,r,true,693.8000000715256,1,g,v,5,,,
z6b,VDACtest,5,r,true,693.8999999761581,1,g,h,4,,,
z6b,VDACtest,6,r,false,783.0999999046326,2,r,h,0,,,
z6b,VDACtest,7,r,false,598.5999999046326,1,g,v,3,,,
z6b,VDACtest,8,r,true,631.1000000238419,1,g,v,0,,,
z6b,VDACtest,9,r,true,542,2,r,v,1,,,
z6b,VDACtest,10,r,true,527.2000000476837,1,g,h,2,,,
z6b,VDACtest,11,r,true,463.89999997615814,1,g,h,2,,,
z6b,VDACtest,12,r,false,486.2000000476837,1,g,v,3,,,
z6b,VDACtest,13,r,true,590.2000000476837,1,g,h,2,,,
z6b,VDACtest,14,r,false,543.0999999046326,1,g,h,4,,,
z6b,VDACtest,15,r,true,646.7000000476837,2,r,v,1,,,
z6b,VDACtest,16,r,true,726.6000000238419,2,r,h,1,,,
z6b,VDACtest,17,r,true,693.7999999523163,2,r,v,4,,,
z6b,VDACtest,18,r,true,622.8999999761581,2,r,v,4,,,
z6b,VDACtest,19,r,true,855.7000000476837,2,r,v,0,,,
z6b,VDACtest,20,r,true,509.2000000476837,1,g,h,3,,,
z6b,VDACtest,21,r,false,616.5,1,g,h,5,,,
z6b,VDACtest,22,r,true,743.2999999523163,2,r,v,4,,,
z6b,VDACtest,23,r,true,473,1,g,v,5,,,
z6b,VDACtest,24,r,true,638.7999999523163,1,g,h,5,,,
z6b,VDACtest,25,r,true,512.1000000238419,2,r,v,3,,,
z6b,VDACtest,26,r,true,455.39999997615814,1,g,h,1,,,
z6b,VDACtest,27,r,true,487.89999997615814,1,g,h,2,,,
z6b,VDACtest,28,r,true,488,1,g,h,5,,,
z6b,VDACtest,29,r,true,446.2999999523163,2,r,h,3,,,
z6b,VDACtest,30,r,true,422.90000009536743,2,r,h,1,,,
z6b,VDACtest,31,r,true,751,1,g,v,2,,,
z6b,VDACtest,32,r,true,484.89999997615814,1,g,v,1,,,
z6b,VDACtest,33,r,false,576.5,1,g,v,4,,,
z6b,VDACtest,34,r,false,527.4000000953674,2,r,h,5,,,
z6b,VDACtest,35,r,false,536.0999999046326,1,g,h,0,,,
z6b,VDACtest,36,r,true,359.5,1,g,h,3,,,
z6b,VDACtest,37,r,true,520.5,1,g,h,3,,,
z6b,VDACtest,38,r,true,542.4000000953674,1,g,h,4,,,
z6b,VDACtest,39,r,false,405.5,2,r,h,0,,,
z6b,VDACtest,40,r,true,647.7999999523163,1,g,h,1,,,
z6b,VDACtest,41,r,false,766.9000000953674,2,r,h,1,,,
z6b,VDACtest,42,r,true,613.8999999761581,1,g,v,0,,,
z6b,VDACtest,43,r,true,759.8999999761581,2,r,h,5,,,
z6b,VDACtest,44,r,true,574.7000000476837,2,r,h,0,,,
z6b,VDACtest,45,r,true,492.6999999284744,1,g,h,1,,,
z6b,VDACtest,46,r,null,null,2,r,v,2,,,
z6b,VDACtest,47,r,true,549.2000000476837,2,r,v,5,,,
z6b,VDACtest,48,r,true,545.5,1,g,v,4,,,
z6b,VDACtest,49,r,true,808.8000000715256,2,r,h,4,,,
z6b,VDACtest,50,r,true,686.3999999761581,2,r,h,2,,,
brk,brk,brk,brk,brk,brk,brk,brk,brk,brk,brk,brk,
z6b,VDACtest,51,r,true,790.5,1,g,h,1,,,
z6b,VDACtest,52,r,true,478.6999999284744,2,r,v,1,,,
z6b,VDACtest,53,r,false,641,2,r,h,1,,,
z6b,VDACtest,54,r,false,584.5,1,g,v,2,,,
z6b,VDACtest,55,r,true,398.5,2,r,h,2,,,
z6b,VDACtest,56,r,true,601.3999999761581,2,r,v,2,,,
z6b,VDACtest,57,r,true,592.8999999761581,1,g,v,0,,,
z6b,VDACtest,58,r,true,463,2,r,h,0,,,
z6b,VDACtest,59,r,true,545.6000000238419,2,r,h,5,,,
z6b,VDACtest,60,r,true,376.5,2,r,v,1,,,
z6b,VDACtest,61,r,true,862.8999999761581,1,g,h,4,,,
z6b,VDACtest,62,r,false,999.8999999761581,1,g,v,1,,,
z6b,VDACtest,63,r,true,718.8999999761581,1,g,h,1,,,
z6b,VDACtest,64,r,false,727.3999999761581,2,r,h,4,,,
z6b,VDACtest,65,r,true,933.9000000953674,2,r,h,3,,,
z6b,VDACtest,66,r,true,543.3999999761581,2,r,v,1,,,
z6b,VDACtest,67,r,false,464.2000000476837,1,g,v,3,,,
z6b,VDACtest,68,r,true,887.1999999284744,2,r,v,0,,,
z6b,VDACtest,69,r,true,615.1999999284744,1,g,v,5,,,
z6b,VDACtest,70,r,true,423.6999999284744,2,r,h,3,,,
z6b,VDACtest,71,r,true,616.3000000715256,1,g,v,3,,,
z6b,VDACtest,72,r,true,509.89999997615814,1,g,h,0,,,
z6b,VDACtest,73,r,true,512,1,g,v,5,,,
z6b,VDACtest,74,r,true,776.2999999523163,2,r,h,2,,,
z6b,VDACtest,75,r,true,583,2,r,v,4,,,
z6b,VDACtest,76,r,true,576.1000000238419,2,r,h,1,,,
z6b,VDACtest,77,r,true,661.6000000238419,1,g,h,4,,,
z6b,VDACtest,78,r,false,565.7000000476837,1,g,v,4,,,
z6b,VDACtest,79,r,true,607.1000000238419,1,g,h,3,,,
z6b,VDACtest,80,r,false,837,2,r,h,4,,,
z6b,VDACtest,81,r,true,622.8999999761581,2,r,h,2,,,
z6b,VDACtest,82,r,null,null,2,r,v,3,,,
z6b,VDACtest,83,r,true,526.5,1,g,v,4,,,
z6b,VDACtest,84,r,true,837.2000000476837,2,r,v,0,,,
z6b,VDACtest,85,r,true,590.7999999523163,1,g,h,2,,,
z6b,VDACtest,86,r,true,663.8000000715256,2,r,h,3,,,
z6b,VDACtest,87,r,true,679.1000000238419,2,r,h,5,,,
z6b,VDACtest,88,r,true,430.10000002384186,1,g,v,4,,,
z6b,VDACtest,89,r,true,495.60000002384186,1,g,h,4,,,
z6b,VDACtest,90,r,true,550.7999999523163,1,g,h,4,,,
z6b,VDACtest,91,r,true,581.5999999046326,1,g,v,3,,,
z6b,VDACtest,92,r,false,487.2999999523163,2,r,v,2,,,
z6b,VDACtest,93,r,false,449.39999997615814,1,g,v,2,,,
z6b,VDACtest,94,r,false,655.1000000238419,1,g,h,2,,,
z6b,VDACtest,95,r,true,663.6000000238419,2,r,h,3,,,
z6b,VDACtest,96,r,false,574.7000000476837,1,g,h,4,,,
z6b,VDACtest,97,r,true,520.3999999761581,2,r,h,3,,,
z6b,VDACtest,98,r,true,677.8999999761581,1,g,h,3,,,
z6b,VDACtest,99,r,false,856.1000000238419,2,r,h,0,,,
z6b,VDACtest,100,r,true,469.89999997615814,1,g,h,3,,,
brk,brk,brk,brk,brk,brk,brk,brk,brk,brk,brk,brk,
z6b,VDACtest,101,r,true,917.1000000238419,1,g,h,5,,,
z6b,VDACtest,102,r,true,574.3000000715256,2,r,h,1,,,
z6b,VDACtest,103,r,true,535.7000000476837,2,r,v,5,,,
z6b,VDACtest,104,r,true,519.1000000238419,2,r,v,1,,,
z6b,VDACtest,105,r,false,605.1999999284744,2,r,h,5,,,
z6b,VDACtest,106,r,true,887.1000000238419,2,r,v,3,,,
z6b,VDACtest,107,r,true,695,1,g,v,2,,,
z6b,VDACtest,108,r,true,510.2999999523163,1,g,v,3,,,
z6b,VDACtest,109,r,true,439,1,g,v,4,,,
z6b,VDACtest,110,r,true,524.8999999761581,1,g,v,0,,,
z6b,VDACtest,111,r,true,486.10000002384186,1,g,h,3,,,
z6b,VDACtest,112,r,true,783.7000000476837,1,g,h,0,,,
z6b,VDACtest,113,r,true,494.2000000476837,2,r,v,4,,,
z6b,VDACtest,114,r,true,726.2000000476837,1,g,h,0,,,
z6b,VDACtest,115,r,true,535,2,r,h,0,,,
z6b,VDACtest,116,r,true,477.89999997615814,2,r,v,4,,,
z6b,VDACtest,117,r,true,534.6999999284744,1,g,v,0,,,
z6b,VDACtest,118,r,false,718.6999999284744,1,g,h,0,,,
z6b,VDACtest,119,r,false,607.8999999761581,1,g,v,1,,,
z6b,VDACtest,120,r,true,981.7000000476837,2,r,v,0,,,
z6b,VDACtest,121,r,true,583.1999999284744,2,r,v,2,,,
z6b,VDACtest,122,r,true,702.8999999761581,2,r,h,0,,,
z6b,VDACtest,123,r,true,582,1,g,v,4,,,
z6b,VDACtest,124,r,true,662,2,r,h,2,,,
z6b,VDACtest,125,r,true,621.2999999523163,1,g,v,2,,,
z6b,VDACtest,126,r,true,614.4000000953674,1,g,h,0,,,
z6b,VDACtest,127,r,true,589.2000000476837,1,g,h,3,,,
z6b,VDACtest,128,r,true,509.60000002384186,2,r,v,3,,,
z6b,VDACtest,129,r,true,527.7999999523163,2,r,h,1,,,
z6b,VDACtest,130,r,true,758.5,1,g,h,2,,,
z6b,VDACtest,131,r,true,590.1999999284744,1,g,v,4,,,
z6b,VDACtest,132,r,true,735.7999999523163,1,g,h,1,,,
z6b,VDACtest,133,r,true,566.5,2,r,h,4,,,
z6b,VDACtest,134,r,true,519.3999999761581,2,r,h,3,,,
z6b,VDACtest,135,r,true,501.6999999284744,1,g,v,5,,,
z6b,VDACtest,136,r,true,526.1999999284744,2,r,h,2,,,
z6b,VDACtest,137,r,true,486.39999997615814,1,g,v,1,,,
z6b,VDACtest,138,r,true,550.3999999761581,2,r,h,4,,,
z6b,VDACtest,139,r,true,592.1000000238419,1,g,v,1,,,
z6b,VDACtest,140,r,true,502,2,r,v,0,,,
z6b,VDACtest,141,r,true,398.40000009536743,2,r,v,0,,,
z6b,VDACtest,142,r,true,429.8000000715256,2,r,v,0,,,
z6b,VDACtest,143,r,true,446.5,1,g,v,3,,,
z6b,VDACtest,144,r,true,453.2000000476837,1,g,v,1,,,
z6b,VDACtest,145,r,true,534.2000000476837,1,g,v,2,,,
z6b,VDACtest,146,r,true,608.5,1,g,h,1,,,
z6b,VDACtest,147,r,true,446.2000000476837,2,r,h,2,,,
z6b,VDACtest,148,r,true,550.3000000715256,1,g,v,4,,,
z6b,VDACtest,149,r,true,726.7000000476837,1,g,v,5,,,
z6b,VDACtest,150,r,true,493.89999997615814,1,g,v,2,,,
brk,brk,brk,brk,brk,brk,brk,brk,brk,brk,brk,brk,
z6b,VDACtest,151,r,true,416,2,r,v,5,,,
z6b,VDACtest,152,r,true,557.3000000715256,1,g,v,1,,,
z6b,VDACtest,153,r,true,623.6000000238419,1,g,h,5,,,
z6b,VDACtest,154,r,true,519.8999999761581,2,r,h,4,,,
z6b,VDACtest,155,r,true,517.5,2,r,v,3,,,
z6b,VDACtest,156,r,true,517.7000000476837,1,g,h,1,,,
z6b,VDACtest,157,r,true,471.6999999284744,2,r,v,4,,,
z6b,VDACtest,158,r,false,519.5,2,r,v,2,,,
z6b,VDACtest,159,r,true,494,2,r,h,1,,,
z6b,VDACtest,160,r,true,534.5999999046326,1,g,v,5,,,
z6b,VDACtest,161,r,true,615.6000000238419,2,r,h,4,,,
z6b,VDACtest,162,r,true,494.60000002384186,1,g,v,0,,,
z6b,VDACtest,163,r,true,584,2,r,v,4,,,
z6b,VDACtest,164,r,true,766.3999999761581,2,r,v,0,,,
z6b,VDACtest,165,r,true,550.5,1,g,h,5,,,
z6b,VDACtest,166,r,true,480.10000002384186,2,r,v,3,,,
z6b,VDACtest,167,r,true,504,2,r,v,5,,,
z6b,VDACtest,168,r,true,470.09999990463257,2,r,v,5,,,
z6b,VDACtest,169,r,true,454.89999997615814,2,r,v,3,,,
z6b,VDACtest,170,r,true,446.5,1,g,v,5,,,
z6b,VDACtest,171,r,true,471.89999997615814,2,r,v,4,,,
z6b,VDACtest,172,r,true,693.7999999523163,1,g,v,0,,,
z6b,VDACtest,173,r,true,479.8000000715256,2,r,v,1,,,
z6b,VDACtest,174,r,true,471.60000002384186,2,r,v,5,,,
z6b,VDACtest,175,r,true,542.2999999523163,2,r,h,5,,,
z6b,VDACtest,176,r,true,525.7000000476837,2,r,h,4,,,
z6b,VDACtest,177,r,true,679.7000000476837,2,r,v,2,,,
z6b,VDACtest,178,r,true,485.89999997615814,1,g,h,0,,,
z6b,VDACtest,179,r,true,582.6000000238419,1,g,v,2,,,
z6b,VDACtest,180,r,true,446.10000002384186,1,g,h,2,,,
z6b,VDACtest,181,r,true,670.8000000715256,1,g,h,4,,,
z6b,VDACtest,182,r,true,853.1999999284744,2,r,v,1,,,
z6b,VDACtest,183,r,true,647.5,2,r,h,3,,,
z6b,VDACtest,184,r,true,837.8999999761581,2,r,v,5,,,
z6b,VDACtest,185,r,true,541.3999999761581,2,r,v,3,,,
z6b,VDACtest,186,r,true,647.1999999284744,2,r,v,1,,,
z6b,VDACtest,187,r,true,424.3000000715256,1,g,v,1,,,
z6b,VDACtest,188,r,true,470.40000009536743,2,r,h,0,,,
z6b,VDACtest,189,r,true,519.5,2,r,h,4,,,
z6b,VDACtest,190,r,true,479.5,1,g,h,0,,,
z6b,VDACtest,191,r,true,839,2,r,v,2,,,
z6b,VDACtest,192,r,false,461.8000000715256,1,g,h,5,,,
z6b,VDACtest,193,r,false,566.6000000238419,2,r,h,1,,,
z6b,VDACtest,194,r,true,517.6999999284744,1,g,v,0,,,
z6b,VDACtest,195,r,false,464.7000000476837,1,g,h,5,,,
z6b,VDACtest,196,r,true,414.6999999284744,2,r,v,5,,,
z6b,VDACtest,197,r,false,643.8000000715256,2,r,h,2,,,
z6b,VDACtest,198,r,true,782.8000000715256,2,r,h,5,,,
z6b,VDACtest,199,r,true,565.5,2,r,v,2,,,
z6b,VDACtest,200,r,true,726.3999999761581,2,r,h,5,,,
z6b,RSVPtrain,0,r,false,1792.6000000238419,0,b,,1,3,0,
z6b,RSVPtrain,0,r,true,1657.2999999523163,0,b,,0,3,0,
z6b,RSVPtrain,0,r,false,943.8999999761581,1,g,,2,2,2,
z6b,RSVPtrain,0,r,false,1032.8000000715256,1,g,,1,0,1,
z6b,RSVPtrain,0,r,true,1563.2000000476837,2,r,,1,1,2,
z6b,RSVPtrain,0,r,true,2055.600000023842,1,g,,3,0,1,
z6b,RSVPtrain,0,r,true,977.6999999284744,1,g,,3,1,1,
z6b,RSVPtrain,0,r,true,1184.8999999761581,2,r,,0,0,2,
z6b,RSVPtrain,0,r,true,1159.1999999284744,2,r,,3,2,1,
z6b,RSVPtrain,0,r,true,999.6000000238419,0,b,,3,3,0,
z6b,RSVPtest,1,r,false,1344.3999999761581,1,g,,3,2,1,
z6b,RSVPtest,2,r,true,1378.8999999761581,2,r,,0,1,1,
z6b,RSVPtest,3,r,true,1129.5,1,g,,2,2,2,
z6b,RSVPtest,4,r,true,896.8000000715256,1,g,,2,2,2,
z6b,RSVPtest,5,r,true,1003.1999999284744,0,b,,2,3,0,
z6b,RSVPtest,6,r,true,1178.7000000476837,2,r,,3,1,1,
z6b,RSVPtest,7,r,false,634.7999999523163,0,b,,3,3,0,
z6b,RSVPtest,8,r,false,1592.6000000238419,1,g,,0,0,2,
z6b,RSVPtest,9,r,true,1108.7000000476837,2,r,,3,1,1,
z6b,RSVPtest,10,r,true,816.8999999761581,1,g,,3,2,1,
z6b,RSVPtest,11,r,true,465.5,0,b,,2,3,0,
z6b,RSVPtest,12,r,true,865.6000000238419,1,g,,0,2,1,
z6b,RSVPtest,13,r,true,578.2000000476837,2,r,,3,0,1,
z6b,RSVPtest,14,r,false,1689.3999999761581,2,r,,3,1,1,
z6b,RSVPtest,15,r,true,866,1,g,,1,1,2,
z6b,RSVPtest,16,r,false,1088.1000000238419,1,g,,1,2,1,
z6b,RSVPtest,17,r,true,1242.3000000715256,0,b,,2,3,0,
z6b,RSVPtest,18,r,true,952.6999999284744,0,b,,0,3,0,
z6b,RSVPtest,19,r,true,809.5,1,g,,1,0,1,
z6b,RSVPtest,20,r,true,679.3999999761581,0,b,,1,3,0,
z6b,RSVPtest,21,r,true,858.1000000238419,1,g,,2,0,1,
z6b,RSVPtest,22,r,true,655.3999999761581,1,g,,2,0,1,
z6b,RSVPtest,23,r,true,615.8999999761581,1,g,,0,1,1,
z6b,RSVPtest,24,r,true,600.5,2,r,,3,0,1,
z6b,RSVPtest,25,r,true,481.39999997615814,1,g,,3,1,1,
z6b,RSVPtest,26,r,true,440.2000000476837,0,b,,2,3,0,
z6b,RSVPtest,27,r,true,896,2,r,,1,2,1,
z6b,RSVPtest,28,r,true,569.2999999523163,0,b,,1,3,0,
z6b,RSVPtest,29,r,false,1031.8999999761581,1,g,,2,1,1,
z6b,RSVPtest,30,r,true,1193.7000000476837,1,g,,0,2,1,
z6b,RSVPtest,31,r,true,1280.3000000715256,1,g,,0,1,1,
z6b,RSVPtest,32,r,true,785,1,g,,1,2,1,
z6b,RSVPtest,33,r,true,778.4000000953674,1,g,,3,0,1,
z6b,RSVPtest,34,r,true,1071.7999999523163,2,r,,3,2,1,
z6b,RSVPtest,35,r,true,1745.2000000476837,1,g,,1,1,2,
z6b,RSVPtest,36,r,true,1095.7000000476837,1,g,,0,0,2,
z6b,RSVPtest,37,r,true,1032.4000000953674,1,g,,1,2,1,
z6b,RSVPtest,38,r,true,630.6999999284744,1,g,,2,2,2,
z6b,RSVPtest,39,r,true,841,1,g,,1,0,1,
z6b,RSVPtest,40,r,true,807.7000000476837,0,b,,3,3,0,
z6b,RSVPtest,41,r,true,879.8999999761581,2,r,,2,2,2,
z6b,RSVPtest,42,r,false,855.7000000476837,1,g,,2,1,1,
z6b,RSVPtest,43,r,true,896.2000000476837,2,r,,3,2,1,
z6b,RSVPtest,44,r,true,802.0999999046326,1,g,,3,2,1,
z6b,RSVPtest,45,r,true,1024,0,b,,0,3,0,
z6b,RSVPtest,46,r,false,615.7999999523163,1,g,,3,0,1,
z6b,RSVPtest,47,r,false,1231.5,2,r,,3,2,1,
z6b,RSVPtest,48,r,false,678,2,r,,1,1,2,
z6b,RSVPtest,49,r,false,550.8999999761581,2,r,,3,0,1,
z6b,RSVPtest,50,r,false,1416.2000000476837,0,b,,3,3,0,
z6b,RSVPtest,51,r,true,847,1,g,,3,1,1,
z6b,RSVPtest,52,r,true,584.2000000476837,2,r,,2,1,1,
z6b,RSVPtest,53,r,true,951.3999999761581,2,r,,3,0,1,
z6b,RSVPtest,54,r,false,824.1000000238419,2,r,,2,1,1,
z6b,RSVPtest,55,r,true,712.3999999761581,1,g,,2,0,1,
z6b,RSVPtest,56,r,false,1129.2999999523163,0,b,,2,3,0,
z6b,RSVPtest,57,r,true,1056.1000000238419,2,r,,0,2,1,
z6b,RSVPtest,58,r,true,1024.2999999523163,2,r,,0,2,1,
z6b,RSVPtest,59,r,true,928.9000000953674,0,b,,3,3,0,
z6b,RSVPtest,60,r,true,1317.0999999046326,0,b,,1,3,0,
brk,brk,brk,brk,brk,brk,brk,brk,brk,brk,brk,brk,
z6b,RSVPtest,61,r,true,1222.7999999523163,1,g,,3,2,1,
z6b,RSVPtest,62,r,true,638.7000000476837,2,r,,0,1,1,
z6b,RSVPtest,63,r,true,783.5,0,b,,0,3,0,
z6b,RSVPtest,64,r,false,440.1999999284744,2,r,,2,0,1,
z6b,RSVPtest,65,r,false,645.5,1,g,,3,1,1,
z6b,RSVPtest,66,r,false,1221.1999999284744,2,r,,1,1,2,
z6b,RSVPtest,67,r,true,534.5,2,r,,0,0,2,
z6b,RSVPtest,68,r,true,369.09999990463257,2,r,,0,0,2,
z6b,RSVPtest,69,r,true,592.3999999761581,1,g,,3,1,1,
z6b,RSVPtest,70,r,true,815.6000000238419,0,b,,0,3,0,
z6b,RSVPtest,71,r,true,567,2,r,,0,2,1,
z6b,RSVPtest,72,r,true,606.7000000476837,2,r,,3,1,1,
z6b,RSVPtest,73,r,false,423.39999997615814,1,g,,3,0,1,
z6b,RSVPtest,74,r,true,821.8000000715256,1,g,,3,1,1,
z6b,RSVPtest,75,r,false,663.3000000715256,0,b,,3,3,0,
z6b,RSVPtest,76,r,true,485.89999997615814,1,g,,2,0,1,
z6b,RSVPtest,77,r,false,454.89999997615814,1,g,,2,2,2,
z6b,RSVPtest,78,r,false,590.2999999523163,0,b,,1,3,0,
z6b,RSVPtest,79,r,true,567.6000000238419,2,r,,1,2,1,
z6b,RSVPtest,80,r,true,1214,0,b,,3,3,0,
z6b,RSVPtest,81,r,true,550.3999999761581,2,r,,3,0,1,
z6b,RSVPtest,82,r,true,568.0999999046326,1,g,,3,2,1,
z6b,RSVPtest,83,r,true,889.3999999761581,0,b,,2,3,0,
z6b,RSVPtest,84,r,true,871.3999999761581,0,b,,3,3,0,
z6b,RSVPtest,85,r,false,1039.5,2,r,,2,0,1,
z6b,RSVPtest,86,r,true,1191.7000000476837,0,b,,1,3,0,
z6b,RSVPtest,87,r,false,1543.8999999761581,0,b,,1,3,0,
z6b,RSVPtest,88,r,true,956.6000000238419,2,r,,0,2,1,
z6b,RSVPtest,89,r,true,671.6000000238419,1,g,,0,2,1,
z6b,RSVPtest,90,r,true,926.8000000715256,1,g,,3,0,1,
z6b,RSVPtest,91,r,true,999.1000000238419,1,g,,2,0,1,
z6b,RSVPtest,92,r,false,902.0999999046326,2,r,,2,2,2,
z6b,RSVPtest,93,r,false,934.8000000715256,1,g,,3,0,1,
z6b,RSVPtest,94,r,false,838.9000000953674,2,r,,3,2,1,
z6b,RSVPtest,95,r,false,743.5999999046326,2,r,,3,0,1,
z6b,RSVPtest,96,r,true,634.1000000238419,2,r,,1,0,1,
z6b,RSVPtest,97,r,true,1168.6000000238419,0,b,,3,3,0,
z6b,RSVPtest,98,r,true,1055.7999999523163,2,r,,2,2,2,
z6b,RSVPtest,99,r,true,832,0,b,,3,3,0,
z6b,RSVPtest,100,r,true,712.5,2,r,,1,0,1,
z6b,RSVPtest,101,r,true,735.6999999284744,2,r,,0,2,1,
z6b,RSVPtest,102,r,true,848,1,g,,0,1,1,
z6b,RSVPtest,103,r,true,792.6000000238419,1,g,,0,1,1,
z6b,RSVPtest,104,r,true,558.3999999761581,2,r,,2,0,1,
z6b,RSVPtest,105,r,true,591.7000000476837,1,g,,2,1,1,
z6b,RSVPtest,106,r,false,606.8999999761581,1,g,,0,0,2,
z6b,RSVPtest,107,r,true,1311.6000000238419,2,r,,0,1,1,
z6b,RSVPtest,108,r,true,661.1000000238419,2,r,,3,0,1,
z6b,RSVPtest,109,r,false,606.5,0,b,,3,3,0,
z6b,RSVPtest,110,r,true,1134.8000000715256,2,r,,2,1,1,
z6b,RSVPtest,111,r,true,766.6999999284744,1,g,,1,1,2,
z6b,RSVPtest,112,r,true,829.2999999523163,0,b,,0,3,0,
z6b,RSVPtest,113,r,true,557.9000000953674,1,g,,2,2,2,
z6b,RSVPtest,114,r,true,711,2,r,,3,1,1,
z6b,RSVPtest,115,r,true,605.3000000715256,1,g,,0,2,1,
z6b,RSVPtest,116,r,true,815.1999999284744,0,b,,0,3,0,
z6b,RSVPtest,117,r,true,549.8999999761581,0,b,,3,3,0,
z6b,RSVPtest,118,r,false,550.2000000476837,0,b,,3,3,0,
z6b,RSVPtest,119,r,true,607.6000000238419,1,g,,2,1,1,
z6b,RSVPtest,120,r,true,532.6000000238419,1,g,,1,0,1,
brk,brk,brk,brk,brk,brk,brk,brk,brk,brk,brk,brk,
z6b,RSVPtest,121,r,true,1106.3999999761581,2,r,,0,1,1,
z6b,RSVPtest,122,r,true,766.6999999284744,0,b,,3,3,0,
z6b,RSVPtest,123,r,true,526.7999999523163,1,g,,2,2,2,
z6b,RSVPtest,124,r,false,604.5,2,r,,3,2,1,
z6b,RSVPtest,125,r,true,390.3000000715256,0,b,,2,3,0,
z6b,RSVPtest,126,r,false,582.8000000715256,0,b,,3,3,0,
z6b,RSVPtest,127,r,false,741.2999999523163,1,g,,3,1,1,
z6b,RSVPtest,128,r,true,1350.1000000238419,2,r,,3,1,1,
z6b,RSVPtest,129,r,true,926.5,2,r,,3,2,1,
z6b,RSVPtest,130,r,true,1166.2999999523163,2,r,,1,1,2,
z6b,RSVPtest,131,r,true,854.3999999761581,1,g,,3,1,1,
z6b,RSVPtest,132,r,true,708.8999999761581,2,r,,0,2,1,
z6b,RSVPtest,133,r,false,991.4000000953674,2,r,,2,2,2,
z6b,RSVPtest,134,r,true,823.6000000238419,2,r,,3,1,1,
z6b,RSVPtest,135,r,true,757.6000000238419,1,g,,3,1,1,
z6b,RSVPtest,136,r,true,862.7000000476837,2,r,,3,1,1,
z6b,RSVPtest,137,r,true,999.8999999761581,0,b,,1,3,0,
z6b,RSVPtest,138,r,false,1423.2000000476837,2,r,,1,2,1,
z6b,RSVPtest,139,r,true,727.8999999761581,0,b,,0,3,0,
z6b,RSVPtest,140,r,true,574.5,2,r,,1,1,2,
z6b,RSVPtest,141,r,true,839.2999999523163,1,g,,3,0,1,
z6b,RSVPtest,142,r,true,1206.7999999523163,2,r,,3,2,1,
z6b,RSVPtest,143,r,true,607.5,1,g,,3,1,1,
z6b,RSVPtest,144,r,true,902.2000000476837,1,g,,3,0,1,
z6b,RSVPtest,145,r,true,824.7999999523163,2,r,,1,2,1,
z6b,RSVPtest,146,r,true,799.6000000238419,1,g,,3,2,1,
z6b,RSVPtest,147,r,true,896.8000000715256,2,r,,3,0,1,
z6b,RSVPtest,148,r,false,718.5,1,g,,3,0,1,
z6b,RSVPtest,149,r,false,464.60000002384186,2,r,,3,1,1,
z6b,RSVPtest,150,r,true,780,1,g,,3,2,1,
z6b,RSVPtest,151,r,true,1583.2999999523163,0,b,,2,3,0,
z6b,RSVPtest,152,r,true,573.1000000238419,2,r,,2,1,1,
z6b,RSVPtest,153,r,true,615,2,r,,1,0,1,
z6b,RSVPtest,154,r,true,847.5,2,r,,3,2,1,
z6b,RSVPtest,155,r,true,734.5,1,g,,3,0,1,
z6b,RSVPtest,156,r,false,823.5,0,b,,3,3,0,
z6b,RSVPtest,157,r,false,1580.9000000953674,1,g,,3,0,1,
z6b,RSVPtest,158,r,true,949.3999999761581,0,b,,3,3,0,
z6b,RSVPtest,159,r,false,509,2,r,,0,0,2,
z6b,RSVPtest,160,r,false,1239.3999999761581,2,r,,1,0,1,
z6b,RSVPtest,161,r,true,925.2000000476837,0,b,,0,3,0,
z6b,RSVPtest,162,r,true,559.2999999523163,2,r,,3,0,1,
z6b,RSVPtest,163,r,true,885,0,b,,3,3,0,
z6b,RSVPtest,164,r,true,1212.1000000238419,1,g,,1,1,2,
z6b,RSVPtest,165,r,true,949.5,2,r,,2,1,1,
z6b,RSVPtest,166,r,false,741.8000000715256,1,g,,3,0,1,
z6b,RSVPtest,167,r,false,581.1999999284744,1,g,,3,2,1,
z6b,RSVPtest,168,r,true,965.7000000476837,1,g,,1,0,1,
z6b,RSVPtest,169,r,false,1781.3999999761581,0,b,,1,3,0,
z6b,RSVPtest,170,r,true,906.5,1,g,,0,2,1,
z6b,RSVPtest,171,r,true,533.6000000238419,2,r,,2,1,1,
z6b,RSVPtest,172,r,true,989.8999999761581,2,r,,1,1,2,
z6b,RSVPtest,173,r,false,1196.8000000715256,0,b,,0,3,0,
z6b,RSVPtest,174,r,true,1214.6999999284744,1,g,,1,1,2,
z6b,RSVPtest,175,r,true,1539.8999999761581,1,g,,1,0,1,
z6b,RSVPtest,176,r,true,861.1000000238419,2,r,,0,0,2,
z6b,RSVPtest,177,r,false,728.8999999761581,1,g,,3,2,1,
z6b,RSVPtest,178,r,true,717.2000000476837,2,r,,2,0,1,
z6b,RSVPtest,179,r,true,613,0,b,,2,3,0,
z6b,RSVPtest,180,r,true,885,2,r,,3,1,1,
brk,brk,brk,brk,brk,brk,brk,brk,brk,brk,brk,brk,
z6b,RSVPtest,181,r,true,663.1000000238419,1,g,,1,2,1,
z6b,RSVPtest,182,r,true,407.59999990463257,0,b,,2,3,0,
z6b,RSVPtest,183,r,false,902.8999999761581,0,b,,1,3,0,
z6b,RSVPtest,184,r,true,680.2000000476837,0,b,,2,3,0,
z6b,RSVPtest,185,r,true,798.1999999284744,1,g,,3,1,1,
z6b,RSVPtest,186,r,true,854.2000000476837,0,b,,3,3,0,
z6b,RSVPtest,187,r,true,600.3999999761581,1,g,,1,2,1,
z6b,RSVPtest,188,r,false,671.3999999761581,1,g,,3,2,1,
z6b,RSVPtest,189,r,false,583.3999999761581,0,b,,3,3,0,
z6b,RSVPtest,190,r,true,397,1,g,,0,2,1,
z6b,RSVPtest,191,r,false,799.2999999523163,1,g,,1,1,2,
z6b,RSVPtest,192,r,true,421.5,2,r,,2,0,1,
z6b,RSVPtest,193,r,true,582.1000000238419,1,g,,0,0,2,
z6b,RSVPtest,194,r,true,720,2,r,,3,0,1,
z6b,RSVPtest,195,r,true,588.1000000238419,0,b,,0,3,0,
z6b,RSVPtest,196,r,true,622.5,2,r,,3,1,1,
z6b,RSVPtest,197,r,true,573.7999999523163,2,r,,0,1,1,
z6b,RSVPtest,198,r,false,391.3000000715256,1,g,,3,2,1,
z6b,RSVPtest,199,r,false,780.5999999046326,1,g,,1,0,1,
z6b,RSVPtest,200,r,true,671.7999999523163,2,r,,0,0,2,
z6b,RSVPtest,201,r,true,540.1000000238419,0,b,,0,3,0,
z6b,RSVPtest,202,r,true,701.1000000238419,1,g,,2,1,1,
z6b,RSVPtest,203,r,true,492.5,2,r,,1,0,1,
z6b,RSVPtest,204,r,true,394.2999999523163,2,r,,1,1,2,
z6b,RSVPtest,205,r,false,543.6000000238419,0,b,,3,3,0,
z6b,RSVPtest,206,r,true,652,2,r,,3,2,1,
z6b,RSVPtest,207,r,true,917.5,2,r,,1,2,1,
z6b,RSVPtest,208,r,true,1491.1000000238419,2,r,,2,2,2,
z6b,RSVPtest,209,r,false,837.3999999761581,1,g,,2,0,1,
z6b,RSVPtest,210,r,true,915.8999999761581,0,b,,3,3,0,
z6b,RSVPtest,211,r,true,583,0,b,,1,3,0,
z6b,RSVPtest,212,r,true,683.6000000238419,2,r,,0,1,1,
z6b,RSVPtest,213,r,true,549.7999999523163,2,r,,1,2,1,
z6b,RSVPtest,214,r,false,1635.1000000238419,2,r,,2,2,2,
z6b,RSVPtest,215,r,true,1005.7999999523163,1,g,,3,2,1,
z6b,RSVPtest,216,r,true,1284.1999999284744,0,b,,1,3,0,
z6b,RSVPtest,217,r,true,790.9000000953674,1,g,,3,0,1,
z6b,RSVPtest,218,r,true,1310.7999999523163,0,b,,2,3,0,
z6b,RSVPtest,219,r,false,772.9000000953674,0,b,,3,3,0,
z6b,RSVPtest,220,r,false,653.6999999284744,0,b,,3,3,0,
z6b,RSVPtest,221,r,true,794.7000000476837,1,g,,3,1,1,
z6b,RSVPtest,222,r,true,1077.3999999761581,1,g,,0,0,2,
z6b,RSVPtest,223,r,false,764.8999999761581,0,b,,3,3,0,
z6b,RSVPtest,224,r,true,908.1000000238419,1,g,,0,0,2,
z6b,RSVPtest,225,r,true,723.7999999523163,2,r,,3,2,1,
z6b,RSVPtest,226,r,true,716.1000000238419,1,g,,0,1,1,
z6b,RSVPtest,227,r,false,756.5,2,r,,3,1,1,
z6b,RSVPtest,228,r,true,646.6000000238419,2,r,,3,2,1,
z6b,RSVPtest,229,r,true,789.8999999761581,1,g,,1,2,1,
z6b,RSVPtest,230,r,true,919.1000000238419,0,b,,1,3,0,
z6b,RSVPtest,231,r,false,863.3999999761581,2,r,,3,0,1,
z6b,RSVPtest,232,r,true,981.5,2,r,,2,0,1,
z6b,RSVPtest,233,r,true,677.6000000238419,2,r,,0,0,2,
z6b,RSVPtest,234,r,true,735.3000000715256,1,g,,0,1,1,
z6b,RSVPtest,235,r,true,620.6000000238419,2,r,,3,2,1,
z6b,RSVPtest,236,r,true,660.3000000715256,2,r,,1,0,1,
z6b,RSVPtest,237,r,true,876.6000000238419,2,r,,3,0,1,
z6b,RSVPtest,238,r,true,829.7000000476837,0,b,,0,3,0,
z6b,RSVPtest,239,r,true,790.1999999284744,1,g,,2,1,1,
z6b,RSVPtest,240,r,true,859.3999999761581,1,g,,3,1,1,
