subID,trialType,trialNum,cntBalance,correct,rt,rwdType,tgtCol,tgtDir,tgtPos,colPos,colMatch,
9gt,VDACtrain,0,r,true,924.7999999970198,2,r,h,0,,,
9gt,VDACtrain,0,r,true,685,1,g,v,5,,,
9gt,VDACtrain,0,r,null,null,1,g,h,3,,,
9gt,VDACtrain,0,r,true,950.0999999940395,2,r,v,4,,,
9gt,VDACtrain,0,r,true,731,1,g,v,2,,,
9gt,VDACtrain,0,r,null,null,1,g,v,0,,,
9gt,VDACtrain,0,r,true,569.9000000059605,2,r,v,3,,,
9gt,VDACtrain,0,r,true,684.0999999940395,2,r,h,2,,,
9gt,VDACtrain,0,r,true,611.7000000029802,2,r,h,1,,,
9gt,VDACtrain,0,r,true,589.2999999970198,1,g,h,5,,,
9gt,VDACtest,1,r,true,968.8999999910593,1,g,h,1,,,
9gt,VDACtest,2,r,true,650.2000000029802,1,g,h,2,,,
9gt,VDACtest,3,r,true,533.7000000029802,1,g,h,3,,,
9gt,VDACtest,4,r,true,914.4000000059605,1,g,h,5,,,
9gt,VDACtest,5,r,true,571.6999999880791,1,g,h,5,,,
9gt,VDACtest,6,r,true,833.7000000029802,1,g,v,5,,,
9gt,VDACtest,7,r,false,897.5,1,g,h,4,,,
9gt,VDACtest,8,r,true,819.2000000029802,1,g,v,4,,,
9gt,VDACtest,9,r,true,592.7999999970198,1,g,h,2,,,
9gt,VDACtest,10,r,true,658.3999999910593,1,g,v,4,,,
9gt,VDACtest,11,r,true,466.3999999910593,1,g,v,4,,,
9gt,VDACtest,12,r,false,610.1000000089407,2,r,v,2,,,
9gt,VDACtest,13,r,false,578.5999999940395,1,g,h,2,,,
9gt,VDACtest,14,r,false,480.79999999701977,2,r,v,2,,,
9gt,VDACtest,15,r,false,850.6000000089407,2,r,v,5,,,
9gt,VDACtest,16,r,true,552.5999999940395,2,r,v,3,,,
9gt,VDACtest,17,r,true,836.0999999940395,1,g,h,0,,,
9gt,VDACtest,18,r,null,null,2,r,h,4,,,
9gt,VDACtest,19,r,true,515.7999999970198,2,r,v,3,,,
9gt,VDACtest,20,r,true,618.5,2,r,v,1,,,
9gt,VDACtest,21,r,true,514.9000000059605,2,r,v,1,,,
9gt,VDACtest,22,r,true,497.5,1,g,v,2,,,
9gt,VDACtest,23,r,false,682.5,1,g,h,0,,,
9gt,VDACtest,24,r,true,714.9000000059605,1,g,v,2,,,
9gt,VDACtest,25,r,null,null,1,g,v,0,,,
9gt,VDACtest,26,r,false,534.5,2,r,v,0,,,
9gt,VDACtest,27,r,true,626,2,r,v,0,,,
9gt,VDACtest,28,r,true,625.2999999970198,1,g,v,1,,,
9gt,VDACtest,29,r,true,778.5,1,g,h,5,,,
9gt,VDACtest,30,r,true,906.5,2,r,h,4,,,
9gt,VDACtest,31,r,true,482,2,r,h,1,,,
9gt,VDACtest,32,r,true,697.4000000059605,1,g,h,4,,,
9gt,VDACtest,33,r,true,529.2999999970198,1,g,h,3,,,
9gt,VDACtest,34,r,true,633.4000000059605,2,r,h,0,,,
9gt,VDACtest,35,r,true,546.7000000029802,1,g,h,2,,,
9gt,VDACtest,36,r,true,578.1000000089407,2,r,h,1,,,
9gt,VDACtest,37,r,true,528.4000000059605,1,g,v,5,,,
9gt,VDACtest,38,r,true,859.7000000029802,1,g,v,1,,,
9gt,VDACtest,39,r,true,506.5,1,g,v,3,,,
9gt,VDACtest,40,r,true,658.6000000089407,1,g,h,4,,,
9gt,VDACtest,41,r,true,540.2999999970198,2,r,v,2,,,
9gt,VDACtest,42,r,true,562.3999999910593,1,g,h,1,,,
9gt,VDACtest,43,r,false,648.9000000059605,2,r,v,4,,,
9gt,VDACtest,44,r,true,523.7000000029802,2,r,h,5,,,
9gt,VDACtest,45,r,true,792.2999999970198,1,g,h,1,,,
9gt,VDACtest,46,r,true,665.6000000089407,1,g,h,3,,,
9gt,VDACtest,47,r,true,490.5,2,r,h,4,,,
9gt,VDACtest,48,r,null,null,2,r,h,3,,,
9gt,VDACtest,49,r,true,691.5999999940395,1,g,h,1,,,
9gt,VDACtest,50,r,null,null,2,r,h,3,,,
brk,brk,brk,brk,brk,brk,brk,brk,brk,brk,brk,brk,
9gt,VDACtest,51,r,true,611.2000000029802,1,g,h,3,,,
9gt,VDACtest,52,r,true,527.2000000029802,2,r,v,5,,,
9gt,VDACtest,53,r,true,513.7999999970198,1,g,v,4,,,
9gt,VDACtest,54,r,true,481.30000001192093,2,r,v,5,,,
9gt,VDACtest,55,r,true,441.59999999403954,2,r,v,1,,,
9gt,VDACtest,56,r,true,409.8999999910593,1,g,h,0,,,
9gt,VDACtest,57,r,true,546.0999999940395,1,g,v,5,,,
9gt,VDACtest,58,r,true,539,2,r,v,3,,,
9gt,VDACtest,59,r,false,544.0999999940395,2,r,v,5,,,
9gt,VDACtest,60,r,false,488.59999999403954,1,g,h,4,,,
9gt,VDACtest,61,r,null,null,1,g,h,5,,,
9gt,VDACtest,62,r,true,508.5,2,r,v,1,,,
9gt,VDACtest,63,r,true,506.70000000298023,2,r,h,3,,,
9gt,VDACtest,64,r,true,447.09999999403954,1,g,v,2,,,
9gt,VDACtest,65,r,true,482.90000000596046,1,g,v,3,,,
9gt,VDACtest,66,r,true,423.20000000298023,1,g,h,0,,,
9gt,VDACtest,67,r,true,449.30000001192093,1,g,h,4,,,
9gt,VDACtest,68,r,true,514.2000000029802,1,g,v,1,,,
9gt,VDACtest,69,r,false,771.5,1,g,v,5,,,
9gt,VDACtest,70,r,true,432.40000000596046,1,g,h,5,,,
9gt,VDACtest,71,r,true,474.09999999403954,2,r,v,0,,,
9gt,VDACtest,72,r,true,363.20000000298023,2,r,v,0,,,
9gt,VDACtest,73,r,true,458.70000000298023,2,r,h,2,,,
9gt,VDACtest,74,r,true,426.69999998807907,1,g,v,3,,,
9gt,VDACtest,75,r,true,448.70000000298023,1,g,v,3,,,
9gt,VDACtest,76,r,true,440.09999999403954,1,g,v,2,,,
9gt,VDACtest,77,r,true,417,2,r,h,4,,,
9gt,VDACtest,78,r,false,582.1000000089407,1,g,h,2,,,
9gt,VDACtest,79,r,false,828.4000000059605,2,r,v,4,,,
9gt,VDACtest,80,r,true,715.5999999940395,2,r,v,3,,,
9gt,VDACtest,81,r,false,600.9000000059605,1,g,h,3,,,
9gt,VDACtest,82,r,true,562.6999999880791,1,g,v,0,,,
9gt,VDACtest,83,r,true,577.9000000059605,1,g,v,1,,,
9gt,VDACtest,84,r,true,474.19999998807907,1,g,v,4,,,
9gt,VDACtest,85,r,true,465.70000000298023,1,g,v,4,,,
9gt,VDACtest,86,r,true,394.30000001192093,2,r,h,0,,,
9gt,VDACtest,87,r,true,443.29999999701977,2,r,h,5,,,
9gt,VDACtest,88,r,true,505.59999999403954,1,g,v,2,,,
9gt,VDACtest,89,r,false,539.0999999940395,2,r,v,2,,,
9gt,VDACtest,90,r,false,554.7999999970198,1,g,h,1,,,
9gt,VDACtest,91,r,true,545.7999999970198,1,g,v,0,,,
9gt,VDACtest,92,r,false,771.2000000029802,2,r,v,3,,,
9gt,VDACtest,93,r,true,808.8999999910593,2,r,h,5,,,
9gt,VDACtest,94,r,true,570.2999999970198,1,g,v,3,,,
9gt,VDACtest,95,r,true,592,1,g,h,4,,,
9gt,VDACtest,96,r,true,723.6000000089407,2,r,h,4,,,
9gt,VDACtest,97,r,false,849.5,2,r,v,0,,,
9gt,VDACtest,98,r,true,596.7999999970198,2,r,v,4,,,
9gt,VDACtest,99,r,true,794.1000000089407,2,r,h,3,,,
9gt,VDACtest,100,r,true,536.5999999940395,1,g,v,2,,,
brk,brk,brk,brk,brk,brk,brk,brk,brk,brk,brk,brk,
9gt,VDACtest,101,r,true,609.6999999880791,1,g,v,0,,,
9gt,VDACtest,102,r,true,401.8999999910593,2,r,h,0,,,
9gt,VDACtest,103,r,true,386.5,2,r,h,1,,,
9gt,VDACtest,104,r,true,490.69999998807907,1,g,h,1,,,
9gt,VDACtest,105,r,true,413,1,g,v,1,,,
9gt,VDACtest,106,r,true,552.5,2,r,h,2,,,
9gt,VDACtest,107,r,true,598.3000000119209,2,r,v,4,,,
9gt,VDACtest,108,r,false,572.2999999970198,1,g,h,5,,,
9gt,VDACtest,109,r,true,594.3999999910593,1,g,h,2,,,
9gt,VDACtest,110,r,true,512.5999999940395,1,g,h,1,,,
9gt,VDACtest,111,r,true,588.2000000029802,1,g,v,3,,,
9gt,VDACtest,112,r,true,560.7999999970198,1,g,v,0,,,
9gt,VDACtest,113,r,true,777.5999999940395,2,r,h,4,,,
9gt,VDACtest,114,r,false,615.2999999970198,1,g,h,0,,,
9gt,VDACtest,115,r,true,505.59999999403954,2,r,h,0,,,
9gt,VDACtest,116,r,true,490.19999998807907,2,r,v,5,,,
9gt,VDACtest,117,r,true,600.2000000029802,1,g,h,4,,,
9gt,VDACtest,118,r,true,388,1,g,v,4,,,
9gt,VDACtest,119,r,true,441.40000000596046,2,r,h,4,,,
9gt,VDACtest,120,r,true,603.3999999910593,2,r,h,5,,,
9gt,VDACtest,121,r,true,557.7999999970198,1,g,h,4,,,
9gt,VDACtest,122,r,true,523.5,1,g,v,2,,,
9gt,VDACtest,123,r,true,457.5,1,g,h,5,,,
9gt,VDACtest,124,r,true,450.3999999910593,2,r,h,4,,,
9gt,VDACtest,125,r,true,378.40000000596046,2,r,h,5,,,
9gt,VDACtest,126,r,true,736.7000000029802,1,g,v,1,,,
9gt,VDACtest,127,r,true,554,2,r,h,1,,,
9gt,VDACtest,128,r,true,449.8999999910593,1,g,h,0,,,
9gt,VDACtest,129,r,true,368,2,r,h,2,,,
9gt,VDACtest,130,r,true,648.2999999970198,2,r,v,1,,,
9gt,VDACtest,131,r,false,433.20000000298023,1,g,h,3,,,
9gt,VDACtest,132,r,true,958,2,r,v,3,,,
9gt,VDACtest,133,r,true,426.5,2,r,v,2,,,
9gt,VDACtest,134,r,true,386.5,2,r,v,2,,,
9gt,VDACtest,135,r,true,393.29999999701977,2,r,h,2,,,
9gt,VDACtest,136,r,true,392,1,g,v,0,,,
9gt,VDACtest,137,r,true,520.6000000089407,2,r,h,1,,,
9gt,VDACtest,138,r,false,738.6000000089407,2,r,v,5,,,
9gt,VDACtest,139,r,true,418.70000000298023,2,r,h,1,,,
9gt,VDACtest,140,r,true,489.5,2,r,v,5,,,
9gt,VDACtest,141,r,true,683.2000000029802,1,g,v,0,,,
9gt,VDACtest,142,r,true,425.29999999701977,1,g,v,3,,,
9gt,VDACtest,143,r,false,691.8999999910593,2,r,v,3,,,
9gt,VDACtest,144,r,true,528.7000000029802,2,r,h,5,,,
9gt,VDACtest,145,r,true,428.3999999910593,1,g,v,5,,,
9gt,VDACtest,146,r,true,470.09999999403954,1,g,h,3,,,
9gt,VDACtest,147,r,true,585.5999999940395,2,r,v,4,,,
9gt,VDACtest,148,r,true,450.3999999910593,2,r,v,3,,,
9gt,VDACtest,149,r,true,528.4000000059605,1,g,v,5,,,
9gt,VDACtest,150,r,true,395.20000000298023,1,g,v,1,,,
brk,brk,brk,brk,brk,brk,brk,brk,brk,brk,brk,brk,
9gt,VDACtest,151,r,true,642.2000000029802,1,g,h,5,,,
9gt,VDACtest,152,r,true,746.8000000119209,2,r,v,0,,,
9gt,VDACtest,153,r,true,473.90000000596046,2,r,h,1,,,
9gt,VDACtest,154,r,true,534.3999999910593,2,r,h,2,,,
9gt,VDACtest,155,r,true,464.5,1,g,h,2,,,
9gt,VDACtest,156,r,null,null,2,r,h,4,,,
9gt,VDACtest,157,r,true,793,1,g,v,4,,,
9gt,VDACtest,158,r,true,432.20000000298023,1,g,v,0,,,
9gt,VDACtest,159,r,true,513.7999999970198,1,g,h,1,,,
9gt,VDACtest,160,r,true,596.5,2,r,v,5,,,
9gt,VDACtest,161,r,true,458,2,r,v,1,,,
9gt,VDACtest,162,r,true,466.1000000089407,1,g,h,0,,,
9gt,VDACtest,163,r,true,777.3000000119209,2,r,v,0,,,
9gt,VDACtest,164,r,true,476.90000000596046,2,r,h,3,,,
9gt,VDACtest,165,r,true,473.09999999403954,1,g,v,4,,,
9gt,VDACtest,166,r,false,561.8999999910593,2,r,v,1,,,
9gt,VDACtest,167,r,false,513,1,g,h,3,,,
9gt,VDACtest,168,r,true,683,1,g,h,0,,,
9gt,VDACtest,169,r,true,634.7999999970198,2,r,h,1,,,
9gt,VDACtest,170,r,true,568.1000000089407,1,g,v,3,,,
9gt,VDACtest,171,r,true,921.7000000029802,2,r,v,1,,,
9gt,VDACtest,172,r,true,479.79999999701977,1,g,v,2,,,
9gt,VDACtest,173,r,false,544.5,2,r,v,4,,,
9gt,VDACtest,174,r,true,738.3000000119209,1,g,v,5,,,
9gt,VDACtest,175,r,true,698.7999999970198,1,g,v,5,,,
9gt,VDACtest,176,r,true,434.79999999701977,2,r,h,2,,,
9gt,VDACtest,177,r,true,419.90000000596046,2,r,h,1,,,
9gt,VDACtest,178,r,false,482.59999999403954,1,g,h,4,,,
9gt,VDACtest,179,r,true,777.5,2,r,v,0,,,
9gt,VDACtest,180,r,true,385.79999999701977,2,r,h,0,,,
9gt,VDACtest,181,r,true,625.5999999940395,2,r,h,2,,,
9gt,VDACtest,182,r,true,633,2,r,v,2,,,
9gt,VDACtest,183,r,true,601.1999999880791,1,g,h,2,,,
9gt,VDACtest,184,r,true,947,2,r,h,3,,,
9gt,VDACtest,185,r,true,409.79999999701977,2,r,h,3,,,
9gt,VDACtest,186,r,true,705.9000000059605,2,r,h,5,,,
9gt,VDACtest,187,r,true,363.20000000298023,2,r,h,5,,,
9gt,VDACtest,188,r,true,755.2000000029802,2,r,h,0,,,
9gt,VDACtest,189,r,true,482.29999999701977,1,g,v,1,,,
9gt,VDACtest,190,r,true,768.2000000029802,2,r,v,4,,,
9gt,VDACtest,191,r,true,707.5,2,r,v,4,,,
9gt,VDACtest,192,r,true,537.8000000119209,2,r,h,0,,,
9gt,VDACtest,193,r,true,639.9000000059605,2,r,h,3,,,
9gt,VDACtest,194,r,true,484.70000000298023,2,r,h,2,,,
9gt,VDACtest,195,r,true,588.7999999970198,1,g,h,1,,,
9gt,VDACtest,196,r,true,627.2000000029802,2,r,v,4,,,
9gt,VDACtest,197,r,true,634.7999999970198,1,g,v,1,,,
9gt,VDACtest,198,r,true,458.29999999701977,2,r,v,2,,,
9gt,VDACtest,199,r,true,457.90000000596046,2,r,h,0,,,
9gt,VDACtest,200,r,true,489.5,2,r,v,1,,,
9gt,RSVPtrain,0,r,true,1720.800000011921,0,b,,0,3,0,
9gt,RSVPtrain,0,r,true,1708.6000000089407,1,g,,3,0,1,
9gt,RSVPtrain,0,r,true,1012.1999999880791,0,b,,3,3,0,
9gt,RSVPtrain,0,r,true,883.2000000029802,1,g,,1,0,1,
9gt,RSVPtrain,0,r,false,1532.5999999940395,1,g,,2,2,2,
9gt,RSVPtrain,0,r,true,1210.7999999970198,1,g,,3,1,1,
9gt,RSVPtrain,0,r,true,899.3999999910593,2,r,,1,1,2,
9gt,RSVPtrain,0,r,false,924.7000000029802,2,r,,3,2,1,
9gt,RSVPtrain,0,r,true,835.2000000029802,0,b,,1,3,0,
9gt,RSVPtrain,0,r,true,1259.2999999970198,2,r,,0,0,2,
9gt,RSVPtest,1,r,true,1057.2000000029802,1,g,,2,2,2,
9gt,RSVPtest,2,r,true,771.5,1,g,,2,0,1,
9gt,RSVPtest,3,r,true,736.7000000029802,2,r,,1,0,1,
9gt,RSVPtest,4,r,true,611.2000000029802,1,g,,0,1,1,
9gt,RSVPtest,5,r,true,778.0999999940395,1,g,,1,0,1,
9gt,RSVPtest,6,r,true,1149,2,r,,3,0,1,
9gt,RSVPtest,7,r,true,902.5,1,g,,3,2,1,
9gt,RSVPtest,8,r,true,708.3999999910593,0,b,,3,3,0,
9gt,RSVPtest,9,r,true,817.5,1,g,,3,0,1,
9gt,RSVPtest,10,r,false,944.0999999940395,0,b,,3,3,0,
9gt,RSVPtest,11,r,true,676.2999999970198,1,g,,1,1,2,
9gt,RSVPtest,12,r,true,706.5999999940395,0,b,,2,3,0,
9gt,RSVPtest,13,r,true,583.5,1,g,,2,0,1,
9gt,RSVPtest,14,r,false,851.2000000029802,0,b,,1,3,0,
9gt,RSVPtest,15,r,true,698.2000000029802,2,r,,2,0,1,
9gt,RSVPtest,16,r,true,624.9000000059605,1,g,,0,0,2,
9gt,RSVPtest,17,r,false,906.5,0,b,,2,3,0,
9gt,RSVPtest,18,r,true,781.4000000059605,0,b,,3,3,0,
9gt,RSVPtest,19,r,true,1069.9000000059605,1,g,,1,1,2,
9gt,RSVPtest,20,r,true,641.3999999910593,2,r,,0,2,1,
9gt,RSVPtest,21,r,true,590.5,0,b,,2,3,0,
9gt,RSVPtest,22,r,false,637.0999999940395,0,b,,3,3,0,
9gt,RSVPtest,23,r,true,1155.4000000059605,2,r,,3,2,1,
9gt,RSVPtest,24,r,true,579.2999999970198,1,g,,0,0,2,
9gt,RSVPtest,25,r,true,851.4000000059605,2,r,,3,1,1,
9gt,RSVPtest,26,r,true,619.5999999940395,2,r,,2,0,1,
9gt,RSVPtest,27,r,true,796.8999999910593,1,g,,3,0,1,
9gt,RSVPtest,28,r,true,694.4000000059605,1,g,,2,1,1,
9gt,RSVPtest,29,r,true,731.3999999910593,1,g,,3,2,1,
9gt,RSVPtest,30,r,false,738.4000000059605,1,g,,3,0,1,
9gt,RSVPtest,31,r,true,740.2999999970198,1,g,,3,0,1,
9gt,RSVPtest,32,r,true,1162.2000000029802,2,r,,3,2,1,
9gt,RSVPtest,33,r,true,727.7000000029802,2,r,,2,0,1,
9gt,RSVPtest,34,r,true,781.2999999970198,1,g,,3,1,1,
9gt,RSVPtest,35,r,true,700.5,0,b,,3,3,0,
9gt,RSVPtest,36,r,false,722.2999999970198,2,r,,3,0,1,
9gt,RSVPtest,37,r,true,560.3999999910593,1,g,,1,0,1,
9gt,RSVPtest,38,r,true,505.59999999403954,2,r,,1,0,1,
9gt,RSVPtest,39,r,true,667.0999999940395,0,b,,3,3,0,
9gt,RSVPtest,40,r,true,786.9000000059605,0,b,,3,3,0,
9gt,RSVPtest,41,r,true,662.7999999970198,1,g,,0,1,1,
9gt,RSVPtest,42,r,true,579.9000000059605,2,r,,0,2,1,
9gt,RSVPtest,43,r,true,564.2999999970198,0,b,,3,3,0,
9gt,RSVPtest,44,r,false,492.3999999910593,1,g,,0,2,1,
9gt,RSVPtest,45,r,false,619.3999999910593,0,b,,0,3,0,
9gt,RSVPtest,46,r,true,826.2999999970198,1,g,,3,2,1,
9gt,RSVPtest,47,r,true,618.5999999940395,2,r,,3,0,1,
9gt,RSVPtest,48,r,true,704.8999999910593,2,r,,3,0,1,
9gt,RSVPtest,49,r,true,564.5,0,b,,3,3,0,
9gt,RSVPtest,50,r,false,1506.5999999940395,2,r,,2,2,2,
9gt,RSVPtest,51,r,true,686.8999999910593,1,g,,3,0,1,
9gt,RSVPtest,52,r,true,647.6000000089407,1,g,,3,1,1,
9gt,RSVPtest,53,r,false,698.7999999970198,0,b,,3,3,0,
9gt,RSVPtest,54,r,true,706.5999999940395,0,b,,2,3,0,
9gt,RSVPtest,55,r,true,685.2000000029802,1,g,,0,1,1,
9gt,RSVPtest,56,r,true,754.4000000059605,2,r,,3,2,1,
9gt,RSVPtest,57,r,false,699.1999999880791,1,g,,0,0,2,
9gt,RSVPtest,58,r,true,618.4000000059605,2,r,,0,1,1,
9gt,RSVPtest,59,r,true,624.5999999940395,0,b,,3,3,0,
9gt,RSVPtest,60,r,true,948,2,r,,1,1,2,
brk,brk,brk,brk,brk,brk,brk,brk,brk,brk,brk,brk,
9gt,RSVPtest,61,r,true,576.8000000119209,0,b,,3,3,0,
9gt,RSVPtest,62,r,true,588.1000000089407,2,r,,1,2,1,
9gt,RSVPtest,63,r,true,577.2999999970198,1,g,,0,1,1,
9gt,RSVPtest,64,r,false,848.4000000059605,0,b,,3,3,0,
9gt,RSVPtest,65,r,true,610.9000000059605,2,r,,3,2,1,
9gt,RSVPtest,66,r,true,620,0,b,,1,3,0,
9gt,RSVPtest,67,r,true,469,2,r,,1,1,2,
9gt,RSVPtest,68,r,true,568.2999999970198,2,r,,2,2,2,
9gt,RSVPtest,69,r,true,660.2999999970198,0,b,,0,3,0,
9gt,RSVPtest,70,r,true,609.1000000089407,1,g,,2,2,2,
9gt,RSVPtest,71,r,true,651.2000000029802,1,g,,3,1,1,
9gt,RSVPtest,72,r,true,518.9000000059605,2,r,,0,0,2,
9gt,RSVPtest,73,r,false,690.2000000029802,0,b,,0,3,0,
9gt,RSVPtest,74,r,true,559.6000000089407,2,r,,3,0,1,
9gt,RSVPtest,75,r,true,773.7999999970198,0,b,,0,3,0,
9gt,RSVPtest,76,r,true,591.1000000089407,1,g,,2,1,1,
9gt,RSVPtest,77,r,true,576.7999999970198,2,r,,3,2,1,
9gt,RSVPtest,78,r,true,609.2000000029802,2,r,,3,2,1,
9gt,RSVPtest,79,r,false,633.8999999910593,2,r,,0,0,2,
9gt,RSVPtest,80,r,true,852.8000000119209,2,r,,0,1,1,
9gt,RSVPtest,81,r,true,853.5999999940395,1,g,,3,1,1,
9gt,RSVPtest,82,r,true,622.6000000089407,2,r,,0,2,1,
9gt,RSVPtest,83,r,true,546.6999999880791,1,g,,1,2,1,
9gt,RSVPtest,84,r,true,738.7000000029802,0,b,,1,3,0,
9gt,RSVPtest,85,r,true,604.2000000029802,0,b,,3,3,0,
9gt,RSVPtest,86,r,true,698.8000000119209,1,g,,3,1,1,
9gt,RSVPtest,87,r,true,650,1,g,,2,2,2,
9gt,RSVPtest,88,r,true,522.0999999940395,2,r,,3,1,1,
9gt,RSVPtest,89,r,true,613.4000000059605,0,b,,1,3,0,
9gt,RSVPtest,90,r,true,603.6000000089407,2,r,,2,2,2,
9gt,RSVPtest,91,r,true,721.7000000029802,1,g,,2,2,2,
9gt,RSVPtest,92,r,true,563.5999999940395,0,b,,1,3,0,
9gt,RSVPtest,93,r,true,1088.3999999910593,2,r,,0,2,1,
9gt,RSVPtest,94,r,true,686.1000000089407,2,r,,2,2,2,
9gt,RSVPtest,95,r,true,641.2999999970198,1,g,,2,1,1,
9gt,RSVPtest,96,r,true,507.5,1,g,,1,2,1,
9gt,RSVPtest,97,r,true,594.2000000029802,1,g,,3,2,1,
9gt,RSVPtest,98,r,true,563.2999999970198,2,r,,3,1,1,
9gt,RSVPtest,99,r,true,680.2000000029802,0,b,,0,3,0,
9gt,RSVPtest,100,r,true,530,1,g,,3,2,1,
9gt,RSVPtest,101,r,false,778.8999999910593,2,r,,3,1,1,
9gt,RSVPtest,102,r,false,700.5999999940395,1,g,,0,2,1,
9gt,RSVPtest,103,r,false,1111,0,b,,1,3,0,
9gt,RSVPtest,104,r,true,537,1,g,,0,1,1,
9gt,RSVPtest,105,r,true,454.20000000298023,1,g,,0,2,1,
9gt,RSVPtest,106,r,true,433.20000000298023,1,g,,0,0,2,
9gt,RSVPtest,107,r,true,369.69999998807907,0,b,,2,3,0,
9gt,RSVPtest,108,r,true,561.6000000089407,0,b,,0,3,0,
9gt,RSVPtest,109,r,true,489.69999998807907,0,b,,0,3,0,
9gt,RSVPtest,110,r,true,704.9000000059605,2,r,,2,0,1,
9gt,RSVPtest,111,r,true,617.7999999970198,1,g,,2,2,2,
9gt,RSVPtest,112,r,true,426.79999999701977,1,g,,3,1,1,
9gt,RSVPtest,113,r,true,705.5,0,b,,1,3,0,
9gt,RSVPtest,114,r,true,640.2999999970198,2,r,,3,0,1,
9gt,RSVPtest,115,r,true,595.8999999910593,0,b,,2,3,0,
9gt,RSVPtest,116,r,true,545.4000000059605,2,r,,1,1,2,
9gt,RSVPtest,117,r,true,496.3999999910593,2,r,,2,1,1,
9gt,RSVPtest,118,r,true,546.1000000089407,1,g,,1,2,1,
9gt,RSVPtest,119,r,true,488,1,g,,0,2,1,
9gt,RSVPtest,120,r,true,873.9000000059605,0,b,,2,3,0,
brk,brk,brk,brk,brk,brk,brk,brk,brk,brk,brk,brk,
9gt,RSVPtest,121,r,true,672.2000000029802,0,b,,3,3,0,
9gt,RSVPtest,122,r,true,462.5,0,b,,0,3,0,
9gt,RSVPtest,123,r,true,523.0999999940395,1,g,,3,2,1,
9gt,RSVPtest,124,r,true,587.4000000059605,1,g,,3,0,1,
9gt,RSVPtest,125,r,false,820.2000000029802,1,g,,3,0,1,
9gt,RSVPtest,126,r,true,544.9000000059605,2,r,,3,2,1,
9gt,RSVPtest,127,r,true,932,2,r,,1,0,1,
9gt,RSVPtest,128,r,true,743.2000000029802,1,g,,3,1,1,
9gt,RSVPtest,129,r,true,569.2999999970198,2,r,,2,2,2,
9gt,RSVPtest,130,r,true,737.5,1,g,,3,1,1,
9gt,RSVPtest,131,r,true,666.2999999970198,0,b,,0,3,0,
9gt,RSVPtest,132,r,true,642.4000000059605,0,b,,3,3,0,
9gt,RSVPtest,133,r,true,594.5999999940395,2,r,,3,1,1,
9gt,RSVPtest,134,r,true,601.3999999910593,2,r,,3,2,1,
9gt,RSVPtest,135,r,true,586,0,b,,3,3,0,
9gt,RSVPtest,136,r,true,554,2,r,,3,0,1,
9gt,RSVPtest,137,r,true,641,2,r,,3,0,1,
9gt,RSVPtest,138,r,true,644,2,r,,3,2,1,
9gt,RSVPtest,139,r,true,1409.7000000029802,2,r,,1,2,1,
9gt,RSVPtest,140,r,true,525.0999999940395,0,b,,3,3,0,
9gt,RSVPtest,141,r,true,578,1,g,,1,1,2,
9gt,RSVPtest,142,r,false,545.7999999970198,0,b,,3,3,0,
9gt,RSVPtest,143,r,true,393.1000000089407,1,g,,1,0,1,
9gt,RSVPtest,144,r,true,584.9000000059605,1,g,,2,0,1,
9gt,RSVPtest,145,r,true,455.5,1,g,,1,2,1,
9gt,RSVPtest,146,r,true,647.5,0,b,,3,3,0,
9gt,RSVPtest,147,r,true,599.2999999970198,0,b,,2,3,0,
9gt,RSVPtest,148,r,true,592.7999999970198,1,g,,3,2,1,
9gt,RSVPtest,149,r,true,538.5999999940395,0,b,,1,3,0,
9gt,RSVPtest,150,r,true,742.9000000059605,1,g,,3,2,1,
9gt,RSVPtest,151,r,true,552.4000000059605,1,g,,3,1,1,
9gt,RSVPtest,152,r,true,685.2999999970198,0,b,,3,3,0,
9gt,RSVPtest,153,r,true,627.5,2,r,,3,1,1,
9gt,RSVPtest,154,r,true,633.7999999970198,1,g,,3,0,1,
9gt,RSVPtest,155,r,true,574.3999999910593,1,g,,2,0,1,
9gt,RSVPtest,156,r,true,562.7000000029802,1,g,,3,1,1,
9gt,RSVPtest,157,r,true,577,2,r,,3,0,1,
9gt,RSVPtest,158,r,true,776.4000000059605,1,g,,0,0,2,
9gt,RSVPtest,159,r,true,520.2999999970198,0,b,,1,3,0,
9gt,RSVPtest,160,r,true,633.9000000059605,0,b,,3,3,0,
9gt,RSVPtest,161,r,true,488.20000000298023,2,r,,1,2,1,
9gt,RSVPtest,162,r,true,720.9000000059605,2,r,,1,1,2,
9gt,RSVPtest,163,r,true,463.29999999701977,1,g,,1,0,1,
9gt,RSVPtest,164,r,true,704.5999999940395,0,b,,2,3,0,
9gt,RSVPtest,165,r,true,514.3999999910593,2,r,,0,0,2,
9gt,RSVPtest,166,r,true,668.5,2,r,,3,0,1,
9gt,RSVPtest,167,r,true,936.1000000089407,1,g,,1,1,2,
9gt,RSVPtest,168,r,true,717.6000000089407,1,g,,1,0,1,
9gt,RSVPtest,169,r,true,752.4000000059605,2,r,,2,1,1,
9gt,RSVPtest,170,r,true,503.30000001192093,1,g,,2,1,1,
9gt,RSVPtest,171,r,true,512.7999999970198,0,b,,0,3,0,
9gt,RSVPtest,172,r,true,504.70000000298023,2,r,,0,2,1,
9gt,RSVPtest,173,r,true,592,2,r,,3,2,1,
9gt,RSVPtest,174,r,true,505.79999999701977,1,g,,2,1,1,
9gt,RSVPtest,175,r,true,606.7999999970198,0,b,,2,3,0,
9gt,RSVPtest,176,r,true,663,2,r,,3,1,1,
9gt,RSVPtest,177,r,true,680,1,g,,3,1,1,
9gt,RSVPtest,178,r,true,769.0999999940395,2,r,,2,2,2,
9gt,RSVPtest,179,r,true,530.5999999940395,1,g,,1,1,2,
9gt,RSVPtest,180,r,true,551.7000000029802,2,r,,3,1,1,
brk,brk,brk,brk,brk,brk,brk,brk,brk,brk,brk,brk,
9gt,RSVPtest,181,r,false,621.0999999940395,2,r,,3,1,1,
9gt,RSVPtest,182,r,false,569.5,2,r,,3,1,1,
9gt,RSVPtest,183,r,true,570.8000000119209,2,r,,0,1,1,
9gt,RSVPtest,184,r,true,610.1999999880791,1,g,,2,2,2,
9gt,RSVPtest,185,r,true,397.8999999910593,2,r,,1,0,1,
9gt,RSVPtest,186,r,true,632.7999999970198,1,g,,2,0,1,
9gt,RSVPtest,187,r,true,721,2,r,,3,2,1,
9gt,RSVPtest,188,r,true,705,1,g,,2,1,1,
9gt,RSVPtest,189,r,true,494.90000000596046,2,r,,2,1,1,
9gt,RSVPtest,190,r,true,622.6000000089407,0,b,,2,3,0,
9gt,RSVPtest,191,r,false,735.2999999970198,0,b,,2,3,0,
9gt,RSVPtest,192,r,true,641.2999999970198,1,g,,3,0,1,
9gt,RSVPtest,193,r,true,697,1,g,,3,1,1,
9gt,RSVPtest,194,r,true,534.4000000059605,1,g,,1,1,2,
9gt,RSVPtest,195,r,true,488.5,2,r,,1,0,1,
9gt,RSVPtest,196,r,true,616.7000000029802,0,b,,3,3,0,
9gt,RSVPtest,197,r,true,808.7999999970198,2,r,,0,2,1,
9gt,RSVPtest,198,r,true,599.8999999910593,2,r,,3,0,1,
9gt,RSVPtest,199,r,true,556,2,r,,1,0,1,
9gt,RSVPtest,200,r,true,520.0999999940395,2,r,,2,0,1,
9gt,RSVPtest,201,r,true,453.6000000089407,2,r,,0,0,2,
9gt,RSVPtest,202,r,true,519.2000000029802,2,r,,2,1,1,
9gt,RSVPtest,203,r,true,438.90000000596046,0,b,,0,3,0,
9gt,RSVPtest,204,r,true,600.2000000029802,1,g,,3,2,1,
9gt,RSVPtest,205,r,true,576,1,g,,3,0,1,
9gt,RSVPtest,206,r,true,599.5999999940395,0,b,,1,3,0,
9gt,RSVPtest,207,r,true,474.1000000089407,1,g,,0,2,1,
9gt,RSVPtest,208,r,true,702.5,2,r,,1,1,2,
9gt,RSVPtest,209,r,true,631.0999999940395,0,b,,3,3,0,
9gt,RSVPtest,210,r,true,560.4000000059605,1,g,,0,1,1,
9gt,RSVPtest,211,r,true,376.5,1,g,,0,2,1,
9gt,RSVPtest,212,r,false,967.2000000029802,2,r,,3,1,1,
9gt,RSVPtest,213,r,true,405.70000000298023,2,r,,1,1,2,
9gt,RSVPtest,214,r,true,414.20000000298023,0,b,,1,3,0,
9gt,RSVPtest,215,r,true,533.6000000089407,1,g,,3,2,1,
9gt,RSVPtest,216,r,true,702.9000000059605,2,r,,2,1,1,
9gt,RSVPtest,217,r,true,560.6000000089407,2,r,,2,1,1,
9gt,RSVPtest,218,r,true,470.40000000596046,0,b,,0,3,0,
9gt,RSVPtest,219,r,false,1039.7000000029802,2,r,,3,2,1,
9gt,RSVPtest,220,r,true,646.7000000029802,1,g,,3,0,1,
9gt,RSVPtest,221,r,true,521.9000000059605,1,g,,1,2,1,
9gt,RSVPtest,222,r,true,442.6000000089407,2,r,,0,1,1,
9gt,RSVPtest,223,r,true,512.4000000059605,2,r,,0,0,2,
9gt,RSVPtest,224,r,true,444.40000000596046,0,b,,1,3,0,
9gt,RSVPtest,225,r,true,533.4000000059605,1,g,,1,2,1,
9gt,RSVPtest,226,r,true,1324.0999999940395,1,g,,3,2,1,
9gt,RSVPtest,227,r,true,598.7999999970198,2,r,,2,0,1,
9gt,RSVPtest,228,r,true,800.2999999970198,2,r,,1,2,1,
9gt,RSVPtest,229,r,true,604.8999999910593,1,g,,3,2,1,
9gt,RSVPtest,230,r,true,526.7999999970198,1,g,,0,0,2,
9gt,RSVPtest,231,r,true,1230.6000000089407,1,g,,3,0,1,
9gt,RSVPtest,232,r,true,445.20000000298023,1,g,,2,0,1,
9gt,RSVPtest,233,r,true,630.7999999970198,1,g,,1,0,1,
9gt,RSVPtest,234,r,true,567.2000000029802,2,r,,0,1,1,
9gt,RSVPtest,235,r,true,519.7999999970198,2,r,,1,2,1,
9gt,RSVPtest,236,r,true,447.70000000298023,2,r,,0,0,2,
9gt,RSVPtest,237,r,true,459.90000000596046,2,r,,0,1,1,
9gt,RSVPtest,238,r,true,413.59999999403954,2,r,,1,2,1,
9gt,RSVPtest,239,r,true,640.3000000119209,2,r,,3,0,1,
9gt,RSVPtest,240,r,true,708.6000000089407,2,r,,3,1,1,
