"success","trial_type","trial_index","time_elapsed","internal_node_id","subject","condition","view_history","rt","stimulus","response","trialType","tgtCol","tgtPos","tgtDir","correct","rwdType","reward","value","colPos","question_order"
"true","fullscreen","0","2531","0.0-0.0","xjk","[""r""]","","","","","","","","","","","","","",""
"","instructions","1","243362","0.0-1.0-0.0","xjk","[""r""]","[{""page_index"":0,""viewing_time"":139876.29999923706},{""page_index"":1,""viewing_time"":36815.70000076294},{""page_index"":2,""viewing_time"":16303.89999961853},{""page_index"":3,""viewing_time"":3720},{""page_index"":4,""viewing_time"":10175.89999961853},{""page_index"":5,""viewing_time"":8280},{""page_index"":6,""viewing_time"":3120},{""page_index"":7,""viewing_time"":2464},{""page_index"":8,""viewing_time"":1776},{""page_index"":9,""viewing_time"":18296}]","240828.39999961853","","","","","","","","","","","",""
"","html-keyboard-response","2","246364","0.0-1.0-1.0-0.0","xjk","[""r""]","","null","<p>Place your fingers on the <b>z</b> and <b>m</b> keys. The experiment will begin shortly.</p> <p></p>","null","","","","","","","","","",""
"","html-keyboard-response","3","247367","0.0-1.0-1.0-1.0","xjk","[""r""]","","null","<p>Place your fingers on the <b>z</b> and <b>m</b> keys. </b>The experiment will begin shortly.</p><p>5</p>","null","","","","","","","","","",""
"","html-keyboard-response","4","248369","0.0-1.0-1.0-2.0","xjk","[""r""]","","null","<p>Place your fingers on the <b>z</b> and <b>m</b> keys. </b>The experiment will begin shortly.</p><p>4</p>","null","","","","","","","","","",""
"","html-keyboard-response","5","249372","0.0-1.0-1.0-3.0","xjk","[""r""]","","null","<p>Place your fingers on the <b>z</b> and <b>m</b> keys. </b>The experiment will begin shortly.</p><p>3</p>","null","","","","","","","","","",""
"","html-keyboard-response","6","250374","0.0-1.0-1.0-4.0","xjk","[""r""]","","null","<p>Place your fingers on the <b>z</b> and <b>m</b> keys. </b>The experiment will begin shortly.</p><p>2</p>","null","","","","","","","","","",""
"","html-keyboard-response","7","251376","0.0-1.0-1.0-5.0","xjk","[""r""]","","null","<p>Place your fingers on the <b>z</b> and <b>m</b> keys. </b>The experiment will begin shortly.</p><p>1</p>","null","","","","","","","","","",""
"","html-keyboard-response","8","251917","0.0-1.0-2.0-0.0","xjk","[""r""]","","null","<svg viewBox=""0 0 100 100"" > <path d=""M 50 52 L 50 48"" stroke=""black"" stroke-width="".5""/> <path d=""M 52 50 L 48 50"" stroke=""black"" stroke-width="".5""/>","null","","","","","","","","","",""
"","html-keyboard-response","9","252924","0.0-1.0-2.0-1.0","xjk","[""r""]","","null","[""<svg viewBox=\""0 0 100 100\"" >"",""<text font-size=\""10%\"" text-anchor=\""middle\""  x=\""50\"" y=\""98\"">Press z for horizontal or m for vertical</text>"",""<path d=\""M 50 52 L 50 48\"" stroke=\""black\"" stroke-width=\"".5\""/> <path d=\""M 52 50 L 48 50\"" stroke=\""black\"" stroke-width=\"".5\""/>"",""<circle cx=\""50\"" cy=\""50\"" r=\""10\"" fill=\""none\"" transform=\""translate(26 15)\"" stroke=\""blue\"" /><path d=\""M 50 57 L 50 43\"" stroke=\""black\"" transform=\""translate(26 15) rotate(-45 50 50)\""/>"",""<circle cx=\""50\"" cy=\""50\"" r=\""10\"" fill=\""none\"" transform=\""translate(0 30)\"" stroke=\""yellow\"" /><path d=\""M 50 57 L 50 43\"" stroke=\""black\"" transform=\""translate(0 30) rotate(-45 50 50)\""/>"",""<circle cx=\""50\"" cy=\""50\"" r=\""10\"" fill=\""none\"" transform=\""translate(-26 15)\"" stroke=\""cyan\"" /><path d=\""M 50 57 L 50 43\"" stroke=\""black\"" transform=\""translate(-26 15) rotate(-45 50 50)\""/>"",""<circle cx=\""50\"" cy=\""50\"" r=\""10\"" fill=\""none\"" transform=\""translate(-26 -15)\"" stroke=\""lime\"" /><path d=\""M 50 57 L 50 43\"" stroke=\""black\"" transform=\""translate(-26 -15) rotate(90 50 50)\""/>"",""<circle cx=\""50\"" cy=\""50\"" r=\""10\"" fill=\""none\"" transform=\""translate(0 -30)\"" stroke=\""magenta\"" /><path d=\""M 50 57 L 50 43\"" stroke=\""black\"" transform=\""translate(0 -30) rotate(45 50 50)\""/>"",""<circle cx=\""50\"" cy=\""50\"" r=\""10\"" fill=\""none\"" transform=\""translate(26 -15)\"" stroke=\""black\"" /><path d=\""M 50 57 L 50 43\"" stroke=\""black\"" transform=\""translate(26 -15) rotate(45 50 50)\""/>"",""</svg>""]","null","VDACtrain","g","3","h","null","low","","","",""
"","html-keyboard-response","10","255427","0.0-1.0-2.0-2.0","xjk","[""r""]","","null","<p style=""font-size:300%;"">Miss.</p> <p style=""font-size:300%;"">Too slow.</p>","null","","","","","","","","","",""
"","html-keyboard-response","11","256969","0.0-1.0-2.0-0.1","xjk","[""r""]","","null","<svg viewBox=""0 0 100 100"" > <path d=""M 50 52 L 50 48"" stroke=""black"" stroke-width="".5""/> <path d=""M 52 50 L 48 50"" stroke=""black"" stroke-width="".5""/>","null","","","","","","","","","",""
"","html-keyboard-response","12","257536","0.0-1.0-2.0-1.1","xjk","[""r""]","","563.8999996185303","[""<svg viewBox=\""0 0 100 100\"" >"",""<text font-size=\""10%\"" text-anchor=\""middle\""  x=\""50\"" y=\""98\"">Press z for horizontal or m for vertical</text>"",""<path d=\""M 50 52 L 50 48\"" stroke=\""black\"" stroke-width=\"".5\""/> <path d=\""M 52 50 L 48 50\"" stroke=\""black\"" stroke-width=\"".5\""/>"",""<circle cx=\""50\"" cy=\""50\"" r=\""10\"" fill=\""none\"" transform=\""translate(26 15)\"" stroke=\""red\"" /><path d=\""M 50 57 L 50 43\"" stroke=\""black\"" transform=\""translate(26 15) rotate(90 50 50)\""/>"",""<circle cx=\""50\"" cy=\""50\"" r=\""10\"" fill=\""none\"" transform=\""translate(0 30)\"" stroke=\""black\"" /><path d=\""M 50 57 L 50 43\"" stroke=\""black\"" transform=\""translate(0 30) rotate(-45 50 50)\""/>"",""<circle cx=\""50\"" cy=\""50\"" r=\""10\"" fill=\""none\"" transform=\""translate(-26 15)\"" stroke=\""yellow\"" /><path d=\""M 50 57 L 50 43\"" stroke=\""black\"" transform=\""translate(-26 15) rotate(-45 50 50)\""/>"",""<circle cx=\""50\"" cy=\""50\"" r=\""10\"" fill=\""none\"" transform=\""translate(-26 -15)\"" stroke=\""cyan\"" /><path d=\""M 50 57 L 50 43\"" stroke=\""black\"" transform=\""translate(-26 -15) rotate(45 50 50)\""/>"",""<circle cx=\""50\"" cy=\""50\"" r=\""10\"" fill=\""none\"" transform=\""translate(0 -30)\"" stroke=\""blue\"" /><path d=\""M 50 57 L 50 43\"" stroke=\""black\"" transform=\""translate(0 -30) rotate(-45 50 50)\""/>"",""<circle cx=\""50\"" cy=\""50\"" r=\""10\"" fill=\""none\"" transform=\""translate(26 -15)\"" stroke=\""magenta\"" /><path d=\""M 50 57 L 50 43\"" stroke=\""black\"" transform=\""translate(26 -15) rotate(-45 50 50)\""/>"",""</svg>""]","m","VDACtrain","r","0","h","false","high","","","",""
"","html-keyboard-response","13","260038","0.0-1.0-2.0-2.1","xjk","[""r""]","","null","<p style=""font-size:300%;"">Miss.</p> <p style=""font-size:300%;"">Wrong response.</p>","null","","","","","","","","","",""
"","html-keyboard-response","14","261579","0.0-1.0-2.0-0.2","xjk","[""r""]","","null","<svg viewBox=""0 0 100 100"" > <path d=""M 50 52 L 50 48"" stroke=""black"" stroke-width="".5""/> <path d=""M 52 50 L 48 50"" stroke=""black"" stroke-width="".5""/>","null","","","","","","","","","",""
"","html-keyboard-response","15","262247","0.0-1.0-2.0-1.2","xjk","[""r""]","","664.1000003814697","[""<svg viewBox=\""0 0 100 100\"" >"",""<text font-size=\""10%\"" text-anchor=\""middle\""  x=\""50\"" y=\""98\"">Press z for horizontal or m for vertical</text>"",""<path d=\""M 50 52 L 50 48\"" stroke=\""black\"" stroke-width=\"".5\""/> <path d=\""M 52 50 L 48 50\"" stroke=\""black\"" stroke-width=\"".5\""/>"",""<circle cx=\""50\"" cy=\""50\"" r=\""10\"" fill=\""none\"" transform=\""translate(26 15)\"" stroke=\""cyan\"" /><path d=\""M 50 57 L 50 43\"" stroke=\""black\"" transform=\""translate(26 15) rotate(45 50 50)\""/>"",""<circle cx=\""50\"" cy=\""50\"" r=\""10\"" fill=\""none\"" transform=\""translate(0 30)\"" stroke=\""yellow\"" /><path d=\""M 50 57 L 50 43\"" stroke=\""black\"" transform=\""translate(0 30) rotate(-45 50 50)\""/>"",""<circle cx=\""50\"" cy=\""50\"" r=\""10\"" fill=\""none\"" transform=\""translate(-26 15)\"" stroke=\""red\"" /><path d=\""M 50 57 L 50 43\"" stroke=\""black\"" transform=\""translate(-26 15) rotate(90 50 50)\""/>"",""<circle cx=\""50\"" cy=\""50\"" r=\""10\"" fill=\""none\"" transform=\""translate(-26 -15)\"" stroke=\""magenta\"" /><path d=\""M 50 57 L 50 43\"" stroke=\""black\"" transform=\""translate(-26 -15) rotate(45 50 50)\""/>"",""<circle cx=\""50\"" cy=\""50\"" r=\""10\"" fill=\""none\"" transform=\""translate(0 -30)\"" stroke=\""black\"" /><path d=\""M 50 57 L 50 43\"" stroke=\""black\"" transform=\""translate(0 -30) rotate(-45 50 50)\""/>"",""<circle cx=\""50\"" cy=\""50\"" r=\""10\"" fill=\""none\"" transform=\""translate(26 -15)\"" stroke=\""blue\"" /><path d=\""M 50 57 L 50 43\"" stroke=\""black\"" transform=\""translate(26 -15) rotate(45 50 50)\""/>"",""</svg>""]","m","VDACtrain","r","2","h","false","high","","","",""
"","html-keyboard-response","16","264750","0.0-1.0-2.0-2.2","xjk","[""r""]","","null","<p style=""font-size:300%;"">Miss.</p> <p style=""font-size:300%;"">Wrong response.</p>","null","","","","","","","","","",""
"","html-keyboard-response","17","266291","0.0-1.0-2.0-0.3","xjk","[""r""]","","null","<svg viewBox=""0 0 100 100"" > <path d=""M 50 52 L 50 48"" stroke=""black"" stroke-width="".5""/> <path d=""M 52 50 L 48 50"" stroke=""black"" stroke-width="".5""/>","null","","","","","","","","","",""
"","html-keyboard-response","18","266807","0.0-1.0-2.0-1.3","xjk","[""r""]","","512.1000003814697","[""<svg viewBox=\""0 0 100 100\"" >"",""<text font-size=\""10%\"" text-anchor=\""middle\""  x=\""50\"" y=\""98\"">Press z for horizontal or m for vertical</text>"",""<path d=\""M 50 52 L 50 48\"" stroke=\""black\"" stroke-width=\"".5\""/> <path d=\""M 52 50 L 48 50\"" stroke=\""black\"" stroke-width=\"".5\""/>"",""<circle cx=\""50\"" cy=\""50\"" r=\""10\"" fill=\""none\"" transform=\""translate(26 15)\"" stroke=\""black\"" /><path d=\""M 50 57 L 50 43\"" stroke=\""black\"" transform=\""translate(26 15) rotate(45 50 50)\""/>"",""<circle cx=\""50\"" cy=\""50\"" r=\""10\"" fill=\""none\"" transform=\""translate(0 30)\"" stroke=\""magenta\"" /><path d=\""M 50 57 L 50 43\"" stroke=\""black\"" transform=\""translate(0 30) rotate(45 50 50)\""/>"",""<circle cx=\""50\"" cy=\""50\"" r=\""10\"" fill=\""none\"" transform=\""translate(-26 15)\"" stroke=\""blue\"" /><path d=\""M 50 57 L 50 43\"" stroke=\""black\"" transform=\""translate(-26 15) rotate(-45 50 50)\""/>"",""<circle cx=\""50\"" cy=\""50\"" r=\""10\"" fill=\""none\"" transform=\""translate(-26 -15)\"" stroke=\""yellow\"" /><path d=\""M 50 57 L 50 43\"" stroke=\""black\"" transform=\""translate(-26 -15) rotate(45 50 50)\""/>"",""<circle cx=\""50\"" cy=\""50\"" r=\""10\"" fill=\""none\"" transform=\""translate(0 -30)\"" stroke=\""red\"" /><path d=\""M 50 57 L 50 43\"" stroke=\""black\"" transform=\""translate(0 -30) rotate(0 50 50)\""/>"",""<circle cx=\""50\"" cy=\""50\"" r=\""10\"" fill=\""none\"" transform=\""translate(26 -15)\"" stroke=\""cyan\"" /><path d=\""M 50 57 L 50 43\"" stroke=\""black\"" transform=\""translate(26 -15) rotate(-45 50 50)\""/>"",""</svg>""]","m","VDACtrain","r","4","v","true","high","","","",""
"","html-keyboard-response","19","269309","0.0-1.0-2.0-2.3","xjk","[""r""]","","null","<p style=""font-size:300%;"">Correct!</p>","null","","","","","","","","","",""
"","html-keyboard-response","20","270852","0.0-1.0-2.0-0.4","xjk","[""r""]","","null","<svg viewBox=""0 0 100 100"" > <path d=""M 50 52 L 50 48"" stroke=""black"" stroke-width="".5""/> <path d=""M 52 50 L 48 50"" stroke=""black"" stroke-width="".5""/>","null","","","","","","","","","",""
"","html-keyboard-response","21","271423","0.0-1.0-2.0-1.4","xjk","[""r""]","","568.0999984741211","[""<svg viewBox=\""0 0 100 100\"" >"",""<text font-size=\""10%\"" text-anchor=\""middle\""  x=\""50\"" y=\""98\"">Press z for horizontal or m for vertical</text>"",""<path d=\""M 50 52 L 50 48\"" stroke=\""black\"" stroke-width=\"".5\""/> <path d=\""M 52 50 L 48 50\"" stroke=\""black\"" stroke-width=\"".5\""/>"",""<circle cx=\""50\"" cy=\""50\"" r=\""10\"" fill=\""none\"" transform=\""translate(26 15)\"" stroke=\""magenta\"" /><path d=\""M 50 57 L 50 43\"" stroke=\""black\"" transform=\""translate(26 15) rotate(-45 50 50)\""/>"",""<circle cx=\""50\"" cy=\""50\"" r=\""10\"" fill=\""none\"" transform=\""translate(0 30)\"" stroke=\""blue\"" /><path d=\""M 50 57 L 50 43\"" stroke=\""black\"" transform=\""translate(0 30) rotate(45 50 50)\""/>"",""<circle cx=\""50\"" cy=\""50\"" r=\""10\"" fill=\""none\"" transform=\""translate(-26 15)\"" stroke=\""cyan\"" /><path d=\""M 50 57 L 50 43\"" stroke=\""black\"" transform=\""translate(-26 15) rotate(45 50 50)\""/>"",""<circle cx=\""50\"" cy=\""50\"" r=\""10\"" fill=\""none\"" transform=\""translate(-26 -15)\"" stroke=\""red\"" /><path d=\""M 50 57 L 50 43\"" stroke=\""black\"" transform=\""translate(-26 -15) rotate(0 50 50)\""/>"",""<circle cx=\""50\"" cy=\""50\"" r=\""10\"" fill=\""none\"" transform=\""translate(0 -30)\"" stroke=\""black\"" /><path d=\""M 50 57 L 50 43\"" stroke=\""black\"" transform=\""translate(0 -30) rotate(45 50 50)\""/>"",""<circle cx=\""50\"" cy=\""50\"" r=\""10\"" fill=\""none\"" transform=\""translate(26 -15)\"" stroke=\""yellow\"" /><path d=\""M 50 57 L 50 43\"" stroke=\""black\"" transform=\""translate(26 -15) rotate(-45 50 50)\""/>"",""</svg>""]","m","VDACtrain","r","3","v","true","high","","","",""
"","html-keyboard-response","22","273927","0.0-1.0-2.0-2.4","xjk","[""r""]","","null","<p style=""font-size:300%;"">Correct!</p>","null","","","","","","","","","",""
"","html-keyboard-response","23","275468","0.0-1.0-2.0-0.5","xjk","[""r""]","","null","<svg viewBox=""0 0 100 100"" > <path d=""M 50 52 L 50 48"" stroke=""black"" stroke-width="".5""/> <path d=""M 52 50 L 48 50"" stroke=""black"" stroke-width="".5""/>","null","","","","","","","","","",""
"","html-keyboard-response","24","276047","0.0-1.0-2.0-1.5","xjk","[""r""]","","575","[""<svg viewBox=\""0 0 100 100\"" >"",""<text font-size=\""10%\"" text-anchor=\""middle\""  x=\""50\"" y=\""98\"">Press z for horizontal or m for vertical</text>"",""<path d=\""M 50 52 L 50 48\"" stroke=\""black\"" stroke-width=\"".5\""/> <path d=\""M 52 50 L 48 50\"" stroke=\""black\"" stroke-width=\"".5\""/>"",""<circle cx=\""50\"" cy=\""50\"" r=\""10\"" fill=\""none\"" transform=\""translate(26 15)\"" stroke=\""lime\"" /><path d=\""M 50 57 L 50 43\"" stroke=\""black\"" transform=\""translate(26 15) rotate(0 50 50)\""/>"",""<circle cx=\""50\"" cy=\""50\"" r=\""10\"" fill=\""none\"" transform=\""translate(0 30)\"" stroke=\""blue\"" /><path d=\""M 50 57 L 50 43\"" stroke=\""black\"" transform=\""translate(0 30) rotate(45 50 50)\""/>"",""<circle cx=\""50\"" cy=\""50\"" r=\""10\"" fill=\""none\"" transform=\""translate(-26 15)\"" stroke=\""yellow\"" /><path d=\""M 50 57 L 50 43\"" stroke=\""black\"" transform=\""translate(-26 15) rotate(45 50 50)\""/>"",""<circle cx=\""50\"" cy=\""50\"" r=\""10\"" fill=\""none\"" transform=\""translate(-26 -15)\"" stroke=\""magenta\"" /><path d=\""M 50 57 L 50 43\"" stroke=\""black\"" transform=\""translate(-26 -15) rotate(-45 50 50)\""/>"",""<circle cx=\""50\"" cy=\""50\"" r=\""10\"" fill=\""none\"" transform=\""translate(0 -30)\"" stroke=\""cyan\"" /><path d=\""M 50 57 L 50 43\"" stroke=\""black\"" transform=\""translate(0 -30) rotate(45 50 50)\""/>"",""<circle cx=\""50\"" cy=\""50\"" r=\""10\"" fill=\""none\"" transform=\""translate(26 -15)\"" stroke=\""black\"" /><path d=\""M 50 57 L 50 43\"" stroke=\""black\"" transform=\""translate(26 -15) rotate(-45 50 50)\""/>"",""</svg>""]","m","VDACtrain","g","0","v","true","low","","","",""
"","html-keyboard-response","25","278549","0.0-1.0-2.0-2.5","xjk","[""r""]","","null","<p style=""font-size:300%;"">Correct!</p>","null","","","","","","","","","",""
"","html-keyboard-response","26","280091","0.0-1.0-2.0-0.6","xjk","[""r""]","","null","<svg viewBox=""0 0 100 100"" > <path d=""M 50 52 L 50 48"" stroke=""black"" stroke-width="".5""/> <path d=""M 52 50 L 48 50"" stroke=""black"" stroke-width="".5""/>","null","","","","","","","","","",""
"","html-keyboard-response","27","280751","0.0-1.0-2.0-1.6","xjk","[""r""]","","656.2999992370605","[""<svg viewBox=\""0 0 100 100\"" >"",""<text font-size=\""10%\"" text-anchor=\""middle\""  x=\""50\"" y=\""98\"">Press z for horizontal or m for vertical</text>"",""<path d=\""M 50 52 L 50 48\"" stroke=\""black\"" stroke-width=\"".5\""/> <path d=\""M 52 50 L 48 50\"" stroke=\""black\"" stroke-width=\"".5\""/>"",""<circle cx=\""50\"" cy=\""50\"" r=\""10\"" fill=\""none\"" transform=\""translate(26 15)\"" stroke=\""blue\"" /><path d=\""M 50 57 L 50 43\"" stroke=\""black\"" transform=\""translate(26 15) rotate(45 50 50)\""/>"",""<circle cx=\""50\"" cy=\""50\"" r=\""10\"" fill=\""none\"" transform=\""translate(0 30)\"" stroke=\""yellow\"" /><path d=\""M 50 57 L 50 43\"" stroke=\""black\"" transform=\""translate(0 30) rotate(-45 50 50)\""/>"",""<circle cx=\""50\"" cy=\""50\"" r=\""10\"" fill=\""none\"" transform=\""translate(-26 15)\"" stroke=\""black\"" /><path d=\""M 50 57 L 50 43\"" stroke=\""black\"" transform=\""translate(-26 15) rotate(45 50 50)\""/>"",""<circle cx=\""50\"" cy=\""50\"" r=\""10\"" fill=\""none\"" transform=\""translate(-26 -15)\"" stroke=\""magenta\"" /><path d=\""M 50 57 L 50 43\"" stroke=\""black\"" transform=\""translate(-26 -15) rotate(-45 50 50)\""/>"",""<circle cx=\""50\"" cy=\""50\"" r=\""10\"" fill=\""none\"" transform=\""translate(0 -30)\"" stroke=\""cyan\"" /><path d=\""M 50 57 L 50 43\"" stroke=\""black\"" transform=\""translate(0 -30) rotate(-45 50 50)\""/>"",""<circle cx=\""50\"" cy=\""50\"" r=\""10\"" fill=\""none\"" transform=\""translate(26 -15)\"" stroke=\""lime\"" /><path d=\""M 50 57 L 50 43\"" stroke=\""black\"" transform=\""translate(26 -15) rotate(0 50 50)\""/>"",""</svg>""]","m","VDACtrain","g","5","v","true","low","","","",""
"","html-keyboard-response","28","283254","0.0-1.0-2.0-2.6","xjk","[""r""]","","null","<p style=""font-size:300%;"">Correct!</p>","null","","","","","","","","","",""
"","html-keyboard-response","29","284795","0.0-1.0-2.0-0.7","xjk","[""r""]","","null","<svg viewBox=""0 0 100 100"" > <path d=""M 50 52 L 50 48"" stroke=""black"" stroke-width="".5""/> <path d=""M 52 50 L 48 50"" stroke=""black"" stroke-width="".5""/>","null","","","","","","","","","",""
"","html-keyboard-response","30","285375","0.0-1.0-2.0-1.7","xjk","[""r""]","","576.5","[""<svg viewBox=\""0 0 100 100\"" >"",""<text font-size=\""10%\"" text-anchor=\""middle\""  x=\""50\"" y=\""98\"">Press z for horizontal or m for vertical</text>"",""<path d=\""M 50 52 L 50 48\"" stroke=\""black\"" stroke-width=\"".5\""/> <path d=\""M 52 50 L 48 50\"" stroke=\""black\"" stroke-width=\"".5\""/>"",""<circle cx=\""50\"" cy=\""50\"" r=\""10\"" fill=\""none\"" transform=\""translate(26 15)\"" stroke=\""black\"" /><path d=\""M 50 57 L 50 43\"" stroke=\""black\"" transform=\""translate(26 15) rotate(45 50 50)\""/>"",""<circle cx=\""50\"" cy=\""50\"" r=\""10\"" fill=\""none\"" transform=\""translate(0 30)\"" stroke=\""blue\"" /><path d=\""M 50 57 L 50 43\"" stroke=\""black\"" transform=\""translate(0 30) rotate(-45 50 50)\""/>"",""<circle cx=\""50\"" cy=\""50\"" r=\""10\"" fill=\""none\"" transform=\""translate(-26 15)\"" stroke=\""lime\"" /><path d=\""M 50 57 L 50 43\"" stroke=\""black\"" transform=\""translate(-26 15) rotate(0 50 50)\""/>"",""<circle cx=\""50\"" cy=\""50\"" r=\""10\"" fill=\""none\"" transform=\""translate(-26 -15)\"" stroke=\""cyan\"" /><path d=\""M 50 57 L 50 43\"" stroke=\""black\"" transform=\""translate(-26 -15) rotate(-45 50 50)\""/>"",""<circle cx=\""50\"" cy=\""50\"" r=\""10\"" fill=\""none\"" transform=\""translate(0 -30)\"" stroke=\""yellow\"" /><path d=\""M 50 57 L 50 43\"" stroke=\""black\"" transform=\""translate(0 -30) rotate(-45 50 50)\""/>"",""<circle cx=\""50\"" cy=\""50\"" r=\""10\"" fill=\""none\"" transform=\""translate(26 -15)\"" stroke=\""magenta\"" /><path d=\""M 50 57 L 50 43\"" stroke=\""black\"" transform=\""translate(26 -15) rotate(45 50 50)\""/>"",""</svg>""]","z","VDACtrain","g","2","v","false","low","","","",""
"","html-keyboard-response","31","287878","0.0-1.0-2.0-2.7","xjk","[""r""]","","null","<p style=""font-size:300%;"">Miss.</p> <p style=""font-size:300%;"">Wrong response.</p>","null","","","","","","","","","",""
"","html-keyboard-response","32","289418","0.0-1.0-2.0-0.8","xjk","[""r""]","","null","<svg viewBox=""0 0 100 100"" > <path d=""M 50 52 L 50 48"" stroke=""black"" stroke-width="".5""/> <path d=""M 52 50 L 48 50"" stroke=""black"" stroke-width="".5""/>","null","","","","","","","","","",""
"","html-keyboard-response","33","290127","0.0-1.0-2.0-1.8","xjk","[""r""]","","704.7000007629395","[""<svg viewBox=\""0 0 100 100\"" >"",""<text font-size=\""10%\"" text-anchor=\""middle\""  x=\""50\"" y=\""98\"">Press z for horizontal or m for vertical</text>"",""<path d=\""M 50 52 L 50 48\"" stroke=\""black\"" stroke-width=\"".5\""/> <path d=\""M 52 50 L 48 50\"" stroke=\""black\"" stroke-width=\"".5\""/>"",""<circle cx=\""50\"" cy=\""50\"" r=\""10\"" fill=\""none\"" transform=\""translate(26 15)\"" stroke=\""black\"" /><path d=\""M 50 57 L 50 43\"" stroke=\""black\"" transform=\""translate(26 15) rotate(-45 50 50)\""/>"",""<circle cx=\""50\"" cy=\""50\"" r=\""10\"" fill=\""none\"" transform=\""translate(0 30)\"" stroke=\""red\"" /><path d=\""M 50 57 L 50 43\"" stroke=\""black\"" transform=\""translate(0 30) rotate(90 50 50)\""/>"",""<circle cx=\""50\"" cy=\""50\"" r=\""10\"" fill=\""none\"" transform=\""translate(-26 15)\"" stroke=\""magenta\"" /><path d=\""M 50 57 L 50 43\"" stroke=\""black\"" transform=\""translate(-26 15) rotate(-45 50 50)\""/>"",""<circle cx=\""50\"" cy=\""50\"" r=\""10\"" fill=\""none\"" transform=\""translate(-26 -15)\"" stroke=\""yellow\"" /><path d=\""M 50 57 L 50 43\"" stroke=\""black\"" transform=\""translate(-26 -15) rotate(-45 50 50)\""/>"",""<circle cx=\""50\"" cy=\""50\"" r=\""10\"" fill=\""none\"" transform=\""translate(0 -30)\"" stroke=\""cyan\"" /><path d=\""M 50 57 L 50 43\"" stroke=\""black\"" transform=\""translate(0 -30) rotate(-45 50 50)\""/>"",""<circle cx=\""50\"" cy=\""50\"" r=\""10\"" fill=\""none\"" transform=\""translate(26 -15)\"" stroke=\""blue\"" /><path d=\""M 50 57 L 50 43\"" stroke=\""black\"" transform=\""translate(26 -15) rotate(-45 50 50)\""/>"",""</svg>""]","m","VDACtrain","r","1","h","false","high","","","",""
"","html-keyboard-response","34","292630","0.0-1.0-2.0-2.8","xjk","[""r""]","","null","<p style=""font-size:300%;"">Miss.</p> <p style=""font-size:300%;"">Wrong response.</p>","null","","","","","","","","","",""
"","html-keyboard-response","35","294171","0.0-1.0-2.0-0.9","xjk","[""r""]","","null","<svg viewBox=""0 0 100 100"" > <path d=""M 50 52 L 50 48"" stroke=""black"" stroke-width="".5""/> <path d=""M 52 50 L 48 50"" stroke=""black"" stroke-width="".5""/>","null","","","","","","","","","",""
"","html-keyboard-response","36","295176","0.0-1.0-2.0-1.9","xjk","[""r""]","","null","[""<svg viewBox=\""0 0 100 100\"" >"",""<text font-size=\""10%\"" text-anchor=\""middle\""  x=\""50\"" y=\""98\"">Press z for horizontal or m for vertical</text>"",""<path d=\""M 50 52 L 50 48\"" stroke=\""black\"" stroke-width=\"".5\""/> <path d=\""M 52 50 L 48 50\"" stroke=\""black\"" stroke-width=\"".5\""/>"",""<circle cx=\""50\"" cy=\""50\"" r=\""10\"" fill=\""none\"" transform=\""translate(26 15)\"" stroke=\""magenta\"" /><path d=\""M 50 57 L 50 43\"" stroke=\""black\"" transform=\""translate(26 15) rotate(-45 50 50)\""/>"",""<circle cx=\""50\"" cy=\""50\"" r=\""10\"" fill=\""none\"" transform=\""translate(0 30)\"" stroke=\""blue\"" /><path d=\""M 50 57 L 50 43\"" stroke=\""black\"" transform=\""translate(0 30) rotate(45 50 50)\""/>"",""<circle cx=\""50\"" cy=\""50\"" r=\""10\"" fill=\""none\"" transform=\""translate(-26 15)\"" stroke=\""yellow\"" /><path d=\""M 50 57 L 50 43\"" stroke=\""black\"" transform=\""translate(-26 15) rotate(-45 50 50)\""/>"",""<circle cx=\""50\"" cy=\""50\"" r=\""10\"" fill=\""none\"" transform=\""translate(-26 -15)\"" stroke=\""black\"" /><path d=\""M 50 57 L 50 43\"" stroke=\""black\"" transform=\""translate(-26 -15) rotate(-45 50 50)\""/>"",""<circle cx=\""50\"" cy=\""50\"" r=\""10\"" fill=\""none\"" transform=\""translate(0 -30)\"" stroke=\""cyan\"" /><path d=\""M 50 57 L 50 43\"" stroke=\""black\"" transform=\""translate(0 -30) rotate(-45 50 50)\""/>"",""<circle cx=\""50\"" cy=\""50\"" r=\""10\"" fill=\""none\"" transform=\""translate(26 -15)\"" stroke=\""lime\"" /><path d=\""M 50 57 L 50 43\"" stroke=\""black\"" transform=\""translate(26 -15) rotate(90 50 50)\""/>"",""</svg>""]","null","VDACtrain","g","5","h","null","low","","","",""
"","html-keyboard-response","37","297679","0.0-1.0-2.0-2.9","xjk","[""r""]","","null","<p style=""font-size:300%;"">Miss.</p> <p style=""font-size:300%;"">Too slow.</p>","null","","","","","","","","","",""
"","html-keyboard-response","38","307439","0.0-1.0-3.0","xjk","[""r""]","","8758.5","<p>You have now finished the training exercise. If you would like to repeat the instructions and training exercise, press <b>R</b>.<p>If you are ready to continue to the task, press <b>C</b>.</p>","c","","","","","","","","","",""
"","html-keyboard-response","39","310443","0.0-2.0-0.0","xjk","[""r""]","","null","<p>Place your fingers on the <b>z</b> and <b>m</b> keys. The experiment will begin shortly.</p> <p></p>","null","","","","","","","","","",""
"","html-keyboard-response","40","311444","0.0-2.0-1.0","xjk","[""r""]","","null","<p>Place your fingers on the <b>z</b> and <b>m</b> keys. </b>The experiment will begin shortly.</p><p>5</p>","null","","","","","","","","","",""
"","html-keyboard-response","41","312446","0.0-2.0-2.0","xjk","[""r""]","","null","<p>Place your fingers on the <b>z</b> and <b>m</b> keys. </b>The experiment will begin shortly.</p><p>4</p>","null","","","","","","","","","",""
"","html-keyboard-response","42","313448","0.0-2.0-3.0","xjk","[""r""]","","null","<p>Place your fingers on the <b>z</b> and <b>m</b> keys. </b>The experiment will begin shortly.</p><p>3</p>","null","","","","","","","","","",""
"","html-keyboard-response","43","314450","0.0-2.0-4.0","xjk","[""r""]","","null","<p>Place your fingers on the <b>z</b> and <b>m</b> keys. </b>The experiment will begin shortly.</p><p>2</p>","null","","","","","","","","","",""
"","html-keyboard-response","44","315451","0.0-2.0-5.0","xjk","[""r""]","","null","<p>Place your fingers on the <b>z</b> and <b>m</b> keys. </b>The experiment will begin shortly.</p><p>1</p>","null","","","","","","","","","",""
"","html-keyboard-response","45","315992","0.0-3.0-0.0","xjk","[""r""]","","null","<svg viewBox=""0 0 100 100"" > <path d=""M 50 52 L 50 48"" stroke=""black"" stroke-width="".5""/> <path d=""M 52 50 L 48 50"" stroke=""black"" stroke-width="".5""/>","null","","","","","","","","","",""
"","html-keyboard-response","46","316623","0.0-3.0-1.0","xjk","[""r""]","","626.8999996185303","[""<svg viewBox=\""0 0 100 100\"" >"",""<path d=\""M 50 52 L 50 48\"" stroke=\""black\"" stroke-width=\"".5\""/>"","" <path d=\""M 52 50 L 48 50\"" stroke=\""black\"" stroke-width=\"".5\""/>"",""<circle cx=\""50\"" cy=\""50\"" r=\""10\"" fill=\""none\"" transform=\""translate(26 15)\"" stroke=\""cyan\"" />"",""<path d=\""M 50 57 L 50 43\"" stroke=\""black\"" transform=\""translate(26 15) rotate(-45 50 50)\""/>"",""<circle cx=\""50\"" cy=\""50\"" r=\""10\"" fill=\""none\"" transform=\""translate(0 30)\"" stroke=\""red\"" />"",""<path d=\""M 50 57 L 50 43\"" stroke=\""black\"" transform=\""translate(0 30) rotate(90 50 50)\""/>"",""<circle cx=\""50\"" cy=\""50\"" r=\""10\"" fill=\""none\"" transform=\""translate(-26 15)\"" stroke=\""magenta\"" />"",""<path d=\""M 50 57 L 50 43\"" stroke=\""black\"" transform=\""translate(-26 15) rotate(45 50 50)\""/>"",""<circle cx=\""50\"" cy=\""50\"" r=\""10\"" fill=\""none\"" transform=\""translate(-26 -15)\"" stroke=\""blue\"" />"",""<path d=\""M 50 57 L 50 43\"" stroke=\""black\"" transform=\""translate(-26 -15) rotate(-45 50 50)\""/>"",""<circle cx=\""50\"" cy=\""50\"" r=\""10\"" fill=\""none\"" transform=\""translate(0 -30)\"" stroke=\""black\"" />"",""<path d=\""M 50 57 L 50 43\"" stroke=\""black\"" transform=\""translate(0 -30) rotate(-45 50 50)\""/>"",""<circle cx=\""50\"" cy=\""50\"" r=\""10\"" fill=\""none\"" transform=\""translate(26 -15)\"" stroke=\""yellow\"" />"",""<path d=\""M 50 57 L 50 43\"" stroke=\""black\"" transform=\""translate(26 -15) rotate(-45 50 50)\""/>"",""</svg>""]","z","VDACtest","r","1","h","true","high","","","",""
"","html-keyboard-response","47","319126","0.0-3.0-2.0","xjk","[""r""]","","null","<p style=""font-size:300%;""> + 10 points.</p><p style=""font-size:300%"">Total: 10 points.</p>","null","","","","","","","10","","",""
"","html-keyboard-response","48","320668","0.0-3.0-0.1","xjk","[""r""]","","null","<svg viewBox=""0 0 100 100"" > <path d=""M 50 52 L 50 48"" stroke=""black"" stroke-width="".5""/> <path d=""M 52 50 L 48 50"" stroke=""black"" stroke-width="".5""/>","null","","","","","","","","","",""
"","html-keyboard-response","49","321231","0.0-3.0-1.1","xjk","[""r""]","","560.3999996185303","[""<svg viewBox=\""0 0 100 100\"" >"",""<path d=\""M 50 52 L 50 48\"" stroke=\""black\"" stroke-width=\"".5\""/>"","" <path d=\""M 52 50 L 48 50\"" stroke=\""black\"" stroke-width=\"".5\""/>"",""<circle cx=\""50\"" cy=\""50\"" r=\""10\"" fill=\""none\"" transform=\""translate(26 15)\"" stroke=\""cyan\"" />"",""<path d=\""M 50 57 L 50 43\"" stroke=\""black\"" transform=\""translate(26 15) rotate(-45 50 50)\""/>"",""<circle cx=\""50\"" cy=\""50\"" r=\""10\"" fill=\""none\"" transform=\""translate(0 30)\"" stroke=\""blue\"" />"",""<path d=\""M 50 57 L 50 43\"" stroke=\""black\"" transform=\""translate(0 30) rotate(45 50 50)\""/>"",""<circle cx=\""50\"" cy=\""50\"" r=\""10\"" fill=\""none\"" transform=\""translate(-26 15)\"" stroke=\""magenta\"" />"",""<path d=\""M 50 57 L 50 43\"" stroke=\""black\"" transform=\""translate(-26 15) rotate(-45 50 50)\""/>"",""<circle cx=\""50\"" cy=\""50\"" r=\""10\"" fill=\""none\"" transform=\""translate(-26 -15)\"" stroke=\""yellow\"" />"",""<path d=\""M 50 57 L 50 43\"" stroke=\""black\"" transform=\""translate(-26 -15) rotate(45 50 50)\""/>"",""<circle cx=\""50\"" cy=\""50\"" r=\""10\"" fill=\""none\"" transform=\""translate(0 -30)\"" stroke=\""lime\"" />"",""<path d=\""M 50 57 L 50 43\"" stroke=\""black\"" transform=\""translate(0 -30) rotate(90 50 50)\""/>"",""<circle cx=\""50\"" cy=\""50\"" r=\""10\"" fill=\""none\"" transform=\""translate(26 -15)\"" stroke=\""black\"" />"",""<path d=\""M 50 57 L 50 43\"" stroke=\""black\"" transform=\""translate(26 -15) rotate(45 50 50)\""/>"",""</svg>""]","m","VDACtest","g","4","h","false","low","","","",""
"","html-keyboard-response","50","323734","0.0-3.0-2.1","xjk","[""r""]","","null","<p style=""font-size:300%;"">Miss.</p><p style=""font-size:300%"">Total: 10 points.</p>","null","","","","","","","10","","",""
"","html-keyboard-response","51","325276","0.0-3.0-0.2","xjk","[""r""]","","null","<svg viewBox=""0 0 100 100"" > <path d=""M 50 52 L 50 48"" stroke=""black"" stroke-width="".5""/> <path d=""M 52 50 L 48 50"" stroke=""black"" stroke-width="".5""/>","null","","","","","","","","","",""
"","html-keyboard-response","52","325863","0.0-3.0-1.2","xjk","[""r""]","","583.2999992370605","[""<svg viewBox=\""0 0 100 100\"" >"",""<path d=\""M 50 52 L 50 48\"" stroke=\""black\"" stroke-width=\"".5\""/>"","" <path d=\""M 52 50 L 48 50\"" stroke=\""black\"" stroke-width=\"".5\""/>"",""<circle cx=\""50\"" cy=\""50\"" r=\""10\"" fill=\""none\"" transform=\""translate(26 15)\"" stroke=\""red\"" />"",""<path d=\""M 50 57 L 50 43\"" stroke=\""black\"" transform=\""translate(26 15) rotate(0 50 50)\""/>"",""<circle cx=\""50\"" cy=\""50\"" r=\""10\"" fill=\""none\"" transform=\""translate(0 30)\"" stroke=\""blue\"" />"",""<path d=\""M 50 57 L 50 43\"" stroke=\""black\"" transform=\""translate(0 30) rotate(45 50 50)\""/>"",""<circle cx=\""50\"" cy=\""50\"" r=\""10\"" fill=\""none\"" transform=\""translate(-26 15)\"" stroke=\""magenta\"" />"",""<path d=\""M 50 57 L 50 43\"" stroke=\""black\"" transform=\""translate(-26 15) rotate(-45 50 50)\""/>"",""<circle cx=\""50\"" cy=\""50\"" r=\""10\"" fill=\""none\"" transform=\""translate(-26 -15)\"" stroke=\""cyan\"" />"",""<path d=\""M 50 57 L 50 43\"" stroke=\""black\"" transform=\""translate(-26 -15) rotate(-45 50 50)\""/>"",""<circle cx=\""50\"" cy=\""50\"" r=\""10\"" fill=\""none\"" transform=\""translate(0 -30)\"" stroke=\""black\"" />"",""<path d=\""M 50 57 L 50 43\"" stroke=\""black\"" transform=\""translate(0 -30) rotate(45 50 50)\""/>"",""<circle cx=\""50\"" cy=\""50\"" r=\""10\"" fill=\""none\"" transform=\""translate(26 -15)\"" stroke=\""yellow\"" />"",""<path d=\""M 50 57 L 50 43\"" stroke=\""black\"" transform=\""translate(26 -15) rotate(45 50 50)\""/>"",""</svg>""]","m","VDACtest","r","0","v","true","high","","","",""
"","html-keyboard-response","53","328366","0.0-3.0-2.2","xjk","[""r""]","","null","<p style=""font-size:300%;""> + 10 points.</p><p style=""font-size:300%"">Total: 20 points.</p>","null","","","","","","","20","","",""
"","html-keyboard-response","54","329907","0.0-3.0-0.3","xjk","[""r""]","","null","<svg viewBox=""0 0 100 100"" > <path d=""M 50 52 L 50 48"" stroke=""black"" stroke-width="".5""/> <path d=""M 52 50 L 48 50"" stroke=""black"" stroke-width="".5""/>","null","","","","","","","","","",""
"","html-keyboard-response","55","330447","0.0-3.0-1.3","xjk","[""r""]","","536.3999996185303","[""<svg viewBox=\""0 0 100 100\"" >"",""<path d=\""M 50 52 L 50 48\"" stroke=\""black\"" stroke-width=\"".5\""/>"","" <path d=\""M 52 50 L 48 50\"" stroke=\""black\"" stroke-width=\"".5\""/>"",""<circle cx=\""50\"" cy=\""50\"" r=\""10\"" fill=\""none\"" transform=\""translate(26 15)\"" stroke=\""magenta\"" />"",""<path d=\""M 50 57 L 50 43\"" stroke=\""black\"" transform=\""translate(26 15) rotate(45 50 50)\""/>"",""<circle cx=\""50\"" cy=\""50\"" r=\""10\"" fill=\""none\"" transform=\""translate(0 30)\"" stroke=\""cyan\"" />"",""<path d=\""M 50 57 L 50 43\"" stroke=\""black\"" transform=\""translate(0 30) rotate(45 50 50)\""/>"",""<circle cx=\""50\"" cy=\""50\"" r=\""10\"" fill=\""none\"" transform=\""translate(-26 15)\"" stroke=\""blue\"" />"",""<path d=\""M 50 57 L 50 43\"" stroke=\""black\"" transform=\""translate(-26 15) rotate(-45 50 50)\""/>"",""<circle cx=\""50\"" cy=\""50\"" r=\""10\"" fill=\""none\"" transform=\""translate(-26 -15)\"" stroke=\""yellow\"" />"",""<path d=\""M 50 57 L 50 43\"" stroke=\""black\"" transform=\""translate(-26 -15) rotate(45 50 50)\""/>"",""<circle cx=\""50\"" cy=\""50\"" r=\""10\"" fill=\""none\"" transform=\""translate(0 -30)\"" stroke=\""black\"" />"",""<path d=\""M 50 57 L 50 43\"" stroke=\""black\"" transform=\""translate(0 -30) rotate(45 50 50)\""/>"",""<circle cx=\""50\"" cy=\""50\"" r=\""10\"" fill=\""none\"" transform=\""translate(26 -15)\"" stroke=\""lime\"" />"",""<path d=\""M 50 57 L 50 43\"" stroke=\""black\"" transform=\""translate(26 -15) rotate(90 50 50)\""/>"",""</svg>""]","z","VDACtest","g","5","h","true","low","","","",""
"","html-keyboard-response","56","332950","0.0-3.0-2.3","xjk","[""r""]","","null","<p style=""font-size:300%;""> + 2 points.</p><p style=""font-size:300%"">Total: 22 points.</p>","null","","","","","","","22","","",""
"","html-keyboard-response","57","334491","0.0-3.0-0.4","xjk","[""r""]","","null","<svg viewBox=""0 0 100 100"" > <path d=""M 50 52 L 50 48"" stroke=""black"" stroke-width="".5""/> <path d=""M 52 50 L 48 50"" stroke=""black"" stroke-width="".5""/>","null","","","","","","","","","",""
"","html-keyboard-response","58","334975","0.0-3.0-1.4","xjk","[""r""]","","480.5","[""<svg viewBox=\""0 0 100 100\"" >"",""<path d=\""M 50 52 L 50 48\"" stroke=\""black\"" stroke-width=\"".5\""/>"","" <path d=\""M 52 50 L 48 50\"" stroke=\""black\"" stroke-width=\"".5\""/>"",""<circle cx=\""50\"" cy=\""50\"" r=\""10\"" fill=\""none\"" transform=\""translate(26 15)\"" stroke=\""blue\"" />"",""<path d=\""M 50 57 L 50 43\"" stroke=\""black\"" transform=\""translate(26 15) rotate(-45 50 50)\""/>"",""<circle cx=\""50\"" cy=\""50\"" r=\""10\"" fill=\""none\"" transform=\""translate(0 30)\"" stroke=\""yellow\"" />"",""<path d=\""M 50 57 L 50 43\"" stroke=\""black\"" transform=\""translate(0 30) rotate(45 50 50)\""/>"",""<circle cx=\""50\"" cy=\""50\"" r=\""10\"" fill=\""none\"" transform=\""translate(-26 15)\"" stroke=\""black\"" />"",""<path d=\""M 50 57 L 50 43\"" stroke=\""black\"" transform=\""translate(-26 15) rotate(45 50 50)\""/>"",""<circle cx=\""50\"" cy=\""50\"" r=\""10\"" fill=\""none\"" transform=\""translate(-26 -15)\"" stroke=\""cyan\"" />"",""<path d=\""M 50 57 L 50 43\"" stroke=\""black\"" transform=\""translate(-26 -15) rotate(-45 50 50)\""/>"",""<circle cx=\""50\"" cy=\""50\"" r=\""10\"" fill=\""none\"" transform=\""translate(0 -30)\"" stroke=\""lime\"" />"",""<path d=\""M 50 57 L 50 43\"" stroke=\""black\"" transform=\""translate(0 -30) rotate(0 50 50)\""/>"",""<circle cx=\""50\"" cy=\""50\"" r=\""10\"" fill=\""none\"" transform=\""translate(26 -15)\"" stroke=\""magenta\"" />"",""<path d=\""M 50 57 L 50 43\"" stroke=\""black\"" transform=\""translate(26 -15) rotate(-45 50 50)\""/>"",""</svg>""]","z","VDACtest","g","4","v","false","low","","","",""
"","html-keyboard-response","59","337477","0.0-3.0-2.4","xjk","[""r""]","","null","<p style=""font-size:300%;"">Miss.</p><p style=""font-size:300%"">Total: 22 points.</p>","null","","","","","","","22","","",""
"","html-keyboard-response","60","339019","0.0-3.0-0.5","xjk","[""r""]","","null","<svg viewBox=""0 0 100 100"" > <path d=""M 50 52 L 50 48"" stroke=""black"" stroke-width="".5""/> <path d=""M 52 50 L 48 50"" stroke=""black"" stroke-width="".5""/>","null","","","","","","","","","",""
"","html-keyboard-response","61","339575","0.0-3.0-1.5","xjk","[""r""]","","551.8000011444092","[""<svg viewBox=\""0 0 100 100\"" >"",""<path d=\""M 50 52 L 50 48\"" stroke=\""black\"" stroke-width=\"".5\""/>"","" <path d=\""M 52 50 L 48 50\"" stroke=\""black\"" stroke-width=\"".5\""/>"",""<circle cx=\""50\"" cy=\""50\"" r=\""10\"" fill=\""none\"" transform=\""translate(26 15)\"" stroke=\""yellow\"" />"",""<path d=\""M 50 57 L 50 43\"" stroke=\""black\"" transform=\""translate(26 15) rotate(-45 50 50)\""/>"",""<circle cx=\""50\"" cy=\""50\"" r=\""10\"" fill=\""none\"" transform=\""translate(0 30)\"" stroke=\""magenta\"" />"",""<path d=\""M 50 57 L 50 43\"" stroke=\""black\"" transform=\""translate(0 30) rotate(45 50 50)\""/>"",""<circle cx=\""50\"" cy=\""50\"" r=\""10\"" fill=\""none\"" transform=\""translate(-26 15)\"" stroke=\""blue\"" />"",""<path d=\""M 50 57 L 50 43\"" stroke=\""black\"" transform=\""translate(-26 15) rotate(-45 50 50)\""/>"",""<circle cx=\""50\"" cy=\""50\"" r=\""10\"" fill=\""none\"" transform=\""translate(-26 -15)\"" stroke=\""cyan\"" />"",""<path d=\""M 50 57 L 50 43\"" stroke=\""black\"" transform=\""translate(-26 -15) rotate(-45 50 50)\""/>"",""<circle cx=\""50\"" cy=\""50\"" r=\""10\"" fill=\""none\"" transform=\""translate(0 -30)\"" stroke=\""lime\"" />"",""<path d=\""M 50 57 L 50 43\"" stroke=\""black\"" transform=\""translate(0 -30) rotate(90 50 50)\""/>"",""<circle cx=\""50\"" cy=\""50\"" r=\""10\"" fill=\""none\"" transform=\""translate(26 -15)\"" stroke=\""black\"" />"",""<path d=\""M 50 57 L 50 43\"" stroke=\""black\"" transform=\""translate(26 -15) rotate(-45 50 50)\""/>"",""</svg>""]","m","VDACtest","g","4","h","false","low","","","",""
"","html-keyboard-response","62","342078","0.0-3.0-2.5","xjk","[""r""]","","null","<p style=""font-size:300%;"">Miss.</p><p style=""font-size:300%"">Total: 22 points.</p>","null","","","","","","","22","","",""
"","html-keyboard-response","63","343620","0.0-3.0-0.6","xjk","[""r""]","","null","<svg viewBox=""0 0 100 100"" > <path d=""M 50 52 L 50 48"" stroke=""black"" stroke-width="".5""/> <path d=""M 52 50 L 48 50"" stroke=""black"" stroke-width="".5""/>","null","","","","","","","","","",""
"","html-keyboard-response","64","344167","0.0-3.0-1.6","xjk","[""r""]","","543.3000011444092","[""<svg viewBox=\""0 0 100 100\"" >"",""<path d=\""M 50 52 L 50 48\"" stroke=\""black\"" stroke-width=\"".5\""/>"","" <path d=\""M 52 50 L 48 50\"" stroke=\""black\"" stroke-width=\"".5\""/>"",""<circle cx=\""50\"" cy=\""50\"" r=\""10\"" fill=\""none\"" transform=\""translate(26 15)\"" stroke=\""yellow\"" />"",""<path d=\""M 50 57 L 50 43\"" stroke=\""black\"" transform=\""translate(26 15) rotate(45 50 50)\""/>"",""<circle cx=\""50\"" cy=\""50\"" r=\""10\"" fill=\""none\"" transform=\""translate(0 30)\"" stroke=\""magenta\"" />"",""<path d=\""M 50 57 L 50 43\"" stroke=\""black\"" transform=\""translate(0 30) rotate(45 50 50)\""/>"",""<circle cx=\""50\"" cy=\""50\"" r=\""10\"" fill=\""none\"" transform=\""translate(-26 15)\"" stroke=\""lime\"" />"",""<path d=\""M 50 57 L 50 43\"" stroke=\""black\"" transform=\""translate(-26 15) rotate(90 50 50)\""/>"",""<circle cx=\""50\"" cy=\""50\"" r=\""10\"" fill=\""none\"" transform=\""translate(-26 -15)\"" stroke=\""blue\"" />"",""<path d=\""M 50 57 L 50 43\"" stroke=\""black\"" transform=\""translate(-26 -15) rotate(45 50 50)\""/>"",""<circle cx=\""50\"" cy=\""50\"" r=\""10\"" fill=\""none\"" transform=\""translate(0 -30)\"" stroke=\""black\"" />"",""<path d=\""M 50 57 L 50 43\"" stroke=\""black\"" transform=\""translate(0 -30) rotate(-45 50 50)\""/>"",""<circle cx=\""50\"" cy=\""50\"" r=\""10\"" fill=\""none\"" transform=\""translate(26 -15)\"" stroke=\""cyan\"" />"",""<path d=\""M 50 57 L 50 43\"" stroke=\""black\"" transform=\""translate(26 -15) rotate(45 50 50)\""/>"",""</svg>""]","z","VDACtest","g","2","h","true","low","","","",""
"","html-keyboard-response","65","346669","0.0-3.0-2.6","xjk","[""r""]","","null","<p style=""font-size:300%;""> + 10 points.</p><p style=""font-size:300%"">Total: 32 points.</p>","null","","","","","","","32","","",""
"","html-keyboard-response","66","348211","0.0-3.0-0.7","xjk","[""r""]","","null","<svg viewBox=""0 0 100 100"" > <path d=""M 50 52 L 50 48"" stroke=""black"" stroke-width="".5""/> <path d=""M 52 50 L 48 50"" stroke=""black"" stroke-width="".5""/>","null","","","","","","","","","",""
"","html-keyboard-response","67","348743","0.0-3.0-1.7","xjk","[""r""]","","528","[""<svg viewBox=\""0 0 100 100\"" >"",""<path d=\""M 50 52 L 50 48\"" stroke=\""black\"" stroke-width=\"".5\""/>"","" <path d=\""M 52 50 L 48 50\"" stroke=\""black\"" stroke-width=\"".5\""/>"",""<circle cx=\""50\"" cy=\""50\"" r=\""10\"" fill=\""none\"" transform=\""translate(26 15)\"" stroke=\""blue\"" />"",""<path d=\""M 50 57 L 50 43\"" stroke=\""black\"" transform=\""translate(26 15) rotate(45 50 50)\""/>"",""<circle cx=\""50\"" cy=\""50\"" r=\""10\"" fill=\""none\"" transform=\""translate(0 30)\"" stroke=\""black\"" />"",""<path d=\""M 50 57 L 50 43\"" stroke=\""black\"" transform=\""translate(0 30) rotate(-45 50 50)\""/>"",""<circle cx=\""50\"" cy=\""50\"" r=\""10\"" fill=\""none\"" transform=\""translate(-26 15)\"" stroke=\""yellow\"" />"",""<path d=\""M 50 57 L 50 43\"" stroke=\""black\"" transform=\""translate(-26 15) rotate(-45 50 50)\""/>"",""<circle cx=\""50\"" cy=\""50\"" r=\""10\"" fill=\""none\"" transform=\""translate(-26 -15)\"" stroke=\""cyan\"" />"",""<path d=\""M 50 57 L 50 43\"" stroke=\""black\"" transform=\""translate(-26 -15) rotate(45 50 50)\""/>"",""<circle cx=\""50\"" cy=\""50\"" r=\""10\"" fill=\""none\"" transform=\""translate(0 -30)\"" stroke=\""magenta\"" />"",""<path d=\""M 50 57 L 50 43\"" stroke=\""black\"" transform=\""translate(0 -30) rotate(-45 50 50)\""/>"",""<circle cx=\""50\"" cy=\""50\"" r=\""10\"" fill=\""none\"" transform=\""translate(26 -15)\"" stroke=\""red\"" />"",""<path d=\""M 50 57 L 50 43\"" stroke=\""black\"" transform=\""translate(26 -15) rotate(90 50 50)\""/>"",""</svg>""]","m","VDACtest","r","5","h","false","high","","","",""
"","html-keyboard-response","68","351246","0.0-3.0-2.7","xjk","[""r""]","","null","<p style=""font-size:300%;"">Miss.</p><p style=""font-size:300%"">Total: 32 points.</p>","null","","","","","","","32","","",""
"","html-keyboard-response","69","352788","0.0-3.0-0.8","xjk","[""r""]","","null","<svg viewBox=""0 0 100 100"" > <path d=""M 50 52 L 50 48"" stroke=""black"" stroke-width="".5""/> <path d=""M 52 50 L 48 50"" stroke=""black"" stroke-width="".5""/>","null","","","","","","","","","",""
"","html-keyboard-response","70","353423","0.0-3.0-1.8","xjk","[""r""]","","631.1000003814697","[""<svg viewBox=\""0 0 100 100\"" >"",""<path d=\""M 50 52 L 50 48\"" stroke=\""black\"" stroke-width=\"".5\""/>"","" <path d=\""M 52 50 L 48 50\"" stroke=\""black\"" stroke-width=\"".5\""/>"",""<circle cx=\""50\"" cy=\""50\"" r=\""10\"" fill=\""none\"" transform=\""translate(26 15)\"" stroke=\""yellow\"" />"",""<path d=\""M 50 57 L 50 43\"" stroke=\""black\"" transform=\""translate(26 15) rotate(-45 50 50)\""/>"",""<circle cx=\""50\"" cy=\""50\"" r=\""10\"" fill=\""none\"" transform=\""translate(0 30)\"" stroke=\""red\"" />"",""<path d=\""M 50 57 L 50 43\"" stroke=\""black\"" transform=\""translate(0 30) rotate(0 50 50)\""/>"",""<circle cx=\""50\"" cy=\""50\"" r=\""10\"" fill=\""none\"" transform=\""translate(-26 15)\"" stroke=\""magenta\"" />"",""<path d=\""M 50 57 L 50 43\"" stroke=\""black\"" transform=\""translate(-26 15) rotate(-45 50 50)\""/>"",""<circle cx=\""50\"" cy=\""50\"" r=\""10\"" fill=\""none\"" transform=\""translate(-26 -15)\"" stroke=\""black\"" />"",""<path d=\""M 50 57 L 50 43\"" stroke=\""black\"" transform=\""translate(-26 -15) rotate(45 50 50)\""/>"",""<circle cx=\""50\"" cy=\""50\"" r=\""10\"" fill=\""none\"" transform=\""translate(0 -30)\"" stroke=\""cyan\"" />"",""<path d=\""M 50 57 L 50 43\"" stroke=\""black\"" transform=\""translate(0 -30) rotate(-45 50 50)\""/>"",""<circle cx=\""50\"" cy=\""50\"" r=\""10\"" fill=\""none\"" transform=\""translate(26 -15)\"" stroke=\""blue\"" />"",""<path d=\""M 50 57 L 50 43\"" stroke=\""black\"" transform=\""translate(26 -15) rotate(-45 50 50)\""/>"",""</svg>""]","m","VDACtest","r","1","v","true","high","","","",""
"","html-keyboard-response","71","355926","0.0-3.0-2.8","xjk","[""r""]","","null","<p style=""font-size:300%;""> + 10 points.</p><p style=""font-size:300%"">Total: 42 points.</p>","null","","","","","","","42","","",""
"","html-keyboard-response","72","357467","0.0-3.0-0.9","xjk","[""r""]","","null","<svg viewBox=""0 0 100 100"" > <path d=""M 50 52 L 50 48"" stroke=""black"" stroke-width="".5""/> <path d=""M 52 50 L 48 50"" stroke=""black"" stroke-width="".5""/>","null","","","","","","","","","",""
"","html-keyboard-response","73","358167","0.0-3.0-1.9","xjk","[""r""]","","696.6000003814697","[""<svg viewBox=\""0 0 100 100\"" >"",""<path d=\""M 50 52 L 50 48\"" stroke=\""black\"" stroke-width=\"".5\""/>"","" <path d=\""M 52 50 L 48 50\"" stroke=\""black\"" stroke-width=\"".5\""/>"",""<circle cx=\""50\"" cy=\""50\"" r=\""10\"" fill=\""none\"" transform=\""translate(26 15)\"" stroke=\""lime\"" />"",""<path d=\""M 50 57 L 50 43\"" stroke=\""black\"" transform=\""translate(26 15) rotate(90 50 50)\""/>"",""<circle cx=\""50\"" cy=\""50\"" r=\""10\"" fill=\""none\"" transform=\""translate(0 30)\"" stroke=\""yellow\"" />"",""<path d=\""M 50 57 L 50 43\"" stroke=\""black\"" transform=\""translate(0 30) rotate(-45 50 50)\""/>"",""<circle cx=\""50\"" cy=\""50\"" r=\""10\"" fill=\""none\"" transform=\""translate(-26 15)\"" stroke=\""magenta\"" />"",""<path d=\""M 50 57 L 50 43\"" stroke=\""black\"" transform=\""translate(-26 15) rotate(-45 50 50)\""/>"",""<circle cx=\""50\"" cy=\""50\"" r=\""10\"" fill=\""none\"" transform=\""translate(-26 -15)\"" stroke=\""cyan\"" />"",""<path d=\""M 50 57 L 50 43\"" stroke=\""black\"" transform=\""translate(-26 -15) rotate(45 50 50)\""/>"",""<circle cx=\""50\"" cy=\""50\"" r=\""10\"" fill=\""none\"" transform=\""translate(0 -30)\"" stroke=\""black\"" />"",""<path d=\""M 50 57 L 50 43\"" stroke=\""black\"" transform=\""translate(0 -30) rotate(45 50 50)\""/>"",""<circle cx=\""50\"" cy=\""50\"" r=\""10\"" fill=\""none\"" transform=\""translate(26 -15)\"" stroke=\""blue\"" />"",""<path d=\""M 50 57 L 50 43\"" stroke=\""black\"" transform=\""translate(26 -15) rotate(45 50 50)\""/>"",""</svg>""]","z","VDACtest","g","0","h","true","low","","","",""
"","html-keyboard-response","74","360669","0.0-3.0-2.9","xjk","[""r""]","","null","<p style=""font-size:300%;""> + 10 points.</p><p style=""font-size:300%"">Total: 52 points.</p>","null","","","","","","","52","","",""
"","html-keyboard-response","75","362210","0.0-3.0-0.10","xjk","[""r""]","","null","<svg viewBox=""0 0 100 100"" > <path d=""M 50 52 L 50 48"" stroke=""black"" stroke-width="".5""/> <path d=""M 52 50 L 48 50"" stroke=""black"" stroke-width="".5""/>","null","","","","","","","","","",""
"","html-keyboard-response","76","362823","0.0-3.0-1.10","xjk","[""r""]","","608.6999988555908","[""<svg viewBox=\""0 0 100 100\"" >"",""<path d=\""M 50 52 L 50 48\"" stroke=\""black\"" stroke-width=\"".5\""/>"","" <path d=\""M 52 50 L 48 50\"" stroke=\""black\"" stroke-width=\"".5\""/>"",""<circle cx=\""50\"" cy=\""50\"" r=\""10\"" fill=\""none\"" transform=\""translate(26 15)\"" stroke=\""black\"" />"",""<path d=\""M 50 57 L 50 43\"" stroke=\""black\"" transform=\""translate(26 15) rotate(-45 50 50)\""/>"",""<circle cx=\""50\"" cy=\""50\"" r=\""10\"" fill=\""none\"" transform=\""translate(0 30)\"" stroke=\""red\"" />"",""<path d=\""M 50 57 L 50 43\"" stroke=\""black\"" transform=\""translate(0 30) rotate(90 50 50)\""/>"",""<circle cx=\""50\"" cy=\""50\"" r=\""10\"" fill=\""none\"" transform=\""translate(-26 15)\"" stroke=\""cyan\"" />"",""<path d=\""M 50 57 L 50 43\"" stroke=\""black\"" transform=\""translate(-26 15) rotate(45 50 50)\""/>"",""<circle cx=\""50\"" cy=\""50\"" r=\""10\"" fill=\""none\"" transform=\""translate(-26 -15)\"" stroke=\""blue\"" />"",""<path d=\""M 50 57 L 50 43\"" stroke=\""black\"" transform=\""translate(-26 -15) rotate(-45 50 50)\""/>"",""<circle cx=\""50\"" cy=\""50\"" r=\""10\"" fill=\""none\"" transform=\""translate(0 -30)\"" stroke=\""magenta\"" />"",""<path d=\""M 50 57 L 50 43\"" stroke=\""black\"" transform=\""translate(0 -30) rotate(-45 50 50)\""/>"",""<circle cx=\""50\"" cy=\""50\"" r=\""10\"" fill=\""none\"" transform=\""translate(26 -15)\"" stroke=\""yellow\"" />"",""<path d=\""M 50 57 L 50 43\"" stroke=\""black\"" transform=\""translate(26 -15) rotate(-45 50 50)\""/>"",""</svg>""]","z","VDACtest","r","1","h","true","high","","","",""
"","html-keyboard-response","77","365326","0.0-3.0-2.10","xjk","[""r""]","","null","<p style=""font-size:300%;""> + 10 points.</p><p style=""font-size:300%"">Total: 62 points.</p>","null","","","","","","","62","","",""
"","html-keyboard-response","78","366868","0.0-3.0-0.11","xjk","[""r""]","","null","<svg viewBox=""0 0 100 100"" > <path d=""M 50 52 L 50 48"" stroke=""black"" stroke-width="".5""/> <path d=""M 52 50 L 48 50"" stroke=""black"" stroke-width="".5""/>","null","","","","","","","","","",""
"","html-keyboard-response","79","367687","0.0-3.0-1.11","xjk","[""r""]","","815.2999992370605","[""<svg viewBox=\""0 0 100 100\"" >"",""<path d=\""M 50 52 L 50 48\"" stroke=\""black\"" stroke-width=\"".5\""/>"","" <path d=\""M 52 50 L 48 50\"" stroke=\""black\"" stroke-width=\"".5\""/>"",""<circle cx=\""50\"" cy=\""50\"" r=\""10\"" fill=\""none\"" transform=\""translate(26 15)\"" stroke=\""blue\"" />"",""<path d=\""M 50 57 L 50 43\"" stroke=\""black\"" transform=\""translate(26 15) rotate(45 50 50)\""/>"",""<circle cx=\""50\"" cy=\""50\"" r=\""10\"" fill=\""none\"" transform=\""translate(0 30)\"" stroke=\""black\"" />"",""<path d=\""M 50 57 L 50 43\"" stroke=\""black\"" transform=\""translate(0 30) rotate(45 50 50)\""/>"",""<circle cx=\""50\"" cy=\""50\"" r=\""10\"" fill=\""none\"" transform=\""translate(-26 15)\"" stroke=\""yellow\"" />"",""<path d=\""M 50 57 L 50 43\"" stroke=\""black\"" transform=\""translate(-26 15) rotate(45 50 50)\""/>"",""<circle cx=\""50\"" cy=\""50\"" r=\""10\"" fill=\""none\"" transform=\""translate(-26 -15)\"" stroke=\""magenta\"" />"",""<path d=\""M 50 57 L 50 43\"" stroke=\""black\"" transform=\""translate(-26 -15) rotate(45 50 50)\""/>"",""<circle cx=\""50\"" cy=\""50\"" r=\""10\"" fill=\""none\"" transform=\""translate(0 -30)\"" stroke=\""lime\"" />"",""<path d=\""M 50 57 L 50 43\"" stroke=\""black\"" transform=\""translate(0 -30) rotate(0 50 50)\""/>"",""<circle cx=\""50\"" cy=\""50\"" r=\""10\"" fill=\""none\"" transform=\""translate(26 -15)\"" stroke=\""cyan\"" />"",""<path d=\""M 50 57 L 50 43\"" stroke=\""black\"" transform=\""translate(26 -15) rotate(45 50 50)\""/>"",""</svg>""]","z","VDACtest","g","4","v","false","low","","","",""
"","html-keyboard-response","80","370190","0.0-3.0-2.11","xjk","[""r""]","","null","<p style=""font-size:300%;"">Miss.</p><p style=""font-size:300%"">Total: 62 points.</p>","null","","","","","","","62","","",""
"","html-keyboard-response","81","371731","0.0-3.0-0.12","xjk","[""r""]","","null","<svg viewBox=""0 0 100 100"" > <path d=""M 50 52 L 50 48"" stroke=""black"" stroke-width="".5""/> <path d=""M 52 50 L 48 50"" stroke=""black"" stroke-width="".5""/>","null","","","","","","","","","",""
"","html-keyboard-response","82","372414","0.0-3.0-1.12","xjk","[""r""]","","680.3000011444092","[""<svg viewBox=\""0 0 100 100\"" >"",""<path d=\""M 50 52 L 50 48\"" stroke=\""black\"" stroke-width=\"".5\""/>"","" <path d=\""M 52 50 L 48 50\"" stroke=\""black\"" stroke-width=\"".5\""/>"",""<circle cx=\""50\"" cy=\""50\"" r=\""10\"" fill=\""none\"" transform=\""translate(26 15)\"" stroke=\""magenta\"" />"",""<path d=\""M 50 57 L 50 43\"" stroke=\""black\"" transform=\""translate(26 15) rotate(-45 50 50)\""/>"",""<circle cx=\""50\"" cy=\""50\"" r=\""10\"" fill=\""none\"" transform=\""translate(0 30)\"" stroke=\""cyan\"" />"",""<path d=\""M 50 57 L 50 43\"" stroke=\""black\"" transform=\""translate(0 30) rotate(45 50 50)\""/>"",""<circle cx=\""50\"" cy=\""50\"" r=\""10\"" fill=\""none\"" transform=\""translate(-26 15)\"" stroke=\""yellow\"" />"",""<path d=\""M 50 57 L 50 43\"" stroke=\""black\"" transform=\""translate(-26 15) rotate(-45 50 50)\""/>"",""<circle cx=\""50\"" cy=\""50\"" r=\""10\"" fill=\""none\"" transform=\""translate(-26 -15)\"" stroke=\""black\"" />"",""<path d=\""M 50 57 L 50 43\"" stroke=\""black\"" transform=\""translate(-26 -15) rotate(45 50 50)\""/>"",""<circle cx=\""50\"" cy=\""50\"" r=\""10\"" fill=\""none\"" transform=\""translate(0 -30)\"" stroke=\""red\"" />"",""<path d=\""M 50 57 L 50 43\"" stroke=\""black\"" transform=\""translate(0 -30) rotate(90 50 50)\""/>"",""<circle cx=\""50\"" cy=\""50\"" r=\""10\"" fill=\""none\"" transform=\""translate(26 -15)\"" stroke=\""blue\"" />"",""<path d=\""M 50 57 L 50 43\"" stroke=\""black\"" transform=\""translate(26 -15) rotate(-45 50 50)\""/>"",""</svg>""]","z","VDACtest","r","4","h","true","high","","","",""
"","html-keyboard-response","83","374917","0.0-3.0-2.12","xjk","[""r""]","","null","<p style=""font-size:300%;""> + 2 points.</p><p style=""font-size:300%"">Total: 64 points.</p>","null","","","","","","","64","","",""
"","html-keyboard-response","84","376458","0.0-3.0-0.13","xjk","[""r""]","","null","<svg viewBox=""0 0 100 100"" > <path d=""M 50 52 L 50 48"" stroke=""black"" stroke-width="".5""/> <path d=""M 52 50 L 48 50"" stroke=""black"" stroke-width="".5""/>","null","","","","","","","","","",""
"","html-keyboard-response","85","377231","0.0-3.0-1.13","xjk","[""r""]","","769.1000003814697","[""<svg viewBox=\""0 0 100 100\"" >"",""<path d=\""M 50 52 L 50 48\"" stroke=\""black\"" stroke-width=\"".5\""/>"","" <path d=\""M 52 50 L 48 50\"" stroke=\""black\"" stroke-width=\"".5\""/>"",""<circle cx=\""50\"" cy=\""50\"" r=\""10\"" fill=\""none\"" transform=\""translate(26 15)\"" stroke=\""yellow\"" />"",""<path d=\""M 50 57 L 50 43\"" stroke=\""black\"" transform=\""translate(26 15) rotate(45 50 50)\""/>"",""<circle cx=\""50\"" cy=\""50\"" r=\""10\"" fill=\""none\"" transform=\""translate(0 30)\"" stroke=\""lime\"" />"",""<path d=\""M 50 57 L 50 43\"" stroke=\""black\"" transform=\""translate(0 30) rotate(90 50 50)\""/>"",""<circle cx=\""50\"" cy=\""50\"" r=\""10\"" fill=\""none\"" transform=\""translate(-26 15)\"" stroke=\""blue\"" />"",""<path d=\""M 50 57 L 50 43\"" stroke=\""black\"" transform=\""translate(-26 15) rotate(-45 50 50)\""/>"",""<circle cx=\""50\"" cy=\""50\"" r=\""10\"" fill=\""none\"" transform=\""translate(-26 -15)\"" stroke=\""black\"" />"",""<path d=\""M 50 57 L 50 43\"" stroke=\""black\"" transform=\""translate(-26 -15) rotate(45 50 50)\""/>"",""<circle cx=\""50\"" cy=\""50\"" r=\""10\"" fill=\""none\"" transform=\""translate(0 -30)\"" stroke=\""cyan\"" />"",""<path d=\""M 50 57 L 50 43\"" stroke=\""black\"" transform=\""translate(0 -30) rotate(-45 50 50)\""/>"",""<circle cx=\""50\"" cy=\""50\"" r=\""10\"" fill=\""none\"" transform=\""translate(26 -15)\"" stroke=\""magenta\"" />"",""<path d=\""M 50 57 L 50 43\"" stroke=\""black\"" transform=\""translate(26 -15) rotate(-45 50 50)\""/>"",""</svg>""]","z","VDACtest","g","1","h","true","low","","","",""
"","html-keyboard-response","86","379733","0.0-3.0-2.13","xjk","[""r""]","","null","<p style=""font-size:300%;""> + 2 points.</p><p style=""font-size:300%"">Total: 66 points.</p>","null","","","","","","","66","","",""
"","html-keyboard-response","87","381276","0.0-3.0-0.14","xjk","[""r""]","","null","<svg viewBox=""0 0 100 100"" > <path d=""M 50 52 L 50 48"" stroke=""black"" stroke-width="".5""/> <path d=""M 52 50 L 48 50"" stroke=""black"" stroke-width="".5""/>","null","","","","","","","","","",""
"","html-keyboard-response","88","381958","0.0-3.0-1.14","xjk","[""r""]","","679.8000011444092","[""<svg viewBox=\""0 0 100 100\"" >"",""<path d=\""M 50 52 L 50 48\"" stroke=\""black\"" stroke-width=\"".5\""/>"","" <path d=\""M 52 50 L 48 50\"" stroke=\""black\"" stroke-width=\"".5\""/>"",""<circle cx=\""50\"" cy=\""50\"" r=\""10\"" fill=\""none\"" transform=\""translate(26 15)\"" stroke=\""blue\"" />"",""<path d=\""M 50 57 L 50 43\"" stroke=\""black\"" transform=\""translate(26 15) rotate(45 50 50)\""/>"",""<circle cx=\""50\"" cy=\""50\"" r=\""10\"" fill=\""none\"" transform=\""translate(0 30)\"" stroke=\""yellow\"" />"",""<path d=\""M 50 57 L 50 43\"" stroke=\""black\"" transform=\""translate(0 30) rotate(45 50 50)\""/>"",""<circle cx=\""50\"" cy=\""50\"" r=\""10\"" fill=\""none\"" transform=\""translate(-26 15)\"" stroke=\""magenta\"" />"",""<path d=\""M 50 57 L 50 43\"" stroke=\""black\"" transform=\""translate(-26 15) rotate(45 50 50)\""/>"",""<circle cx=\""50\"" cy=\""50\"" r=\""10\"" fill=\""none\"" transform=\""translate(-26 -15)\"" stroke=\""black\"" />"",""<path d=\""M 50 57 L 50 43\"" stroke=\""black\"" transform=\""translate(-26 -15) rotate(-45 50 50)\""/>"",""<circle cx=\""50\"" cy=\""50\"" r=\""10\"" fill=\""none\"" transform=\""translate(0 -30)\"" stroke=\""cyan\"" />"",""<path d=\""M 50 57 L 50 43\"" stroke=\""black\"" transform=\""translate(0 -30) rotate(-45 50 50)\""/>"",""<circle cx=\""50\"" cy=\""50\"" r=\""10\"" fill=\""none\"" transform=\""translate(26 -15)\"" stroke=\""lime\"" />"",""<path d=\""M 50 57 L 50 43\"" stroke=\""black\"" transform=\""translate(26 -15) rotate(0 50 50)\""/>"",""</svg>""]","m","VDACtest","g","5","v","true","low","","","",""
"","html-keyboard-response","89","384461","0.0-3.0-2.14","xjk","[""r""]","","null","<p style=""font-size:300%;""> + 2 points.</p><p style=""font-size:300%"">Total: 68 points.</p>","null","","","","","","","68","","",""
"","html-keyboard-response","90","386002","0.0-3.0-0.15","xjk","[""r""]","","null","<svg viewBox=""0 0 100 100"" > <path d=""M 50 52 L 50 48"" stroke=""black"" stroke-width="".5""/> <path d=""M 52 50 L 48 50"" stroke=""black"" stroke-width="".5""/>","null","","","","","","","","","",""
"","html-keyboard-response","91","386807","0.0-3.0-1.15","xjk","[""r""]","","800.8999996185303","[""<svg viewBox=\""0 0 100 100\"" >"",""<path d=\""M 50 52 L 50 48\"" stroke=\""black\"" stroke-width=\"".5\""/>"","" <path d=\""M 52 50 L 48 50\"" stroke=\""black\"" stroke-width=\"".5\""/>"",""<circle cx=\""50\"" cy=\""50\"" r=\""10\"" fill=\""none\"" transform=\""translate(26 15)\"" stroke=\""yellow\"" />"",""<path d=\""M 50 57 L 50 43\"" stroke=\""black\"" transform=\""translate(26 15) rotate(45 50 50)\""/>"",""<circle cx=\""50\"" cy=\""50\"" r=\""10\"" fill=\""none\"" transform=\""translate(0 30)\"" stroke=\""black\"" />"",""<path d=\""M 50 57 L 50 43\"" stroke=\""black\"" transform=\""translate(0 30) rotate(-45 50 50)\""/>"",""<circle cx=\""50\"" cy=\""50\"" r=\""10\"" fill=\""none\"" transform=\""translate(-26 15)\"" stroke=\""cyan\"" />"",""<path d=\""M 50 57 L 50 43\"" stroke=\""black\"" transform=\""translate(-26 15) rotate(45 50 50)\""/>"",""<circle cx=\""50\"" cy=\""50\"" r=\""10\"" fill=\""none\"" transform=\""translate(-26 -15)\"" stroke=\""blue\"" />"",""<path d=\""M 50 57 L 50 43\"" stroke=\""black\"" transform=\""translate(-26 -15) rotate(-45 50 50)\""/>"",""<circle cx=\""50\"" cy=\""50\"" r=\""10\"" fill=\""none\"" transform=\""translate(0 -30)\"" stroke=\""magenta\"" />"",""<path d=\""M 50 57 L 50 43\"" stroke=\""black\"" transform=\""translate(0 -30) rotate(45 50 50)\""/>"",""<circle cx=\""50\"" cy=\""50\"" r=\""10\"" fill=\""none\"" transform=\""translate(26 -15)\"" stroke=\""lime\"" />"",""<path d=\""M 50 57 L 50 43\"" stroke=\""black\"" transform=\""translate(26 -15) rotate(0 50 50)\""/>"",""</svg>""]","m","VDACtest","g","5","v","true","low","","","",""
"","html-keyboard-response","92","389309","0.0-3.0-2.15","xjk","[""r""]","","null","<p style=""font-size:300%;""> + 2 points.</p><p style=""font-size:300%"">Total: 70 points.</p>","null","","","","","","","70","","",""
"","html-keyboard-response","93","390850","0.0-3.0-0.16","xjk","[""r""]","","null","<svg viewBox=""0 0 100 100"" > <path d=""M 50 52 L 50 48"" stroke=""black"" stroke-width="".5""/> <path d=""M 52 50 L 48 50"" stroke=""black"" stroke-width="".5""/>","null","","","","","","","","","",""
"","html-keyboard-response","94","391511","0.0-3.0-1.16","xjk","[""r""]","","656.5","[""<svg viewBox=\""0 0 100 100\"" >"",""<path d=\""M 50 52 L 50 48\"" stroke=\""black\"" stroke-width=\"".5\""/>"","" <path d=\""M 52 50 L 48 50\"" stroke=\""black\"" stroke-width=\"".5\""/>"",""<circle cx=\""50\"" cy=\""50\"" r=\""10\"" fill=\""none\"" transform=\""translate(26 15)\"" stroke=\""black\"" />"",""<path d=\""M 50 57 L 50 43\"" stroke=\""black\"" transform=\""translate(26 15) rotate(-45 50 50)\""/>"",""<circle cx=\""50\"" cy=\""50\"" r=\""10\"" fill=\""none\"" transform=\""translate(0 30)\"" stroke=\""magenta\"" />"",""<path d=\""M 50 57 L 50 43\"" stroke=\""black\"" transform=\""translate(0 30) rotate(-45 50 50)\""/>"",""<circle cx=\""50\"" cy=\""50\"" r=\""10\"" fill=\""none\"" transform=\""translate(-26 15)\"" stroke=\""cyan\"" />"",""<path d=\""M 50 57 L 50 43\"" stroke=\""black\"" transform=\""translate(-26 15) rotate(-45 50 50)\""/>"",""<circle cx=\""50\"" cy=\""50\"" r=\""10\"" fill=\""none\"" transform=\""translate(-26 -15)\"" stroke=\""blue\"" />"",""<path d=\""M 50 57 L 50 43\"" stroke=\""black\"" transform=\""translate(-26 -15) rotate(-45 50 50)\""/>"",""<circle cx=\""50\"" cy=\""50\"" r=\""10\"" fill=\""none\"" transform=\""translate(0 -30)\"" stroke=\""red\"" />"",""<path d=\""M 50 57 L 50 43\"" stroke=\""black\"" transform=\""translate(0 -30) rotate(0 50 50)\""/>"",""<circle cx=\""50\"" cy=\""50\"" r=\""10\"" fill=\""none\"" transform=\""translate(26 -15)\"" stroke=\""yellow\"" />"",""<path d=\""M 50 57 L 50 43\"" stroke=\""black\"" transform=\""translate(26 -15) rotate(45 50 50)\""/>"",""</svg>""]","m","VDACtest","r","4","v","true","high","","","",""
"","html-keyboard-response","95","394013","0.0-3.0-2.16","xjk","[""r""]","","null","<p style=""font-size:300%;""> + 10 points.</p><p style=""font-size:300%"">Total: 80 points.</p>","null","","","","","","","80","","",""
"","html-keyboard-response","96","395554","0.0-3.0-0.17","xjk","[""r""]","","null","<svg viewBox=""0 0 100 100"" > <path d=""M 50 52 L 50 48"" stroke=""black"" stroke-width="".5""/> <path d=""M 52 50 L 48 50"" stroke=""black"" stroke-width="".5""/>","null","","","","","","","","","",""
"","html-keyboard-response","97","396182","0.0-3.0-1.17","xjk","[""r""]","","625.6000003814697","[""<svg viewBox=\""0 0 100 100\"" >"",""<path d=\""M 50 52 L 50 48\"" stroke=\""black\"" stroke-width=\"".5\""/>"","" <path d=\""M 52 50 L 48 50\"" stroke=\""black\"" stroke-width=\"".5\""/>"",""<circle cx=\""50\"" cy=\""50\"" r=\""10\"" fill=\""none\"" transform=\""translate(26 15)\"" stroke=\""magenta\"" />"",""<path d=\""M 50 57 L 50 43\"" stroke=\""black\"" transform=\""translate(26 15) rotate(45 50 50)\""/>"",""<circle cx=\""50\"" cy=\""50\"" r=\""10\"" fill=\""none\"" transform=\""translate(0 30)\"" stroke=\""cyan\"" />"",""<path d=\""M 50 57 L 50 43\"" stroke=\""black\"" transform=\""translate(0 30) rotate(-45 50 50)\""/>"",""<circle cx=\""50\"" cy=\""50\"" r=\""10\"" fill=\""none\"" transform=\""translate(-26 15)\"" stroke=\""yellow\"" />"",""<path d=\""M 50 57 L 50 43\"" stroke=\""black\"" transform=\""translate(-26 15) rotate(45 50 50)\""/>"",""<circle cx=\""50\"" cy=\""50\"" r=\""10\"" fill=\""none\"" transform=\""translate(-26 -15)\"" stroke=\""red\"" />"",""<path d=\""M 50 57 L 50 43\"" stroke=\""black\"" transform=\""translate(-26 -15) rotate(90 50 50)\""/>"",""<circle cx=\""50\"" cy=\""50\"" r=\""10\"" fill=\""none\"" transform=\""translate(0 -30)\"" stroke=\""black\"" />"",""<path d=\""M 50 57 L 50 43\"" stroke=\""black\"" transform=\""translate(0 -30) rotate(45 50 50)\""/>"",""<circle cx=\""50\"" cy=\""50\"" r=\""10\"" fill=\""none\"" transform=\""translate(26 -15)\"" stroke=\""blue\"" />"",""<path d=\""M 50 57 L 50 43\"" stroke=\""black\"" transform=\""translate(26 -15) rotate(-45 50 50)\""/>"",""</svg>""]","z","VDACtest","r","3","h","true","high","","","",""
"","html-keyboard-response","98","398685","0.0-3.0-2.17","xjk","[""r""]","","null","<p style=""font-size:300%;""> + 2 points.</p><p style=""font-size:300%"">Total: 82 points.</p>","null","","","","","","","82","","",""
"","html-keyboard-response","99","400227","0.0-3.0-0.18","xjk","[""r""]","","null","<svg viewBox=""0 0 100 100"" > <path d=""M 50 52 L 50 48"" stroke=""black"" stroke-width="".5""/> <path d=""M 52 50 L 48 50"" stroke=""black"" stroke-width="".5""/>","null","","","","","","","","","",""
"","html-keyboard-response","100","400942","0.0-3.0-1.18","xjk","[""r""]","","712","[""<svg viewBox=\""0 0 100 100\"" >"",""<path d=\""M 50 52 L 50 48\"" stroke=\""black\"" stroke-width=\"".5\""/>"","" <path d=\""M 52 50 L 48 50\"" stroke=\""black\"" stroke-width=\"".5\""/>"",""<circle cx=\""50\"" cy=\""50\"" r=\""10\"" fill=\""none\"" transform=\""translate(26 15)\"" stroke=\""black\"" />"",""<path d=\""M 50 57 L 50 43\"" stroke=\""black\"" transform=\""translate(26 15) rotate(-45 50 50)\""/>"",""<circle cx=\""50\"" cy=\""50\"" r=\""10\"" fill=\""none\"" transform=\""translate(0 30)\"" stroke=\""yellow\"" />"",""<path d=\""M 50 57 L 50 43\"" stroke=\""black\"" transform=\""translate(0 30) rotate(-45 50 50)\""/>"",""<circle cx=\""50\"" cy=\""50\"" r=\""10\"" fill=\""none\"" transform=\""translate(-26 15)\"" stroke=\""cyan\"" />"",""<path d=\""M 50 57 L 50 43\"" stroke=\""black\"" transform=\""translate(-26 15) rotate(45 50 50)\""/>"",""<circle cx=\""50\"" cy=\""50\"" r=\""10\"" fill=\""none\"" transform=\""translate(-26 -15)\"" stroke=\""magenta\"" />"",""<path d=\""M 50 57 L 50 43\"" stroke=\""black\"" transform=\""translate(-26 -15) rotate(-45 50 50)\""/>"",""<circle cx=\""50\"" cy=\""50\"" r=\""10\"" fill=\""none\"" transform=\""translate(0 -30)\"" stroke=\""blue\"" />"",""<path d=\""M 50 57 L 50 43\"" stroke=\""black\"" transform=\""translate(0 -30) rotate(45 50 50)\""/>"",""<circle cx=\""50\"" cy=\""50\"" r=\""10\"" fill=\""none\"" transform=\""translate(26 -15)\"" stroke=\""lime\"" />"",""<path d=\""M 50 57 L 50 43\"" stroke=\""black\"" transform=\""translate(26 -15) rotate(90 50 50)\""/>"",""</svg>""]","z","VDACtest","g","5","h","true","low","","","",""
"","html-keyboard-response","101","403446","0.0-3.0-2.18","xjk","[""r""]","","null","<p style=""font-size:300%;""> + 2 points.</p><p style=""font-size:300%"">Total: 84 points.</p>","null","","","","","","","84","","",""
"","html-keyboard-response","102","404988","0.0-3.0-0.19","xjk","[""r""]","","null","<svg viewBox=""0 0 100 100"" > <path d=""M 50 52 L 50 48"" stroke=""black"" stroke-width="".5""/> <path d=""M 52 50 L 48 50"" stroke=""black"" stroke-width="".5""/>","null","","","","","","","","","",""
"","html-keyboard-response","103","405631","0.0-3.0-1.19","xjk","[""r""]","","639.3000011444092","[""<svg viewBox=\""0 0 100 100\"" >"",""<path d=\""M 50 52 L 50 48\"" stroke=\""black\"" stroke-width=\"".5\""/>"","" <path d=\""M 52 50 L 48 50\"" stroke=\""black\"" stroke-width=\"".5\""/>"",""<circle cx=\""50\"" cy=\""50\"" r=\""10\"" fill=\""none\"" transform=\""translate(26 15)\"" stroke=\""lime\"" />"",""<path d=\""M 50 57 L 50 43\"" stroke=\""black\"" transform=\""translate(26 15) rotate(90 50 50)\""/>"",""<circle cx=\""50\"" cy=\""50\"" r=\""10\"" fill=\""none\"" transform=\""translate(0 30)\"" stroke=\""yellow\"" />"",""<path d=\""M 50 57 L 50 43\"" stroke=\""black\"" transform=\""translate(0 30) rotate(45 50 50)\""/>"",""<circle cx=\""50\"" cy=\""50\"" r=\""10\"" fill=\""none\"" transform=\""translate(-26 15)\"" stroke=\""black\"" />"",""<path d=\""M 50 57 L 50 43\"" stroke=\""black\"" transform=\""translate(-26 15) rotate(-45 50 50)\""/>"",""<circle cx=\""50\"" cy=\""50\"" r=\""10\"" fill=\""none\"" transform=\""translate(-26 -15)\"" stroke=\""blue\"" />"",""<path d=\""M 50 57 L 50 43\"" stroke=\""black\"" transform=\""translate(-26 -15) rotate(45 50 50)\""/>"",""<circle cx=\""50\"" cy=\""50\"" r=\""10\"" fill=\""none\"" transform=\""translate(0 -30)\"" stroke=\""cyan\"" />"",""<path d=\""M 50 57 L 50 43\"" stroke=\""black\"" transform=\""translate(0 -30) rotate(45 50 50)\""/>"",""<circle cx=\""50\"" cy=\""50\"" r=\""10\"" fill=\""none\"" transform=\""translate(26 -15)\"" stroke=\""magenta\"" />"",""<path d=\""M 50 57 L 50 43\"" stroke=\""black\"" transform=\""translate(26 -15) rotate(45 50 50)\""/>"",""</svg>""]","z","VDACtest","g","0","h","true","low","","","",""
"","html-keyboard-response","104","408133","0.0-3.0-2.19","xjk","[""r""]","","null","<p style=""font-size:300%;""> + 2 points.</p><p style=""font-size:300%"">Total: 86 points.</p>","null","","","","","","","86","","",""
"","html-keyboard-response","105","409674","0.0-3.0-0.20","xjk","[""r""]","","null","<svg viewBox=""0 0 100 100"" > <path d=""M 50 52 L 50 48"" stroke=""black"" stroke-width="".5""/> <path d=""M 52 50 L 48 50"" stroke=""black"" stroke-width="".5""/>","null","","","","","","","","","",""
"","html-keyboard-response","106","410118","0.0-3.0-1.20","xjk","[""r""]","","441.3999996185303","[""<svg viewBox=\""0 0 100 100\"" >"",""<path d=\""M 50 52 L 50 48\"" stroke=\""black\"" stroke-width=\"".5\""/>"","" <path d=\""M 52 50 L 48 50\"" stroke=\""black\"" stroke-width=\"".5\""/>"",""<circle cx=\""50\"" cy=\""50\"" r=\""10\"" fill=\""none\"" transform=\""translate(26 15)\"" stroke=\""blue\"" />"",""<path d=\""M 50 57 L 50 43\"" stroke=\""black\"" transform=\""translate(26 15) rotate(-45 50 50)\""/>"",""<circle cx=\""50\"" cy=\""50\"" r=\""10\"" fill=\""none\"" transform=\""translate(0 30)\"" stroke=\""black\"" />"",""<path d=\""M 50 57 L 50 43\"" stroke=\""black\"" transform=\""translate(0 30) rotate(45 50 50)\""/>"",""<circle cx=\""50\"" cy=\""50\"" r=\""10\"" fill=\""none\"" transform=\""translate(-26 15)\"" stroke=\""yellow\"" />"",""<path d=\""M 50 57 L 50 43\"" stroke=\""black\"" transform=\""translate(-26 15) rotate(-45 50 50)\""/>"",""<circle cx=\""50\"" cy=\""50\"" r=\""10\"" fill=\""none\"" transform=\""translate(-26 -15)\"" stroke=\""magenta\"" />"",""<path d=\""M 50 57 L 50 43\"" stroke=\""black\"" transform=\""translate(-26 -15) rotate(-45 50 50)\""/>"",""<circle cx=\""50\"" cy=\""50\"" r=\""10\"" fill=\""none\"" transform=\""translate(0 -30)\"" stroke=\""cyan\"" />"",""<path d=\""M 50 57 L 50 43\"" stroke=\""black\"" transform=\""translate(0 -30) rotate(45 50 50)\""/>"",""<circle cx=\""50\"" cy=\""50\"" r=\""10\"" fill=\""none\"" transform=\""translate(26 -15)\"" stroke=\""red\"" />"",""<path d=\""M 50 57 L 50 43\"" stroke=\""black\"" transform=\""translate(26 -15) rotate(0 50 50)\""/>"",""</svg>""]","m","VDACtest","r","5","v","true","high","","","",""
"","html-keyboard-response","107","412622","0.0-3.0-2.20","xjk","[""r""]","","null","<p style=""font-size:300%;""> + 10 points.</p><p style=""font-size:300%"">Total: 96 points.</p>","null","","","","","","","96","","",""
"","html-keyboard-response","108","414164","0.0-3.0-0.21","xjk","[""r""]","","null","<svg viewBox=""0 0 100 100"" > <path d=""M 50 52 L 50 48"" stroke=""black"" stroke-width="".5""/> <path d=""M 52 50 L 48 50"" stroke=""black"" stroke-width="".5""/>","null","","","","","","","","","",""
"","html-keyboard-response","109","414686","0.0-3.0-1.21","xjk","[""r""]","","518.5","[""<svg viewBox=\""0 0 100 100\"" >"",""<path d=\""M 50 52 L 50 48\"" stroke=\""black\"" stroke-width=\"".5\""/>"","" <path d=\""M 52 50 L 48 50\"" stroke=\""black\"" stroke-width=\"".5\""/>"",""<circle cx=\""50\"" cy=\""50\"" r=\""10\"" fill=\""none\"" transform=\""translate(26 15)\"" stroke=\""cyan\"" />"",""<path d=\""M 50 57 L 50 43\"" stroke=\""black\"" transform=\""translate(26 15) rotate(-45 50 50)\""/>"",""<circle cx=\""50\"" cy=\""50\"" r=\""10\"" fill=\""none\"" transform=\""translate(0 30)\"" stroke=\""magenta\"" />"",""<path d=\""M 50 57 L 50 43\"" stroke=\""black\"" transform=\""translate(0 30) rotate(45 50 50)\""/>"",""<circle cx=\""50\"" cy=\""50\"" r=\""10\"" fill=\""none\"" transform=\""translate(-26 15)\"" stroke=\""yellow\"" />"",""<path d=\""M 50 57 L 50 43\"" stroke=\""black\"" transform=\""translate(-26 15) rotate(45 50 50)\""/>"",""<circle cx=\""50\"" cy=\""50\"" r=\""10\"" fill=\""none\"" transform=\""translate(-26 -15)\"" stroke=\""black\"" />"",""<path d=\""M 50 57 L 50 43\"" stroke=\""black\"" transform=\""translate(-26 -15) rotate(-45 50 50)\""/>"",""<circle cx=\""50\"" cy=\""50\"" r=\""10\"" fill=\""none\"" transform=\""translate(0 -30)\"" stroke=\""blue\"" />"",""<path d=\""M 50 57 L 50 43\"" stroke=\""black\"" transform=\""translate(0 -30) rotate(-45 50 50)\""/>"",""<circle cx=\""50\"" cy=\""50\"" r=\""10\"" fill=\""none\"" transform=\""translate(26 -15)\"" stroke=\""red\"" />"",""<path d=\""M 50 57 L 50 43\"" stroke=\""black\"" transform=\""translate(26 -15) rotate(0 50 50)\""/>"",""</svg>""]","m","VDACtest","r","5","v","true","high","","","",""
"","html-keyboard-response","110","417189","0.0-3.0-2.21","xjk","[""r""]","","null","<p style=""font-size:300%;""> + 2 points.</p><p style=""font-size:300%"">Total: 98 points.</p>","null","","","","","","","98","","",""
"","html-keyboard-response","111","418731","0.0-3.0-0.22","xjk","[""r""]","","null","<svg viewBox=""0 0 100 100"" > <path d=""M 50 52 L 50 48"" stroke=""black"" stroke-width="".5""/> <path d=""M 52 50 L 48 50"" stroke=""black"" stroke-width="".5""/>","null","","","","","","","","","",""
"","html-keyboard-response","112","419279","0.0-3.0-1.22","xjk","[""r""]","","544.1000003814697","[""<svg viewBox=\""0 0 100 100\"" >"",""<path d=\""M 50 52 L 50 48\"" stroke=\""black\"" stroke-width=\"".5\""/>"","" <path d=\""M 52 50 L 48 50\"" stroke=\""black\"" stroke-width=\"".5\""/>"",""<circle cx=\""50\"" cy=\""50\"" r=\""10\"" fill=\""none\"" transform=\""translate(26 15)\"" stroke=\""lime\"" />"",""<path d=\""M 50 57 L 50 43\"" stroke=\""black\"" transform=\""translate(26 15) rotate(0 50 50)\""/>"",""<circle cx=\""50\"" cy=\""50\"" r=\""10\"" fill=\""none\"" transform=\""translate(0 30)\"" stroke=\""cyan\"" />"",""<path d=\""M 50 57 L 50 43\"" stroke=\""black\"" transform=\""translate(0 30) rotate(45 50 50)\""/>"",""<circle cx=\""50\"" cy=\""50\"" r=\""10\"" fill=\""none\"" transform=\""translate(-26 15)\"" stroke=\""yellow\"" />"",""<path d=\""M 50 57 L 50 43\"" stroke=\""black\"" transform=\""translate(-26 15) rotate(-45 50 50)\""/>"",""<circle cx=\""50\"" cy=\""50\"" r=\""10\"" fill=\""none\"" transform=\""translate(-26 -15)\"" stroke=\""black\"" />"",""<path d=\""M 50 57 L 50 43\"" stroke=\""black\"" transform=\""translate(-26 -15) rotate(45 50 50)\""/>"",""<circle cx=\""50\"" cy=\""50\"" r=\""10\"" fill=\""none\"" transform=\""translate(0 -30)\"" stroke=\""blue\"" />"",""<path d=\""M 50 57 L 50 43\"" stroke=\""black\"" transform=\""translate(0 -30) rotate(-45 50 50)\""/>"",""<circle cx=\""50\"" cy=\""50\"" r=\""10\"" fill=\""none\"" transform=\""translate(26 -15)\"" stroke=\""magenta\"" />"",""<path d=\""M 50 57 L 50 43\"" stroke=\""black\"" transform=\""translate(26 -15) rotate(-45 50 50)\""/>"",""</svg>""]","m","VDACtest","g","0","v","true","low","","","",""
"","html-keyboard-response","113","421781","0.0-3.0-2.22","xjk","[""r""]","","null","<p style=""font-size:300%;""> + 10 points.</p><p style=""font-size:300%"">Total: 108 points.</p>","null","","","","","","","108","","",""
"","html-keyboard-response","114","423323","0.0-3.0-0.23","xjk","[""r""]","","null","<svg viewBox=""0 0 100 100"" > <path d=""M 50 52 L 50 48"" stroke=""black"" stroke-width="".5""/> <path d=""M 52 50 L 48 50"" stroke=""black"" stroke-width="".5""/>","null","","","","","","","","","",""
"","html-keyboard-response","115","423838","0.0-3.0-1.23","xjk","[""r""]","","512.2000007629395","[""<svg viewBox=\""0 0 100 100\"" >"",""<path d=\""M 50 52 L 50 48\"" stroke=\""black\"" stroke-width=\"".5\""/>"","" <path d=\""M 52 50 L 48 50\"" stroke=\""black\"" stroke-width=\"".5\""/>"",""<circle cx=\""50\"" cy=\""50\"" r=\""10\"" fill=\""none\"" transform=\""translate(26 15)\"" stroke=\""magenta\"" />"",""<path d=\""M 50 57 L 50 43\"" stroke=\""black\"" transform=\""translate(26 15) rotate(-45 50 50)\""/>"",""<circle cx=\""50\"" cy=\""50\"" r=\""10\"" fill=\""none\"" transform=\""translate(0 30)\"" stroke=\""yellow\"" />"",""<path d=\""M 50 57 L 50 43\"" stroke=\""black\"" transform=\""translate(0 30) rotate(-45 50 50)\""/>"",""<circle cx=\""50\"" cy=\""50\"" r=\""10\"" fill=\""none\"" transform=\""translate(-26 15)\"" stroke=\""cyan\"" />"",""<path d=\""M 50 57 L 50 43\"" stroke=\""black\"" transform=\""translate(-26 15) rotate(45 50 50)\""/>"",""<circle cx=\""50\"" cy=\""50\"" r=\""10\"" fill=\""none\"" transform=\""translate(-26 -15)\"" stroke=\""black\"" />"",""<path d=\""M 50 57 L 50 43\"" stroke=\""black\"" transform=\""translate(-26 -15) rotate(45 50 50)\""/>"",""<circle cx=\""50\"" cy=\""50\"" r=\""10\"" fill=\""none\"" transform=\""translate(0 -30)\"" stroke=\""blue\"" />"",""<path d=\""M 50 57 L 50 43\"" stroke=\""black\"" transform=\""translate(0 -30) rotate(-45 50 50)\""/>"",""<circle cx=\""50\"" cy=\""50\"" r=\""10\"" fill=\""none\"" transform=\""translate(26 -15)\"" stroke=\""red\"" />"",""<path d=\""M 50 57 L 50 43\"" stroke=\""black\"" transform=\""translate(26 -15) rotate(90 50 50)\""/>"",""</svg>""]","m","VDACtest","r","5","h","false","high","","","",""
"","html-keyboard-response","116","426341","0.0-3.0-2.23","xjk","[""r""]","","null","<p style=""font-size:300%;"">Miss.</p><p style=""font-size:300%"">Total: 108 points.</p>","null","","","","","","","108","","",""
"","html-keyboard-response","117","427882","0.0-3.0-0.24","xjk","[""r""]","","null","<svg viewBox=""0 0 100 100"" > <path d=""M 50 52 L 50 48"" stroke=""black"" stroke-width="".5""/> <path d=""M 52 50 L 48 50"" stroke=""black"" stroke-width="".5""/>","null","","","","","","","","","",""
"","html-keyboard-response","118","428526","0.0-3.0-1.24","xjk","[""r""]","","641","[""<svg viewBox=\""0 0 100 100\"" >"",""<path d=\""M 50 52 L 50 48\"" stroke=\""black\"" stroke-width=\"".5\""/>"","" <path d=\""M 52 50 L 48 50\"" stroke=\""black\"" stroke-width=\"".5\""/>"",""<circle cx=\""50\"" cy=\""50\"" r=\""10\"" fill=\""none\"" transform=\""translate(26 15)\"" stroke=\""black\"" />"",""<path d=\""M 50 57 L 50 43\"" stroke=\""black\"" transform=\""translate(26 15) rotate(45 50 50)\""/>"",""<circle cx=\""50\"" cy=\""50\"" r=\""10\"" fill=\""none\"" transform=\""translate(0 30)\"" stroke=\""blue\"" />"",""<path d=\""M 50 57 L 50 43\"" stroke=\""black\"" transform=\""translate(0 30) rotate(-45 50 50)\""/>"",""<circle cx=\""50\"" cy=\""50\"" r=\""10\"" fill=\""none\"" transform=\""translate(-26 15)\"" stroke=\""yellow\"" />"",""<path d=\""M 50 57 L 50 43\"" stroke=\""black\"" transform=\""translate(-26 15) rotate(45 50 50)\""/>"",""<circle cx=\""50\"" cy=\""50\"" r=\""10\"" fill=\""none\"" transform=\""translate(-26 -15)\"" stroke=\""lime\"" />"",""<path d=\""M 50 57 L 50 43\"" stroke=\""black\"" transform=\""translate(-26 -15) rotate(0 50 50)\""/>"",""<circle cx=\""50\"" cy=\""50\"" r=\""10\"" fill=\""none\"" transform=\""translate(0 -30)\"" stroke=\""cyan\"" />"",""<path d=\""M 50 57 L 50 43\"" stroke=\""black\"" transform=\""translate(0 -30) rotate(-45 50 50)\""/>"",""<circle cx=\""50\"" cy=\""50\"" r=\""10\"" fill=\""none\"" transform=\""translate(26 -15)\"" stroke=\""magenta\"" />"",""<path d=\""M 50 57 L 50 43\"" stroke=\""black\"" transform=\""translate(26 -15) rotate(-45 50 50)\""/>"",""</svg>""]","m","VDACtest","g","3","v","true","low","","","",""
"","html-keyboard-response","119","431028","0.0-3.0-2.24","xjk","[""r""]","","null","<p style=""font-size:300%;""> + 2 points.</p><p style=""font-size:300%"">Total: 110 points.</p>","null","","","","","","","110","","",""
"","html-keyboard-response","120","432570","0.0-3.0-0.25","xjk","[""r""]","","null","<svg viewBox=""0 0 100 100"" > <path d=""M 50 52 L 50 48"" stroke=""black"" stroke-width="".5""/> <path d=""M 52 50 L 48 50"" stroke=""black"" stroke-width="".5""/>","null","","","","","","","","","",""
"","html-keyboard-response","121","433198","0.0-3.0-1.25","xjk","[""r""]","","624.7000007629395","[""<svg viewBox=\""0 0 100 100\"" >"",""<path d=\""M 50 52 L 50 48\"" stroke=\""black\"" stroke-width=\"".5\""/>"","" <path d=\""M 52 50 L 48 50\"" stroke=\""black\"" stroke-width=\"".5\""/>"",""<circle cx=\""50\"" cy=\""50\"" r=\""10\"" fill=\""none\"" transform=\""translate(26 15)\"" stroke=\""magenta\"" />"",""<path d=\""M 50 57 L 50 43\"" stroke=\""black\"" transform=\""translate(26 15) rotate(-45 50 50)\""/>"",""<circle cx=\""50\"" cy=\""50\"" r=\""10\"" fill=\""none\"" transform=\""translate(0 30)\"" stroke=\""black\"" />"",""<path d=\""M 50 57 L 50 43\"" stroke=\""black\"" transform=\""translate(0 30) rotate(45 50 50)\""/>"",""<circle cx=\""50\"" cy=\""50\"" r=\""10\"" fill=\""none\"" transform=\""translate(-26 15)\"" stroke=\""lime\"" />"",""<path d=\""M 50 57 L 50 43\"" stroke=\""black\"" transform=\""translate(-26 15) rotate(0 50 50)\""/>"",""<circle cx=\""50\"" cy=\""50\"" r=\""10\"" fill=\""none\"" transform=\""translate(-26 -15)\"" stroke=\""cyan\"" />"",""<path d=\""M 50 57 L 50 43\"" stroke=\""black\"" transform=\""translate(-26 -15) rotate(45 50 50)\""/>"",""<circle cx=\""50\"" cy=\""50\"" r=\""10\"" fill=\""none\"" transform=\""translate(0 -30)\"" stroke=\""blue\"" />"",""<path d=\""M 50 57 L 50 43\"" stroke=\""black\"" transform=\""translate(0 -30) rotate(45 50 50)\""/>"",""<circle cx=\""50\"" cy=\""50\"" r=\""10\"" fill=\""none\"" transform=\""translate(26 -15)\"" stroke=\""yellow\"" />"",""<path d=\""M 50 57 L 50 43\"" stroke=\""black\"" transform=\""translate(26 -15) rotate(45 50 50)\""/>"",""</svg>""]","m","VDACtest","g","2","v","true","low","","","",""
"","html-keyboard-response","122","435701","0.0-3.0-2.25","xjk","[""r""]","","null","<p style=""font-size:300%;""> + 2 points.</p><p style=""font-size:300%"">Total: 112 points.</p>","null","","","","","","","112","","",""
"","html-keyboard-response","123","437242","0.0-3.0-0.26","xjk","[""r""]","","null","<svg viewBox=""0 0 100 100"" > <path d=""M 50 52 L 50 48"" stroke=""black"" stroke-width="".5""/> <path d=""M 52 50 L 48 50"" stroke=""black"" stroke-width="".5""/>","null","","","","","","","","","",""
"","html-keyboard-response","124","437854","0.0-3.0-1.26","xjk","[""r""]","","608.6999988555908","[""<svg viewBox=\""0 0 100 100\"" >"",""<path d=\""M 50 52 L 50 48\"" stroke=\""black\"" stroke-width=\"".5\""/>"","" <path d=\""M 52 50 L 48 50\"" stroke=\""black\"" stroke-width=\"".5\""/>"",""<circle cx=\""50\"" cy=\""50\"" r=\""10\"" fill=\""none\"" transform=\""translate(26 15)\"" stroke=\""yellow\"" />"",""<path d=\""M 50 57 L 50 43\"" stroke=\""black\"" transform=\""translate(26 15) rotate(-45 50 50)\""/>"",""<circle cx=\""50\"" cy=\""50\"" r=\""10\"" fill=\""none\"" transform=\""translate(0 30)\"" stroke=\""black\"" />"",""<path d=\""M 50 57 L 50 43\"" stroke=\""black\"" transform=\""translate(0 30) rotate(45 50 50)\""/>"",""<circle cx=\""50\"" cy=\""50\"" r=\""10\"" fill=\""none\"" transform=\""translate(-26 15)\"" stroke=\""blue\"" />"",""<path d=\""M 50 57 L 50 43\"" stroke=\""black\"" transform=\""translate(-26 15) rotate(-45 50 50)\""/>"",""<circle cx=\""50\"" cy=\""50\"" r=\""10\"" fill=\""none\"" transform=\""translate(-26 -15)\"" stroke=\""magenta\"" />"",""<path d=\""M 50 57 L 50 43\"" stroke=\""black\"" transform=\""translate(-26 -15) rotate(45 50 50)\""/>"",""<circle cx=\""50\"" cy=\""50\"" r=\""10\"" fill=\""none\"" transform=\""translate(0 -30)\"" stroke=\""red\"" />"",""<path d=\""M 50 57 L 50 43\"" stroke=\""black\"" transform=\""translate(0 -30) rotate(0 50 50)\""/>"",""<circle cx=\""50\"" cy=\""50\"" r=\""10\"" fill=\""none\"" transform=\""translate(26 -15)\"" stroke=\""cyan\"" />"",""<path d=\""M 50 57 L 50 43\"" stroke=\""black\"" transform=\""translate(26 -15) rotate(-45 50 50)\""/>"",""</svg>""]","m","VDACtest","r","4","v","true","high","","","",""
"","html-keyboard-response","125","440357","0.0-3.0-2.26","xjk","[""r""]","","null","<p style=""font-size:300%;""> + 10 points.</p><p style=""font-size:300%"">Total: 122 points.</p>","null","","","","","","","122","","",""
"","html-keyboard-response","126","441898","0.0-3.0-0.27","xjk","[""r""]","","null","<svg viewBox=""0 0 100 100"" > <path d=""M 50 52 L 50 48"" stroke=""black"" stroke-width="".5""/> <path d=""M 52 50 L 48 50"" stroke=""black"" stroke-width="".5""/>","null","","","","","","","","","",""
"","html-keyboard-response","127","442390","0.0-3.0-1.27","xjk","[""r""]","","489.1000003814697","[""<svg viewBox=\""0 0 100 100\"" >"",""<path d=\""M 50 52 L 50 48\"" stroke=\""black\"" stroke-width=\"".5\""/>"","" <path d=\""M 52 50 L 48 50\"" stroke=\""black\"" stroke-width=\"".5\""/>"",""<circle cx=\""50\"" cy=\""50\"" r=\""10\"" fill=\""none\"" transform=\""translate(26 15)\"" stroke=\""cyan\"" />"",""<path d=\""M 50 57 L 50 43\"" stroke=\""black\"" transform=\""translate(26 15) rotate(45 50 50)\""/>"",""<circle cx=\""50\"" cy=\""50\"" r=\""10\"" fill=\""none\"" transform=\""translate(0 30)\"" stroke=\""magenta\"" />"",""<path d=\""M 50 57 L 50 43\"" stroke=\""black\"" transform=\""translate(0 30) rotate(-45 50 50)\""/>"",""<circle cx=\""50\"" cy=\""50\"" r=\""10\"" fill=\""none\"" transform=\""translate(-26 15)\"" stroke=\""yellow\"" />"",""<path d=\""M 50 57 L 50 43\"" stroke=\""black\"" transform=\""translate(-26 15) rotate(45 50 50)\""/>"",""<circle cx=\""50\"" cy=\""50\"" r=\""10\"" fill=\""none\"" transform=\""translate(-26 -15)\"" stroke=\""black\"" />"",""<path d=\""M 50 57 L 50 43\"" stroke=\""black\"" transform=\""translate(-26 -15) rotate(45 50 50)\""/>"",""<circle cx=\""50\"" cy=\""50\"" r=\""10\"" fill=\""none\"" transform=\""translate(0 -30)\"" stroke=\""blue\"" />"",""<path d=\""M 50 57 L 50 43\"" stroke=\""black\"" transform=\""translate(0 -30) rotate(45 50 50)\""/>"",""<circle cx=\""50\"" cy=\""50\"" r=\""10\"" fill=\""none\"" transform=\""translate(26 -15)\"" stroke=\""red\"" />"",""<path d=\""M 50 57 L 50 43\"" stroke=\""black\"" transform=\""translate(26 -15) rotate(90 50 50)\""/>"",""</svg>""]","m","VDACtest","r","5","h","false","high","","","",""
"","html-keyboard-response","128","444893","0.0-3.0-2.27","xjk","[""r""]","","null","<p style=""font-size:300%;"">Miss.</p><p style=""font-size:300%"">Total: 122 points.</p>","null","","","","","","","122","","",""
"","html-keyboard-response","129","446436","0.0-3.0-0.28","xjk","[""r""]","","null","<svg viewBox=""0 0 100 100"" > <path d=""M 50 52 L 50 48"" stroke=""black"" stroke-width="".5""/> <path d=""M 52 50 L 48 50"" stroke=""black"" stroke-width="".5""/>","null","","","","","","","","","",""
"","html-keyboard-response","130","447022","0.0-3.0-1.28","xjk","[""r""]","","583","[""<svg viewBox=\""0 0 100 100\"" >"",""<path d=\""M 50 52 L 50 48\"" stroke=\""black\"" stroke-width=\"".5\""/>"","" <path d=\""M 52 50 L 48 50\"" stroke=\""black\"" stroke-width=\"".5\""/>"",""<circle cx=\""50\"" cy=\""50\"" r=\""10\"" fill=\""none\"" transform=\""translate(26 15)\"" stroke=\""cyan\"" />"",""<path d=\""M 50 57 L 50 43\"" stroke=\""black\"" transform=\""translate(26 15) rotate(-45 50 50)\""/>"",""<circle cx=\""50\"" cy=\""50\"" r=\""10\"" fill=\""none\"" transform=\""translate(0 30)\"" stroke=\""black\"" />"",""<path d=\""M 50 57 L 50 43\"" stroke=\""black\"" transform=\""translate(0 30) rotate(45 50 50)\""/>"",""<circle cx=\""50\"" cy=\""50\"" r=\""10\"" fill=\""none\"" transform=\""translate(-26 15)\"" stroke=\""blue\"" />"",""<path d=\""M 50 57 L 50 43\"" stroke=\""black\"" transform=\""translate(-26 15) rotate(-45 50 50)\""/>"",""<circle cx=\""50\"" cy=\""50\"" r=\""10\"" fill=\""none\"" transform=\""translate(-26 -15)\"" stroke=\""red\"" />"",""<path d=\""M 50 57 L 50 43\"" stroke=\""black\"" transform=\""translate(-26 -15) rotate(0 50 50)\""/>"",""<circle cx=\""50\"" cy=\""50\"" r=\""10\"" fill=\""none\"" transform=\""translate(0 -30)\"" stroke=\""magenta\"" />"",""<path d=\""M 50 57 L 50 43\"" stroke=\""black\"" transform=\""translate(0 -30) rotate(-45 50 50)\""/>"",""<circle cx=\""50\"" cy=\""50\"" r=\""10\"" fill=\""none\"" transform=\""translate(26 -15)\"" stroke=\""yellow\"" />"",""<path d=\""M 50 57 L 50 43\"" stroke=\""black\"" transform=\""translate(26 -15) rotate(45 50 50)\""/>"",""</svg>""]","m","VDACtest","r","3","v","true","high","","","",""
"","html-keyboard-response","131","449526","0.0-3.0-2.28","xjk","[""r""]","","null","<p style=""font-size:300%;""> + 10 points.</p><p style=""font-size:300%"">Total: 132 points.</p>","null","","","","","","","132","","",""
"","html-keyboard-response","132","451068","0.0-3.0-0.29","xjk","[""r""]","","null","<svg viewBox=""0 0 100 100"" > <path d=""M 50 52 L 50 48"" stroke=""black"" stroke-width="".5""/> <path d=""M 52 50 L 48 50"" stroke=""black"" stroke-width="".5""/>","null","","","","","","","","","",""
"","html-keyboard-response","133","451710","0.0-3.0-1.29","xjk","[""r""]","","638.5999984741211","[""<svg viewBox=\""0 0 100 100\"" >"",""<path d=\""M 50 52 L 50 48\"" stroke=\""black\"" stroke-width=\"".5\""/>"","" <path d=\""M 52 50 L 48 50\"" stroke=\""black\"" stroke-width=\"".5\""/>"",""<circle cx=\""50\"" cy=\""50\"" r=\""10\"" fill=\""none\"" transform=\""translate(26 15)\"" stroke=\""magenta\"" />"",""<path d=\""M 50 57 L 50 43\"" stroke=\""black\"" transform=\""translate(26 15) rotate(45 50 50)\""/>"",""<circle cx=\""50\"" cy=\""50\"" r=\""10\"" fill=\""none\"" transform=\""translate(0 30)\"" stroke=\""yellow\"" />"",""<path d=\""M 50 57 L 50 43\"" stroke=\""black\"" transform=\""translate(0 30) rotate(45 50 50)\""/>"",""<circle cx=\""50\"" cy=\""50\"" r=\""10\"" fill=\""none\"" transform=\""translate(-26 15)\"" stroke=\""black\"" />"",""<path d=\""M 50 57 L 50 43\"" stroke=\""black\"" transform=\""translate(-26 15) rotate(45 50 50)\""/>"",""<circle cx=\""50\"" cy=\""50\"" r=\""10\"" fill=\""none\"" transform=\""translate(-26 -15)\"" stroke=\""blue\"" />"",""<path d=\""M 50 57 L 50 43\"" stroke=\""black\"" transform=\""translate(-26 -15) rotate(-45 50 50)\""/>"",""<circle cx=\""50\"" cy=\""50\"" r=\""10\"" fill=\""none\"" transform=\""translate(0 -30)\"" stroke=\""lime\"" />"",""<path d=\""M 50 57 L 50 43\"" stroke=\""black\"" transform=\""translate(0 -30) rotate(90 50 50)\""/>"",""<circle cx=\""50\"" cy=\""50\"" r=\""10\"" fill=\""none\"" transform=\""translate(26 -15)\"" stroke=\""cyan\"" />"",""<path d=\""M 50 57 L 50 43\"" stroke=\""black\"" transform=\""translate(26 -15) rotate(45 50 50)\""/>"",""</svg>""]","z","VDACtest","g","4","h","true","low","","","",""
"","html-keyboard-response","134","454212","0.0-3.0-2.29","xjk","[""r""]","","null","<p style=""font-size:300%;""> + 10 points.</p><p style=""font-size:300%"">Total: 142 points.</p>","null","","","","","","","142","","",""
"","html-keyboard-response","135","455754","0.0-3.0-0.30","xjk","[""r""]","","null","<svg viewBox=""0 0 100 100"" > <path d=""M 50 52 L 50 48"" stroke=""black"" stroke-width="".5""/> <path d=""M 52 50 L 48 50"" stroke=""black"" stroke-width="".5""/>","null","","","","","","","","","",""
"","html-keyboard-response","136","456286","0.0-3.0-1.30","xjk","[""r""]","","528.9000015258789","[""<svg viewBox=\""0 0 100 100\"" >"",""<path d=\""M 50 52 L 50 48\"" stroke=\""black\"" stroke-width=\"".5\""/>"","" <path d=\""M 52 50 L 48 50\"" stroke=\""black\"" stroke-width=\"".5\""/>"",""<circle cx=\""50\"" cy=\""50\"" r=\""10\"" fill=\""none\"" transform=\""translate(26 15)\"" stroke=\""black\"" />"",""<path d=\""M 50 57 L 50 43\"" stroke=\""black\"" transform=\""translate(26 15) rotate(45 50 50)\""/>"",""<circle cx=\""50\"" cy=\""50\"" r=\""10\"" fill=\""none\"" transform=\""translate(0 30)\"" stroke=\""blue\"" />"",""<path d=\""M 50 57 L 50 43\"" stroke=\""black\"" transform=\""translate(0 30) rotate(45 50 50)\""/>"",""<circle cx=\""50\"" cy=\""50\"" r=\""10\"" fill=\""none\"" transform=\""translate(-26 15)\"" stroke=\""yellow\"" />"",""<path d=\""M 50 57 L 50 43\"" stroke=\""black\"" transform=\""translate(-26 15) rotate(45 50 50)\""/>"",""<circle cx=\""50\"" cy=\""50\"" r=\""10\"" fill=\""none\"" transform=\""translate(-26 -15)\"" stroke=\""magenta\"" />"",""<path d=\""M 50 57 L 50 43\"" stroke=\""black\"" transform=\""translate(-26 -15) rotate(-45 50 50)\""/>"",""<circle cx=\""50\"" cy=\""50\"" r=\""10\"" fill=\""none\"" transform=\""translate(0 -30)\"" stroke=\""cyan\"" />"",""<path d=\""M 50 57 L 50 43\"" stroke=\""black\"" transform=\""translate(0 -30) rotate(45 50 50)\""/>"",""<circle cx=\""50\"" cy=\""50\"" r=\""10\"" fill=\""none\"" transform=\""translate(26 -15)\"" stroke=\""red\"" />"",""<path d=\""M 50 57 L 50 43\"" stroke=\""black\"" transform=\""translate(26 -15) rotate(90 50 50)\""/>"",""</svg>""]","z","VDACtest","r","5","h","true","high","","","",""
"","html-keyboard-response","137","458788","0.0-3.0-2.30","xjk","[""r""]","","null","<p style=""font-size:300%;""> + 10 points.</p><p style=""font-size:300%"">Total: 152 points.</p>","null","","","","","","","152","","",""
"","html-keyboard-response","138","460329","0.0-3.0-0.31","xjk","[""r""]","","null","<svg viewBox=""0 0 100 100"" > <path d=""M 50 52 L 50 48"" stroke=""black"" stroke-width="".5""/> <path d=""M 52 50 L 48 50"" stroke=""black"" stroke-width="".5""/>","null","","","","","","","","","",""
"","html-keyboard-response","139","460846","0.0-3.0-1.31","xjk","[""r""]","","513.3999996185303","[""<svg viewBox=\""0 0 100 100\"" >"",""<path d=\""M 50 52 L 50 48\"" stroke=\""black\"" stroke-width=\"".5\""/>"","" <path d=\""M 52 50 L 48 50\"" stroke=\""black\"" stroke-width=\"".5\""/>"",""<circle cx=\""50\"" cy=\""50\"" r=\""10\"" fill=\""none\"" transform=\""translate(26 15)\"" stroke=\""black\"" />"",""<path d=\""M 50 57 L 50 43\"" stroke=\""black\"" transform=\""translate(26 15) rotate(45 50 50)\""/>"",""<circle cx=\""50\"" cy=\""50\"" r=\""10\"" fill=\""none\"" transform=\""translate(0 30)\"" stroke=\""magenta\"" />"",""<path d=\""M 50 57 L 50 43\"" stroke=\""black\"" transform=\""translate(0 30) rotate(-45 50 50)\""/>"",""<circle cx=\""50\"" cy=\""50\"" r=\""10\"" fill=\""none\"" transform=\""translate(-26 15)\"" stroke=\""blue\"" />"",""<path d=\""M 50 57 L 50 43\"" stroke=\""black\"" transform=\""translate(-26 15) rotate(-45 50 50)\""/>"",""<circle cx=\""50\"" cy=\""50\"" r=\""10\"" fill=\""none\"" transform=\""translate(-26 -15)\"" stroke=\""yellow\"" />"",""<path d=\""M 50 57 L 50 43\"" stroke=\""black\"" transform=\""translate(-26 -15) rotate(45 50 50)\""/>"",""<circle cx=\""50\"" cy=\""50\"" r=\""10\"" fill=\""none\"" transform=\""translate(0 -30)\"" stroke=\""red\"" />"",""<path d=\""M 50 57 L 50 43\"" stroke=\""black\"" transform=\""translate(0 -30) rotate(90 50 50)\""/>"",""<circle cx=\""50\"" cy=\""50\"" r=\""10\"" fill=\""none\"" transform=\""translate(26 -15)\"" stroke=\""cyan\"" />"",""<path d=\""M 50 57 L 50 43\"" stroke=\""black\"" transform=\""translate(26 -15) rotate(-45 50 50)\""/>"",""</svg>""]","z","VDACtest","r","4","h","true","high","","","",""
"","html-keyboard-response","140","463349","0.0-3.0-2.31","xjk","[""r""]","","null","<p style=""font-size:300%;""> + 2 points.</p><p style=""font-size:300%"">Total: 154 points.</p>","null","","","","","","","154","","",""
"","html-keyboard-response","141","464890","0.0-3.0-0.32","xjk","[""r""]","","null","<svg viewBox=""0 0 100 100"" > <path d=""M 50 52 L 50 48"" stroke=""black"" stroke-width="".5""/> <path d=""M 52 50 L 48 50"" stroke=""black"" stroke-width="".5""/>","null","","","","","","","","","",""
"","html-keyboard-response","142","465870","0.0-3.0-1.32","xjk","[""r""]","","976.4000015258789","[""<svg viewBox=\""0 0 100 100\"" >"",""<path d=\""M 50 52 L 50 48\"" stroke=\""black\"" stroke-width=\"".5\""/>"","" <path d=\""M 52 50 L 48 50\"" stroke=\""black\"" stroke-width=\"".5\""/>"",""<circle cx=\""50\"" cy=\""50\"" r=\""10\"" fill=\""none\"" transform=\""translate(26 15)\"" stroke=\""blue\"" />"",""<path d=\""M 50 57 L 50 43\"" stroke=\""black\"" transform=\""translate(26 15) rotate(-45 50 50)\""/>"",""<circle cx=\""50\"" cy=\""50\"" r=\""10\"" fill=\""none\"" transform=\""translate(0 30)\"" stroke=\""magenta\"" />"",""<path d=\""M 50 57 L 50 43\"" stroke=\""black\"" transform=\""translate(0 30) rotate(45 50 50)\""/>"",""<circle cx=\""50\"" cy=\""50\"" r=\""10\"" fill=\""none\"" transform=\""translate(-26 15)\"" stroke=\""lime\"" />"",""<path d=\""M 50 57 L 50 43\"" stroke=\""black\"" transform=\""translate(-26 15) rotate(0 50 50)\""/>"",""<circle cx=\""50\"" cy=\""50\"" r=\""10\"" fill=\""none\"" transform=\""translate(-26 -15)\"" stroke=\""yellow\"" />"",""<path d=\""M 50 57 L 50 43\"" stroke=\""black\"" transform=\""translate(-26 -15) rotate(45 50 50)\""/>"",""<circle cx=\""50\"" cy=\""50\"" r=\""10\"" fill=\""none\"" transform=\""translate(0 -30)\"" stroke=\""black\"" />"",""<path d=\""M 50 57 L 50 43\"" stroke=\""black\"" transform=\""translate(0 -30) rotate(45 50 50)\""/>"",""<circle cx=\""50\"" cy=\""50\"" r=\""10\"" fill=\""none\"" transform=\""translate(26 -15)\"" stroke=\""cyan\"" />"",""<path d=\""M 50 57 L 50 43\"" stroke=\""black\"" transform=\""translate(26 -15) rotate(-45 50 50)\""/>"",""</svg>""]","m","VDACtest","g","2","v","true","low","","","",""
"","html-keyboard-response","143","468373","0.0-3.0-2.32","xjk","[""r""]","","null","<p style=""font-size:300%;""> + 2 points.</p><p style=""font-size:300%"">Total: 156 points.</p>","null","","","","","","","156","","",""
"","html-keyboard-response","144","469913","0.0-3.0-0.33","xjk","[""r""]","","null","<svg viewBox=""0 0 100 100"" > <path d=""M 50 52 L 50 48"" stroke=""black"" stroke-width="".5""/> <path d=""M 52 50 L 48 50"" stroke=""black"" stroke-width="".5""/>","null","","","","","","","","","",""
