subID,trialType,trialNum,cntBalance,correct,rt,rwdType,tgtCol,tgtDir,tgtPos,colPos,colMatch,
xjk,VDACtrain,0,r,null,null,1,g,h,3,,,
xjk,VDACtrain,0,r,false,563.8999996185303,2,r,h,0,,,
xjk,VDACtrain,0,r,false,664.1000003814697,2,r,h,2,,,
xjk,VDACtrain,0,r,true,512.1000003814697,2,r,v,4,,,
xjk,VDACtrain,0,r,true,568.0999984741211,2,r,v,3,,,
xjk,VDACtrain,0,r,true,575,1,g,v,0,,,
xjk,VDACtrain,0,r,true,656.2999992370605,1,g,v,5,,,
xjk,VDACtrain,0,r,false,576.5,1,g,v,2,,,
xjk,VDACtrain,0,r,false,704.7000007629395,2,r,h,1,,,
xjk,VDACtrain,0,r,null,null,1,g,h,5,,,
xjk,VDACtest,1,r,true,626.8999996185303,2,r,h,1,,,
xjk,VDACtest,2,r,false,560.3999996185303,1,g,h,4,,,
xjk,VDACtest,3,r,true,583.2999992370605,2,r,v,0,,,
xjk,VDACtest,4,r,true,536.3999996185303,1,g,h,5,,,
xjk,VDACtest,5,r,false,480.5,1,g,v,4,,,
xjk,VDACtest,6,r,false,551.8000011444092,1,g,h,4,,,
xjk,VDACtest,7,r,true,543.3000011444092,1,g,h,2,,,
xjk,VDACtest,8,r,false,528,2,r,h,5,,,
xjk,VDACtest,9,r,true,631.1000003814697,2,r,v,1,,,
xjk,VDACtest,10,r,true,696.6000003814697,1,g,h,0,,,
xjk,VDACtest,11,r,true,608.6999988555908,2,r,h,1,,,
xjk,VDACtest,12,r,false,815.2999992370605,1,g,v,4,,,
xjk,VDACtest,13,r,true,680.3000011444092,2,r,h,4,,,
xjk,VDACtest,14,r,true,769.1000003814697,1,g,h,1,,,
xjk,VDACtest,15,r,true,679.8000011444092,1,g,v,5,,,
xjk,VDACtest,16,r,true,800.8999996185303,1,g,v,5,,,
xjk,VDACtest,17,r,true,656.5,2,r,v,4,,,
xjk,VDACtest,18,r,true,625.6000003814697,2,r,h,3,,,
xjk,VDACtest,19,r,true,712,1,g,h,5,,,
xjk,VDACtest,20,r,true,639.3000011444092,1,g,h,0,,,
xjk,VDACtest,21,r,true,441.3999996185303,2,r,v,5,,,
xjk,VDACtest,22,r,true,518.5,2,r,v,5,,,
xjk,VDACtest,23,r,true,544.1000003814697,1,g,v,0,,,
xjk,VDACtest,24,r,false,512.2000007629395,2,r,h,5,,,
xjk,VDACtest,25,r,true,641,1,g,v,3,,,
xjk,VDACtest,26,r,true,624.7000007629395,1,g,v,2,,,
xjk,VDACtest,27,r,true,608.6999988555908,2,r,v,4,,,
xjk,VDACtest,28,r,false,489.1000003814697,2,r,h,5,,,
xjk,VDACtest,29,r,true,583,2,r,v,3,,,
xjk,VDACtest,30,r,true,638.5999984741211,1,g,h,4,,,
xjk,VDACtest,31,r,true,528.9000015258789,2,r,h,5,,,
xjk,VDACtest,32,r,true,513.3999996185303,2,r,h,4,,,
xjk,VDACtest,33,r,true,976.4000015258789,1,g,v,2,,,
xjk,VDACtest,34,r,true,889.5,1,g,h,0,,,
xjk,VDACtest,35,r,true,697.3000011444092,1,g,h,0,,,
xjk,VDACtest,36,r,true,663.3000011444092,2,r,h,2,,,
xjk,VDACtest,37,r,true,591.4000015258789,1,g,h,3,,,
xjk,VDACtest,38,r,true,896.2999992370605,2,r,v,3,,,
xjk,VDACtest,39,r,true,649.2000007629395,1,g,h,1,,,
xjk,VDACtest,40,r,true,688.6000003814697,1,g,v,1,,,
xjk,VDACtest,41,r,true,512.1999988555908,1,g,v,4,,,
xjk,VDACtest,42,r,true,607.1000003814697,1,g,h,1,,,
xjk,VDACtest,43,r,true,544.2000007629395,2,r,v,0,,,
xjk,VDACtest,44,r,false,505.5,2,r,v,2,,,
xjk,VDACtest,45,r,true,679.5,1,g,v,1,,,
xjk,VDACtest,46,r,true,760,2,r,h,0,,,
xjk,VDACtest,47,r,true,609.0999984741211,1,g,h,5,,,
xjk,VDACtest,48,r,true,849,1,g,h,3,,,
xjk,VDACtest,49,r,true,601.3999996185303,1,g,v,3,,,
xjk,VDACtest,50,r,true,770.3000011444092,2,r,v,2,,,
brk,brk,brk,brk,brk,brk,brk,brk,brk,brk,brk,brk,
xjk,VDACtest,51,r,true,862.7000007629395,2,r,h,5,,,
xjk,VDACtest,52,r,true,528.7999992370605,1,g,v,3,,,
xjk,VDACtest,53,r,true,654.9000015258789,1,g,h,0,,,
xjk,VDACtest,54,r,true,530.1999988555908,1,g,h,5,,,
xjk,VDACtest,55,r,true,534.5,2,r,v,4,,,
xjk,VDACtest,56,r,true,720,2,r,v,1,,,
xjk,VDACtest,57,r,true,648.4000015258789,1,g,h,3,,,
xjk,VDACtest,58,r,true,615,2,r,h,2,,,
xjk,VDACtest,59,r,true,736.8999996185303,1,g,h,1,,,
xjk,VDACtest,60,r,false,487.8999996185303,2,r,h,5,,,
xjk,VDACtest,61,r,true,639.2000007629395,1,g,v,1,,,
xjk,VDACtest,62,r,true,649.1000003814697,2,r,v,2,,,
xjk,VDACtest,63,r,true,521.5,2,r,v,3,,,
xjk,VDACtest,64,r,true,648.7000007629395,2,r,v,3,,,
xjk,VDACtest,65,r,true,993.8999996185303,2,r,h,2,,,
xjk,VDACtest,66,r,true,615.1000003814697,1,g,v,4,,,
xjk,VDACtest,67,r,true,562,1,g,v,3,,,
xjk,VDACtest,68,r,true,562.6999988555908,2,r,h,2,,,
xjk,VDACtest,69,r,true,446.20000076293945,1,g,h,3,,,
xjk,VDACtest,70,r,true,505,2,r,v,4,,,
xjk,VDACtest,71,r,true,712.5,1,g,h,1,,,
xjk,VDACtest,72,r,true,639.2999992370605,1,g,v,0,,,
xjk,VDACtest,73,r,true,872.3999996185303,1,g,h,5,,,
xjk,VDACtest,74,r,null,null,2,r,v,4,,,
xjk,VDACtest,75,r,true,665.2000007629395,2,r,h,0,,,
xjk,VDACtest,76,r,true,758.0999984741211,2,r,h,1,,,
xjk,VDACtest,77,r,true,639.2999992370605,2,r,v,0,,,
xjk,VDACtest,78,r,true,616.8999996185303,1,g,h,0,,,
xjk,VDACtest,79,r,true,630.3999996185303,1,g,h,1,,,
xjk,VDACtest,80,r,true,679.5,2,r,v,4,,,
xjk,VDACtest,81,r,null,null,2,r,v,5,,,
xjk,VDACtest,82,r,false,672.5,1,g,v,3,,,
xjk,VDACtest,83,r,true,711.9000015258789,1,g,v,5,,,
xjk,VDACtest,84,r,true,586,2,r,v,5,,,
xjk,VDACtest,85,r,true,472.4000015258789,2,r,v,5,,,
xjk,VDACtest,86,r,true,703.8999996185303,2,r,h,1,,,
xjk,VDACtest,87,r,true,633.2999992370605,2,r,v,1,,,
xjk,VDACtest,88,r,true,607.3999996185303,2,r,v,4,,,
xjk,VDACtest,89,r,true,615,1,g,h,1,,,
xjk,VDACtest,90,r,true,785.8999996185303,1,g,h,5,,,
xjk,VDACtest,91,r,true,687.8000011444092,2,r,h,4,,,
xjk,VDACtest,92,r,true,631,1,g,h,0,,,
xjk,VDACtest,93,r,true,680.2000007629395,2,r,h,1,,,
xjk,VDACtest,94,r,true,582.7999992370605,1,g,h,2,,,
xjk,VDACtest,95,r,true,552.8999996185303,2,r,h,3,,,
xjk,VDACtest,96,r,true,625.2000007629395,2,r,v,2,,,
xjk,VDACtest,97,r,true,736.7000007629395,1,g,v,4,,,
xjk,VDACtest,98,r,true,503.6000003814697,2,r,h,2,,,
xjk,VDACtest,99,r,true,649.6000003814697,1,g,h,3,,,
xjk,VDACtest,100,r,true,655.8999996185303,1,g,v,0,,,
brk,brk,brk,brk,brk,brk,brk,brk,brk,brk,brk,brk,
xjk,VDACtest,101,r,true,665.1999988555908,1,g,v,0,,,
xjk,VDACtest,102,r,false,606.8999996185303,1,g,v,1,,,
xjk,VDACtest,103,r,true,481.3000011444092,1,g,v,2,,,
xjk,VDACtest,104,r,true,656.8999996185303,1,g,h,1,,,
xjk,VDACtest,105,r,true,518.3999996185303,1,g,v,1,,,
xjk,VDACtest,106,r,true,545.3999996185303,1,g,v,5,,,
xjk,VDACtest,107,r,true,512.7999992370605,1,g,v,5,,,
xjk,VDACtest,108,r,true,736.5,2,r,v,1,,,
xjk,VDACtest,109,r,true,664.8999996185303,2,r,h,4,,,
xjk,VDACtest,110,r,true,656.4000015258789,1,g,h,2,,,
xjk,VDACtest,111,r,true,432.8999996185303,1,g,v,5,,,
xjk,VDACtest,112,r,true,679.3999996185303,1,g,v,2,,,
xjk,VDACtest,113,r,true,480,1,g,v,5,,,
xjk,VDACtest,114,r,true,664,2,r,h,4,,,
xjk,VDACtest,115,r,true,558.6999988555908,2,r,h,4,,,
xjk,VDACtest,116,r,true,504.70000076293945,2,r,v,3,,,
xjk,VDACtest,117,r,true,614.5,1,g,v,1,,,
xjk,VDACtest,118,r,true,784.0999984741211,2,r,h,0,,,
xjk,VDACtest,119,r,true,688.7000007629395,2,r,h,3,,,
xjk,VDACtest,120,r,true,655.6999988555908,2,r,v,3,,,
xjk,VDACtest,121,r,true,543.7999992370605,1,g,v,1,,,
xjk,VDACtest,122,r,true,849.3999996185303,1,g,h,4,,,
xjk,VDACtest,123,r,true,568.8999996185303,1,g,v,3,,,
xjk,VDACtest,124,r,true,672.7000007629395,2,r,h,0,,,
xjk,VDACtest,125,r,true,729.1000003814697,2,r,h,3,,,
xjk,VDACtest,126,r,true,519.5,1,g,v,4,,,
xjk,VDACtest,127,r,true,657.5,1,g,h,4,,,
xjk,VDACtest,128,r,true,593,1,g,h,3,,,
xjk,VDACtest,129,r,true,463.9000015258789,2,r,v,0,,,
xjk,VDACtest,130,r,true,416.8000011444092,1,g,h,3,,,
xjk,VDACtest,131,r,true,681.8999996185303,1,g,h,5,,,
xjk,VDACtest,132,r,true,568.5,2,r,h,5,,,
xjk,VDACtest,133,r,true,544,2,r,v,5,,,
xjk,VDACtest,134,r,true,592.5999984741211,1,g,v,0,,,
xjk,VDACtest,135,r,true,703.8999996185303,1,g,v,1,,,
xjk,VDACtest,136,r,true,805.7999992370605,1,g,v,2,,,
xjk,VDACtest,137,r,true,569.7000007629395,1,g,v,0,,,
xjk,VDACtest,138,r,true,677.5,1,g,h,2,,,
xjk,VDACtest,139,r,true,704.1000003814697,2,r,v,1,,,
xjk,VDACtest,140,r,true,608.5,2,r,v,1,,,
xjk,VDACtest,141,r,true,608.5,2,r,h,0,,,
xjk,VDACtest,142,r,true,488.8999996185303,2,r,v,2,,,
xjk,VDACtest,143,r,true,617.7000007629395,2,r,h,3,,,
xjk,VDACtest,144,r,true,694.2999992370605,1,g,h,4,,,
xjk,VDACtest,145,r,true,599.2999992370605,1,g,v,2,,,
xjk,VDACtest,146,r,true,607.8999996185303,2,r,v,5,,,
xjk,VDACtest,147,r,true,544,1,g,v,3,,,
xjk,VDACtest,148,r,true,584.0999984741211,2,r,v,1,,,
xjk,VDACtest,149,r,true,432.20000076293945,1,g,v,3,,,
xjk,VDACtest,150,r,true,605.1999988555908,2,r,h,1,,,
brk,brk,brk,brk,brk,brk,brk,brk,brk,brk,brk,brk,
xjk,VDACtest,151,r,true,767,2,r,h,4,,,
xjk,VDACtest,152,r,true,456.1000003814697,2,r,v,0,,,
xjk,VDACtest,153,r,true,519,2,r,h,0,,,
xjk,VDACtest,154,r,true,552.6000003814697,1,g,h,0,,,
xjk,VDACtest,155,r,true,511,1,g,v,4,,,
xjk,VDACtest,156,r,true,512.6000003814697,1,g,v,0,,,
xjk,VDACtest,157,r,true,553.2000007629395,2,r,h,3,,,
xjk,VDACtest,158,r,true,495.70000076293945,2,r,v,3,,,
xjk,VDACtest,159,r,true,583.1999988555908,2,r,h,0,,,
xjk,VDACtest,160,r,false,599.1000003814697,1,g,h,4,,,
xjk,VDACtest,161,r,true,575.7999992370605,2,r,v,1,,,
xjk,VDACtest,162,r,true,504.1999988555908,2,r,v,0,,,
xjk,VDACtest,163,r,true,607.8999996185303,2,r,h,2,,,
xjk,VDACtest,164,r,true,583.1999988555908,2,r,v,0,,,
xjk,VDACtest,165,r,true,502.6999988555908,1,g,h,2,,,
xjk,VDACtest,166,r,true,551.3000011444092,2,r,v,2,,,
xjk,VDACtest,167,r,true,462.5999984741211,1,g,h,2,,,
xjk,VDACtest,168,r,true,446,1,g,h,2,,,
xjk,VDACtest,169,r,true,447.3999996185303,1,g,v,0,,,
xjk,VDACtest,170,r,true,750.8999996185303,2,r,h,4,,,
xjk,VDACtest,171,r,true,584.1000003814697,2,r,h,5,,,
xjk,VDACtest,172,r,true,799.6000003814697,1,g,v,2,,,
xjk,VDACtest,173,r,true,576.4000015258789,2,r,v,0,,,
xjk,VDACtest,174,r,true,615.2000007629395,1,g,h,4,,,
xjk,VDACtest,175,r,true,751.6999988555908,2,r,h,1,,,
xjk,VDACtest,176,r,true,608.8000011444092,1,g,h,3,,,
xjk,VDACtest,177,r,true,496,2,r,h,2,,,
xjk,VDACtest,178,r,true,575.7000007629395,2,r,h,0,,,
xjk,VDACtest,179,r,true,542.5,2,r,v,2,,,
xjk,VDACtest,180,r,true,560.5,2,r,v,2,,,
xjk,VDACtest,181,r,true,519.8999996185303,1,g,h,2,,,
xjk,VDACtest,182,r,true,656.2000007629395,2,r,v,1,,,
xjk,VDACtest,183,r,true,736.5,2,r,h,3,,,
xjk,VDACtest,184,r,true,648.8999996185303,1,g,h,4,,,
xjk,VDACtest,185,r,true,600.2000007629395,2,r,h,4,,,
xjk,VDACtest,186,r,true,673.7000007629395,2,r,v,4,,,
xjk,VDACtest,187,r,true,671.1000003814697,1,g,h,5,,,
xjk,VDACtest,188,r,true,664,1,g,v,5,,,
xjk,VDACtest,189,r,true,615.7999992370605,2,r,h,1,,,
xjk,VDACtest,190,r,true,657,2,r,h,2,,,
xjk,VDACtest,191,r,true,608.1000003814697,2,r,v,5,,,
xjk,VDACtest,192,r,true,558.1999988555908,1,g,h,1,,,
xjk,VDACtest,193,r,true,609,2,r,h,1,,,
xjk,VDACtest,194,r,true,567.9000015258789,2,r,v,4,,,
xjk,VDACtest,195,r,true,671.3999996185303,2,r,h,3,,,
xjk,VDACtest,196,r,true,583.5,1,g,v,1,,,
xjk,VDACtest,197,r,true,552.7999992370605,1,g,v,4,,,
xjk,VDACtest,198,r,false,513.1999988555908,1,g,v,2,,,
xjk,VDACtest,199,r,true,535.0999984741211,2,r,v,3,,,
xjk,VDACtest,200,r,true,447.29999923706055,1,g,v,4,,,
xjk,RSVPtrain,0,r,null,null,2,r,,1,1,2,
xjk,RSVPtrain,0,r,true,1628.3999996185303,0,b,,0,3,0,
xjk,RSVPtrain,0,r,false,1490.8999996185303,2,r,,0,0,2,
xjk,RSVPtrain,0,r,true,1219.1000003814697,1,g,,3,1,1,
xjk,RSVPtrain,0,r,true,848.2999992370605,2,r,,3,2,1,
xjk,RSVPtrain,0,r,false,898.8999996185303,0,b,,1,3,0,
xjk,RSVPtrain,0,r,true,507.8999996185303,1,g,,3,0,1,
xjk,RSVPtrain,0,r,true,883.1000003814697,0,b,,3,3,0,
xjk,RSVPtrain,0,r,true,883.3000011444092,1,g,,2,2,2,
xjk,RSVPtrain,0,r,true,1034.8999996185303,1,g,,1,0,1,
xjk,RSVPtest,1,r,true,561.2999992370605,2,r,,3,2,1,
xjk,RSVPtest,2,r,false,1107.400001525879,2,r,,3,0,1,
xjk,RSVPtest,3,r,true,593.8999996185303,2,r,,3,2,1,
xjk,RSVPtest,4,r,true,776.7000007629395,2,r,,2,1,1,
xjk,RSVPtest,5,r,false,1605,2,r,,1,1,2,
xjk,RSVPtest,6,r,false,378.8999996185303,1,g,,1,0,1,
xjk,RSVPtest,7,r,true,1194.099998474121,0,b,,3,3,0,
xjk,RSVPtest,8,r,true,386.70000076293945,0,b,,3,3,0,
xjk,RSVPtest,9,r,true,130.29999923706055,2,r,,3,2,1,
xjk,RSVPtest,10,r,false,362.29999923706055,2,r,,1,1,2,
xjk,RSVPtest,11,r,false,289.9000015258789,2,r,,2,2,2,
xjk,RSVPtest,12,r,false,320.1000003814697,1,g,,0,1,1,
xjk,RSVPtest,13,r,false,345,0,b,,1,3,0,
xjk,RSVPtest,14,r,false,337.70000076293945,1,g,,2,2,2,
xjk,RSVPtest,15,r,true,1185.7000007629395,1,g,,3,1,1,
xjk,RSVPtest,16,r,true,754,2,r,,3,1,1,
xjk,RSVPtest,17,r,false,466.8999996185303,2,r,,0,0,2,
xjk,RSVPtest,18,r,true,919.8000011444092,1,g,,2,1,1,
xjk,RSVPtest,19,r,true,1234.1999988555908,2,r,,3,2,1,
xjk,RSVPtest,20,r,true,987.2000007629395,1,g,,3,2,1,
xjk,RSVPtest,21,r,true,969.1000003814697,2,r,,0,1,1,
xjk,RSVPtest,22,r,true,1177.8000011444092,2,r,,3,2,1,
xjk,RSVPtest,23,r,false,956.1000003814697,2,r,,0,1,1,
xjk,RSVPtest,24,r,true,1043.7000007629395,0,b,,3,3,0,
xjk,RSVPtest,25,r,true,1058.099998474121,0,b,,0,3,0,
xjk,RSVPtest,26,r,true,1161.1000003814697,2,r,,3,0,1,
xjk,RSVPtest,27,r,true,1217.1000003814697,2,r,,3,0,1,
xjk,RSVPtest,28,r,false,1057.8999996185303,2,r,,0,0,2,
xjk,RSVPtest,29,r,false,1754,2,r,,2,0,1,
xjk,RSVPtest,30,r,null,null,2,r,,0,2,1,
xjk,RSVPtest,31,r,false,262.70000076293945,2,r,,2,2,2,
xjk,RSVPtest,32,r,false,898.0999984741211,1,g,,0,2,1,
xjk,RSVPtest,33,r,true,1155,0,b,,0,3,0,
xjk,RSVPtest,34,r,true,1088.8000011444092,0,b,,1,3,0,
xjk,RSVPtest,35,r,true,771.1000003814697,1,g,,3,1,1,
xjk,RSVPtest,36,r,true,1003.1999988555908,0,b,,2,3,0,
xjk,RSVPtest,37,r,true,922.7000007629395,2,r,,3,1,1,
xjk,RSVPtest,38,r,true,1058.5,1,g,,2,0,1,
xjk,RSVPtest,39,r,true,1161.7999992370605,2,r,,3,1,1,
xjk,RSVPtest,40,r,true,1042.2000007629395,2,r,,1,2,1,
xjk,RSVPtest,41,r,true,1299.099998474121,0,b,,3,3,0,
xjk,RSVPtest,42,r,true,1161.3999996185303,2,r,,1,2,1,
xjk,RSVPtest,43,r,true,1419,0,b,,1,3,0,
xjk,RSVPtest,44,r,true,1153.2000007629395,1,g,,0,2,1,
xjk,RSVPtest,45,r,true,1082,1,g,,2,1,1,
xjk,RSVPtest,46,r,false,1056.3999996185303,2,r,,3,2,1,
xjk,RSVPtest,47,r,false,651.5,2,r,,2,0,1,
xjk,RSVPtest,48,r,true,1145.2999992370605,2,r,,3,0,1,
xjk,RSVPtest,49,r,true,1295.8999996185303,1,g,,0,1,1,
xjk,RSVPtest,50,r,true,1249,0,b,,2,3,0,
xjk,RSVPtest,51,r,true,1360.400001525879,1,g,,3,1,1,
xjk,RSVPtest,52,r,true,1458,1,g,,2,2,2,
xjk,RSVPtest,53,r,false,1154.2000007629395,2,r,,2,1,1,
xjk,RSVPtest,54,r,true,672.0999984741211,2,r,,3,1,1,
xjk,RSVPtest,55,r,null,null,1,g,,1,2,1,
xjk,RSVPtest,56,r,null,null,2,r,,1,2,1,
xjk,RSVPtest,57,r,null,null,2,r,,2,2,2,
xjk,RSVPtest,58,r,null,null,2,r,,3,1,1,
xjk,RSVPtest,59,r,null,null,1,g,,3,0,1,
attCheck,attCheck,attCheck,attCheck,attCheck,attCheck,attCheck,attCheck,attCheck,attCheck,attCheck,attCheck,
xjk,RSVPtest,60,r,true,694.3999996185303,1,g,,3,2,1,
brk,brk,brk,brk,brk,brk,brk,brk,brk,brk,brk,brk,
xjk,RSVPtest,61,r,true,378.70000076293945,2,r,,3,1,1,
xjk,RSVPtest,62,r,true,312.5,1,g,,3,0,1,
xjk,RSVPtest,63,r,true,344.8999996185303,1,g,,3,0,1,
xjk,RSVPtest,64,r,true,907.1000003814697,2,r,,3,1,1,
xjk,RSVPtest,65,r,true,529.6000003814697,2,r,,3,0,1,
xjk,RSVPtest,66,r,true,409.3999996185303,1,g,,3,2,1,
xjk,RSVPtest,67,r,true,858.1000003814697,1,g,,3,2,1,
xjk,RSVPtest,68,r,false,506.6000003814697,0,b,,2,3,0,
xjk,RSVPtest,69,r,false,633.8999996185303,2,r,,1,2,1,
xjk,RSVPtest,70,r,null,null,1,g,,1,2,1,
xjk,RSVPtest,71,r,false,344.1999988555908,1,g,,2,2,2,
xjk,RSVPtest,72,r,true,449.20000076293945,0,b,,3,3,0,
xjk,RSVPtest,73,r,false,306.20000076293945,0,b,,2,3,0,
xjk,RSVPtest,74,r,true,552.6000003814697,1,g,,3,0,1,
xjk,RSVPtest,75,r,true,560.1000003814697,1,g,,3,2,1,
xjk,RSVPtest,76,r,true,394.20000076293945,1,g,,3,0,1,
xjk,RSVPtest,77,r,false,434.5,1,g,,0,0,2,
xjk,RSVPtest,78,r,true,393.1000003814697,1,g,,3,2,1,
xjk,RSVPtest,79,r,true,549.6000003814697,2,r,,3,0,1,
xjk,RSVPtest,80,r,true,338.5,1,g,,3,0,1,
xjk,RSVPtest,81,r,true,521.8999996185303,1,g,,3,0,1,
xjk,RSVPtest,82,r,true,592.7000007629395,2,r,,3,0,1,
xjk,RSVPtest,83,r,false,352.0999984741211,2,r,,1,0,1,
xjk,RSVPtest,84,r,false,829.8000011444092,2,r,,1,1,2,
xjk,RSVPtest,85,r,true,1415.6000003814697,1,g,,3,0,1,
xjk,RSVPtest,86,r,null,null,0,b,,1,3,0,
xjk,RSVPtest,87,r,null,null,1,g,,1,2,1,
xjk,RSVPtest,88,r,true,515.4000015258789,1,g,,3,2,1,
xjk,RSVPtest,89,r,true,489.3999996185303,0,b,,3,3,0,
xjk,RSVPtest,90,r,false,398,2,r,,0,2,1,
xjk,RSVPtest,91,r,false,448.1999988555908,2,r,,0,1,1,
xjk,RSVPtest,92,r,false,458.4000015258789,2,r,,2,0,1,
xjk,RSVPtest,93,r,false,445.8999996185303,1,g,,2,0,1,
xjk,RSVPtest,94,r,true,1111.8000011444092,1,g,,1,1,2,
xjk,RSVPtest,95,r,false,1111.2999992370605,1,g,,1,0,1,
xjk,RSVPtest,96,r,false,408.3999996185303,0,b,,3,3,0,
xjk,RSVPtest,97,r,true,363.6000003814697,1,g,,2,0,1,
xjk,RSVPtest,98,r,true,418.5,2,r,,2,1,1,
xjk,RSVPtest,99,r,true,351.1000003814697,2,r,,1,0,1,
xjk,RSVPtest,100,r,true,496,0,b,,2,3,0,
xjk,RSVPtest,101,r,false,633,0,b,,3,3,0,
xjk,RSVPtest,102,r,null,null,1,g,,3,1,1,
xjk,RSVPtest,103,r,false,611.8000011444092,1,g,,3,1,1,
xjk,RSVPtest,104,r,true,2281.5,1,g,,3,1,1,
xjk,RSVPtest,105,r,true,1887.6000003814697,2,r,,0,2,1,
xjk,RSVPtest,106,r,true,1193,2,r,,2,1,1,
xjk,RSVPtest,107,r,false,1888.7000007629395,2,r,,1,1,2,
xjk,RSVPtest,108,r,false,432.5,1,g,,3,1,1,
xjk,RSVPtest,109,r,true,442,0,b,,0,3,0,
xjk,RSVPtest,110,r,true,813.7000007629395,1,g,,0,1,1,
xjk,RSVPtest,111,r,true,2158.7999992370605,1,g,,3,0,1,
xjk,RSVPtest,112,r,true,1291,0,b,,3,3,0,
xjk,RSVPtest,113,r,false,1175.5,1,g,,0,0,2,
xjk,RSVPtest,114,r,true,1184.3999996185303,0,b,,0,3,0,
xjk,RSVPtest,115,r,false,1520.8999996185303,1,g,,1,2,1,
xjk,RSVPtest,116,r,true,1126.6000003814697,2,r,,2,0,1,
xjk,RSVPtest,117,r,false,1367.5,2,r,,1,0,1,
xjk,RSVPtest,118,r,true,1016.6000003814697,0,b,,1,3,0,
xjk,RSVPtest,119,r,true,1279.400001525879,0,b,,3,3,0,
xjk,RSVPtest,120,r,true,967.5,2,r,,1,0,1,
brk,brk,brk,brk,brk,brk,brk,brk,brk,brk,brk,brk,
xjk,RSVPtest,121,r,true,652.6000003814697,2,r,,3,0,1,
xjk,RSVPtest,122,r,true,801.1999988555908,2,r,,3,2,1,
xjk,RSVPtest,123,r,null,null,0,b,,3,3,0,
xjk,RSVPtest,124,r,null,null,1,g,,2,1,1,
xjk,RSVPtest,125,r,true,483.70000076293945,1,g,,3,2,1,
xjk,RSVPtest,126,r,false,687.6999988555908,0,b,,0,3,0,
xjk,RSVPtest,127,r,false,1656.7999992370605,1,g,,1,1,2,
xjk,RSVPtest,128,r,false,901.4000015258789,1,g,,2,0,1,
xjk,RSVPtest,129,r,false,736.2999992370605,2,r,,0,1,1,
xjk,RSVPtest,130,r,true,912.7000007629395,1,g,,3,2,1,
xjk,RSVPtest,131,r,true,768.6999988555908,0,b,,3,3,0,
xjk,RSVPtest,132,r,true,433.5,0,b,,3,3,0,
xjk,RSVPtest,133,r,false,567.7999992370605,1,g,,0,0,2,
xjk,RSVPtest,134,r,true,1071.8999996185303,2,r,,1,1,2,
xjk,RSVPtest,135,r,true,479.20000076293945,2,r,,0,0,2,
xjk,RSVPtest,136,r,false,367.79999923706055,0,b,,3,3,0,
xjk,RSVPtest,137,r,true,503.1999988555908,1,g,,2,1,1,
xjk,RSVPtest,138,r,false,1151.8999996185303,2,r,,3,0,1,
xjk,RSVPtest,139,r,true,624.5,0,b,,1,3,0,
xjk,RSVPtest,140,r,true,1881.6000003814697,0,b,,3,3,0,
xjk,RSVPtest,141,r,false,1633.2000007629395,0,b,,3,3,0,
xjk,RSVPtest,142,r,true,1441.1999988555908,0,b,,1,3,0,
xjk,RSVPtest,143,r,true,1169.5,1,g,,1,2,1,
xjk,RSVPtest,144,r,true,1806.1000003814697,1,g,,3,1,1,
xjk,RSVPtest,145,r,true,2311.5,1,g,,3,2,1,
xjk,RSVPtest,146,r,true,1287.2000007629395,2,r,,2,1,1,
xjk,RSVPtest,147,r,true,1855.3999996185303,2,r,,1,0,1,
xjk,RSVPtest,148,r,false,1799.7000007629395,0,b,,3,3,0,
xjk,RSVPtest,149,r,null,null,2,r,,0,2,1,
xjk,RSVPtest,150,r,null,null,0,b,,2,3,0,
xjk,RSVPtest,151,r,null,null,2,r,,1,0,1,
xjk,RSVPtest,152,r,null,null,0,b,,1,3,0,
xjk,RSVPtest,153,r,null,null,2,r,,0,1,1,
attCheck,attCheck,attCheck,attCheck,attCheck,attCheck,attCheck,attCheck,attCheck,attCheck,attCheck,attCheck,
xjk,RSVPtest,154,r,null,null,0,b,,1,3,0,
xjk,RSVPtest,155,r,null,null,1,g,,0,2,1,
xjk,RSVPtest,156,r,null,null,1,g,,2,2,2,
xjk,RSVPtest,157,r,true,1203.7000007629395,1,g,,0,1,1,
xjk,RSVPtest,158,r,null,null,0,b,,0,3,0,
xjk,RSVPtest,159,r,null,null,2,r,,0,2,1,
xjk,RSVPtest,160,r,false,1464,2,r,,3,0,1,
xjk,RSVPtest,161,r,true,1537,2,r,,3,1,1,
xjk,RSVPtest,162,r,null,null,0,b,,3,3,0,
xjk,RSVPtest,163,r,null,null,2,r,,2,0,1,
xjk,RSVPtest,164,r,null,null,1,g,,2,2,2,
xjk,RSVPtest,165,r,true,585.6000003814697,1,g,,3,1,1,
xjk,RSVPtest,166,r,true,1757.7000007629395,0,b,,1,3,0,
xjk,RSVPtest,167,r,true,1389.099998474121,1,g,,1,1,2,
xjk,RSVPtest,168,r,true,1191.2999992370605,1,g,,2,0,1,
xjk,RSVPtest,169,r,true,1143.1999988555908,0,b,,0,3,0,
xjk,RSVPtest,170,r,true,1149.7000007629395,2,r,,2,2,2,
xjk,RSVPtest,171,r,true,1055.8999996185303,1,g,,2,2,2,
xjk,RSVPtest,172,r,false,1329.3999996185303,2,r,,0,0,2,
xjk,RSVPtest,173,r,true,1409.1000003814697,1,g,,0,1,1,
xjk,RSVPtest,174,r,false,1655.2000007629395,1,g,,3,0,1,
xjk,RSVPtest,175,r,true,1232.3999996185303,0,b,,3,3,0,
xjk,RSVPtest,176,r,true,1297.8999996185303,0,b,,2,3,0,
xjk,RSVPtest,177,r,true,1606.7000007629395,0,b,,2,3,0,
xjk,RSVPtest,178,r,true,981.1000003814697,1,g,,3,1,1,
xjk,RSVPtest,179,r,true,920,1,g,,0,0,2,
xjk,RSVPtest,180,r,true,1077.2000007629395,2,r,,3,2,1,
brk,brk,brk,brk,brk,brk,brk,brk,brk,brk,brk,brk,
xjk,RSVPtest,181,r,true,1319.5,2,r,,3,1,1,
xjk,RSVPtest,182,r,true,2094.699998855591,1,g,,1,2,1,
xjk,RSVPtest,183,r,true,1487.2000007629395,1,g,,1,1,2,
xjk,RSVPtest,184,r,true,1112,1,g,,1,0,1,
xjk,RSVPtest,185,r,true,1799.7000007629395,2,r,,3,2,1,
xjk,RSVPtest,186,r,false,1599.3000011444092,2,r,,3,1,1,
xjk,RSVPtest,187,r,true,1383.5,2,r,,3,1,1,
xjk,RSVPtest,188,r,true,1152.6000003814697,1,g,,3,0,1,
xjk,RSVPtest,189,r,true,1630.8999996185303,1,g,,3,1,1,
xjk,RSVPtest,190,r,true,2406.2000007629395,2,r,,2,0,1,
xjk,RSVPtest,191,r,null,null,0,b,,3,3,0,
xjk,RSVPtest,192,r,false,1864.5,1,g,,0,0,2,
xjk,RSVPtest,193,r,false,1542.5,1,g,,3,2,1,
xjk,RSVPtest,194,r,null,null,0,b,,1,3,0,
xjk,RSVPtest,195,r,true,1067.1000003814697,1,g,,0,2,1,
xjk,RSVPtest,196,r,true,1823.2999992370605,2,r,,0,0,2,
xjk,RSVPtest,197,r,false,1230.8000011444092,2,r,,3,2,1,
xjk,RSVPtest,198,r,false,2278.199998855591,0,b,,3,3,0,
xjk,RSVPtest,199,r,true,1653.8999996185303,1,g,,0,2,1,
xjk,RSVPtest,200,r,null,null,0,b,,2,3,0,
xjk,RSVPtest,201,r,true,1392.5,1,g,,0,0,2,
xjk,RSVPtest,202,r,true,2342.2999992370605,0,b,,3,3,0,
xjk,RSVPtest,203,r,true,1750.1000003814697,1,g,,2,1,1,
xjk,RSVPtest,204,r,null,null,1,g,,1,1,2,
xjk,RSVPtest,205,r,null,null,2,r,,2,1,1,
xjk,RSVPtest,206,r,null,null,2,r,,2,2,2,
xjk,RSVPtest,207,r,false,1460.7999992370605,0,b,,2,3,0,
xjk,RSVPtest,208,r,true,1727.099998474121,2,r,,0,0,2,
xjk,RSVPtest,209,r,true,1158.6999988555908,0,b,,0,3,0,
xjk,RSVPtest,210,r,false,1727,0,b,,2,3,0,
xjk,RSVPtest,211,r,true,1360.3999996185303,0,b,,0,3,0,
xjk,RSVPtest,212,r,null,null,1,g,,1,0,1,
xjk,RSVPtest,213,r,null,null,1,g,,0,1,1,
xjk,RSVPtest,214,r,null,null,2,r,,3,2,1,
xjk,RSVPtest,215,r,true,1619.8999996185303,0,b,,2,3,0,
xjk,RSVPtest,216,r,true,2102.699998855591,2,r,,1,2,1,
xjk,RSVPtest,217,r,true,1319.1000003814697,2,r,,3,0,1,
xjk,RSVPtest,218,r,false,1735.1999988555908,0,b,,0,3,0,
xjk,RSVPtest,219,r,true,1341.1000003814697,0,b,,0,3,0,
xjk,RSVPtest,220,r,true,1373.8000011444092,2,r,,1,1,2,
xjk,RSVPtest,221,r,true,1014.7000007629395,1,g,,0,2,1,
xjk,RSVPtest,222,r,true,1101.1000003814697,0,b,,0,3,0,
xjk,RSVPtest,223,r,true,819.3999996185303,1,g,,2,1,1,
xjk,RSVPtest,224,r,false,1581,1,g,,3,0,1,
xjk,RSVPtest,225,r,true,1311.8999996185303,2,r,,2,2,2,
xjk,RSVPtest,226,r,false,1126.5,2,r,,0,1,1,
xjk,RSVPtest,227,r,true,1913.1999988555908,0,b,,3,3,0,
xjk,RSVPtest,228,r,true,1822.8999996185303,1,g,,3,2,1,
xjk,RSVPtest,229,r,true,1438.8000011444092,1,g,,1,0,1,
xjk,RSVPtest,230,r,null,null,2,r,,3,2,1,
xjk,RSVPtest,231,r,null,null,0,b,,1,3,0,
xjk,RSVPtest,232,r,false,1416.7000007629395,0,b,,3,3,0,
xjk,RSVPtest,233,r,false,941.8999996185303,1,g,,1,0,1,
xjk,RSVPtest,234,r,true,1205.8999996185303,2,r,,3,0,1,
xjk,RSVPtest,235,r,null,null,2,r,,3,1,1,
xjk,RSVPtest,236,r,false,717.2999992370605,1,g,,2,0,1,
xjk,RSVPtest,237,r,true,942.7000007629395,1,g,,3,1,1,
xjk,RSVPtest,238,r,true,1341.8999996185303,1,g,,1,1,2,
xjk,RSVPtest,239,r,true,1006.3000011444092,2,r,,1,2,1,
xjk,RSVPtest,240,r,true,1037.599998474121,2,r,,0,2,1,
