subID,trialType,trialNum,cntBalance,correct,rt,rwdType,tgtCol,tgtDir,tgtPos,colPos,colMatch,
aec,VDACtrain,0,r,null,null,1,g,v,5,,,
aec,VDACtrain,0,r,null,null,2,r,v,4,,,
aec,VDACtrain,0,r,null,null,2,r,h,0,,,
aec,VDACtrain,0,r,true,897.2000000029802,2,r,h,1,,,
aec,VDACtrain,0,r,null,null,1,g,h,3,,,
aec,VDACtrain,0,r,true,792.1000000089407,1,g,v,0,,,
aec,VDACtrain,0,r,true,837.2000000029802,2,r,v,3,,,
aec,VDACtrain,0,r,null,null,1,g,h,5,,,
aec,VDACtrain,0,r,false,681.9000000059605,1,g,v,2,,,
aec,VDACtrain,0,r,true,700.1000000089407,2,r,h,2,,,
aec,VDACtest,1,r,false,768.4000000059605,1,g,h,0,,,
aec,VDACtest,2,r,true,798.6000000089407,1,g,h,0,,,
aec,VDACtest,3,r,true,676.2999999970198,2,r,v,5,,,
aec,VDACtest,4,r,false,707.5,1,g,h,5,,,
aec,VDACtest,5,r,false,820.5999999940395,1,g,h,4,,,
aec,VDACtest,6,r,false,845.2999999970198,1,g,h,4,,,
aec,VDACtest,7,r,false,834.3999999910593,2,r,v,2,,,
aec,VDACtest,8,r,true,691.7000000029802,2,r,v,1,,,
aec,VDACtest,9,r,false,655.5999999940395,2,r,v,1,,,
aec,VDACtest,10,r,false,542.5,1,g,v,2,,,
aec,VDACtest,11,r,true,412.40000000596046,1,g,v,2,,,
aec,VDACtest,12,r,true,725.0999999940395,1,g,v,4,,,
aec,VDACtest,13,r,true,556.3999999910593,1,g,h,2,,,
aec,VDACtest,14,r,true,708.6999999880791,2,r,v,4,,,
aec,VDACtest,15,r,true,837,1,g,h,5,,,
aec,VDACtest,16,r,true,828.7999999970198,2,r,h,4,,,
aec,VDACtest,17,r,true,548.4000000059605,2,r,v,3,,,
aec,VDACtest,18,r,false,693.1999999880791,1,g,v,0,,,
aec,VDACtest,19,r,false,700.8999999910593,2,r,h,4,,,
aec,VDACtest,20,r,true,677.6999999880791,2,r,v,1,,,
aec,VDACtest,21,r,true,819.1999999880791,1,g,h,2,,,
aec,VDACtest,22,r,true,877.2999999970198,2,r,h,2,,,
aec,VDACtest,23,r,true,659,2,r,h,2,,,
aec,VDACtest,24,r,true,669.2999999970198,2,r,v,3,,,
aec,VDACtest,25,r,true,667,1,g,v,3,,,
aec,VDACtest,26,r,false,877.0999999940395,2,r,v,0,,,
aec,VDACtest,27,r,true,565.5,1,g,v,1,,,
aec,VDACtest,28,r,true,468.70000000298023,2,r,h,5,,,
aec,VDACtest,29,r,true,692.1999999880791,2,r,v,2,,,
aec,VDACtest,30,r,true,638.2999999970198,1,g,v,1,,,
aec,VDACtest,31,r,true,397.59999999403954,2,r,h,2,,,
aec,VDACtest,32,r,true,372.3999999910593,2,r,v,1,,,
aec,VDACtest,33,r,true,532.5,1,g,h,3,,,
aec,VDACtest,34,r,true,579.7000000029802,2,r,v,4,,,
aec,VDACtest,35,r,true,557.5999999940395,2,r,v,2,,,
aec,VDACtest,36,r,true,396.79999999701977,1,g,h,2,,,
aec,VDACtest,37,r,false,444.6000000089407,1,g,v,2,,,
aec,VDACtest,38,r,false,890.5,2,r,h,1,,,
aec,VDACtest,39,r,true,724.7999999970198,1,g,h,2,,,
aec,VDACtest,40,r,true,778.5999999940395,2,r,h,4,,,
aec,VDACtest,41,r,true,908,2,r,h,2,,,
aec,VDACtest,42,r,true,371.6000000089407,1,g,v,1,,,
aec,VDACtest,43,r,true,821.4000000059605,2,r,v,0,,,
aec,VDACtest,44,r,true,589,2,r,h,1,,,
aec,VDACtest,45,r,true,603.4000000059605,1,g,v,5,,,
aec,VDACtest,46,r,false,804.8000000119209,2,r,v,4,,,
aec,VDACtest,47,r,false,748.9000000059605,2,r,h,3,,,
aec,VDACtest,48,r,true,500.6000000089407,2,r,v,4,,,
aec,VDACtest,49,r,true,678,1,g,v,4,,,
aec,VDACtest,50,r,false,868.9000000059605,2,r,h,5,,,
brk,brk,brk,brk,brk,brk,brk,brk,brk,brk,brk,brk,
aec,VDACtest,51,r,true,915,1,g,v,3,,,
aec,VDACtest,52,r,true,836.7000000029802,2,r,v,1,,,
aec,VDACtest,53,r,true,541,1,g,h,1,,,
aec,VDACtest,54,r,true,484.79999999701977,2,r,h,2,,,
aec,VDACtest,55,r,false,692.4000000059605,2,r,v,2,,,
aec,VDACtest,56,r,null,null,2,r,h,5,,,
aec,VDACtest,57,r,true,751.1999999880791,1,g,v,4,,,
aec,VDACtest,58,r,true,532.8999999910593,2,r,v,4,,,
aec,VDACtest,59,r,true,380,2,r,h,2,,,
aec,VDACtest,60,r,false,708.5999999940395,2,r,h,0,,,
aec,VDACtest,61,r,true,613.2000000029802,1,g,h,2,,,
aec,VDACtest,62,r,true,411.30000001192093,2,r,v,3,,,
aec,VDACtest,63,r,true,668.0999999940395,1,g,h,3,,,
aec,VDACtest,64,r,true,708.2999999970198,1,g,v,2,,,
aec,VDACtest,65,r,true,661,1,g,h,5,,,
aec,VDACtest,66,r,false,755.9000000059605,2,r,h,0,,,
aec,VDACtest,67,r,true,612,2,r,v,2,,,
aec,VDACtest,68,r,true,660.2000000029802,1,g,h,5,,,
aec,VDACtest,69,r,true,446,2,r,h,3,,,
aec,VDACtest,70,r,true,524.8000000119209,1,g,v,4,,,
aec,VDACtest,71,r,true,564.3999999910593,1,g,h,3,,,
aec,VDACtest,72,r,true,833.2999999970198,2,r,v,1,,,
aec,VDACtest,73,r,true,355.59999999403954,1,g,v,1,,,
aec,VDACtest,74,r,true,453.6000000089407,1,g,h,3,,,
aec,VDACtest,75,r,false,636,2,r,v,3,,,
aec,VDACtest,76,r,null,null,2,r,h,0,,,
aec,VDACtest,77,r,true,743.2000000029802,2,r,h,3,,,
aec,VDACtest,78,r,true,897.2999999970198,2,r,h,0,,,
aec,VDACtest,79,r,true,940.6000000089407,1,g,h,4,,,
aec,VDACtest,80,r,true,420.1000000089407,1,g,h,4,,,
aec,VDACtest,81,r,true,597.5,2,r,h,4,,,
aec,VDACtest,82,r,true,900.2999999970198,2,r,v,1,,,
aec,VDACtest,83,r,true,668.7999999970198,1,g,v,3,,,
aec,VDACtest,84,r,true,797.6999999880791,2,r,h,3,,,
aec,VDACtest,85,r,null,null,2,r,v,0,,,
aec,VDACtest,86,r,true,777,1,g,h,5,,,
aec,VDACtest,87,r,true,709.5999999940395,1,g,h,0,,,
aec,VDACtest,88,r,true,490.70000000298023,1,g,v,5,,,
aec,VDACtest,89,r,true,804.6000000089407,2,r,v,2,,,
aec,VDACtest,90,r,true,693.5,2,r,h,1,,,
aec,VDACtest,91,r,true,613.2999999970198,1,g,v,5,,,
aec,VDACtest,92,r,true,733.5999999940395,1,g,v,2,,,
aec,VDACtest,93,r,true,948.2000000029802,1,g,h,5,,,
aec,VDACtest,94,r,true,765.0999999940395,1,g,h,1,,,
aec,VDACtest,95,r,true,660.2999999970198,1,g,v,0,,,
aec,VDACtest,96,r,true,757.5999999940395,1,g,h,1,,,
aec,VDACtest,97,r,true,540,2,r,v,3,,,
aec,VDACtest,98,r,null,null,2,r,v,2,,,
aec,VDACtest,99,r,true,785.1000000089407,1,g,h,4,,,
aec,VDACtest,100,r,true,810.5,1,g,h,4,,,
brk,brk,brk,brk,brk,brk,brk,brk,brk,brk,brk,brk,
aec,VDACtest,101,r,null,null,2,r,v,3,,,
aec,VDACtest,102,r,true,792,1,g,v,0,,,
aec,VDACtest,103,r,true,875.5999999940395,1,g,v,5,,,
aec,VDACtest,104,r,true,644.1999999880791,2,r,v,2,,,
aec,VDACtest,105,r,true,620.5,1,g,v,4,,,
aec,VDACtest,106,r,true,515.5,2,r,v,4,,,
aec,VDACtest,107,r,true,981.5,2,r,h,5,,,
aec,VDACtest,108,r,true,565.7999999970198,2,r,v,5,,,
aec,VDACtest,109,r,true,750.5999999940395,1,g,h,4,,,
aec,VDACtest,110,r,true,525.0999999940395,1,g,h,3,,,
aec,VDACtest,111,r,true,804.9000000059605,2,r,h,5,,,
aec,VDACtest,112,r,true,667.7999999970198,1,g,v,3,,,
aec,VDACtest,113,r,true,508.79999999701977,1,g,v,3,,,
aec,VDACtest,114,r,true,396.40000000596046,1,g,h,3,,,
aec,VDACtest,115,r,false,164.1000000089407,2,r,v,0,,,
aec,VDACtest,116,r,true,467.90000000596046,2,r,h,2,,,
aec,VDACtest,117,r,true,956.5999999940395,2,r,v,5,,,
aec,VDACtest,118,r,true,593.6999999880791,2,r,v,0,,,
aec,VDACtest,119,r,true,544.4000000059605,1,g,v,2,,,
aec,VDACtest,120,r,true,757.2999999970198,2,r,h,1,,,
aec,VDACtest,121,r,true,710.0999999940395,2,r,v,1,,,
aec,VDACtest,122,r,true,847,1,g,v,1,,,
aec,VDACtest,123,r,null,null,2,r,h,0,,,
aec,VDACtest,124,r,true,583.6000000089407,2,r,v,5,,,
aec,VDACtest,125,r,true,587.9000000059605,2,r,h,4,,,
aec,VDACtest,126,r,true,821.0999999940395,1,g,v,5,,,
aec,VDACtest,127,r,true,651.2000000029802,1,g,v,3,,,
aec,VDACtest,128,r,true,764,2,r,h,3,,,
aec,VDACtest,129,r,true,765.1000000089407,1,g,v,1,,,
aec,VDACtest,130,r,true,754.5,2,r,h,1,,,
aec,VDACtest,131,r,true,699.9000000059605,2,r,h,3,,,
aec,VDACtest,132,r,true,651.2000000029802,1,g,v,5,,,
aec,VDACtest,133,r,true,652.5999999940395,2,r,h,3,,,
aec,VDACtest,134,r,true,635.7999999970198,1,g,v,5,,,
aec,VDACtest,135,r,null,null,1,g,h,4,,,
aec,VDACtest,136,r,true,563.2999999970198,2,r,h,5,,,
aec,VDACtest,137,r,true,595.3999999910593,1,g,h,4,,,
aec,VDACtest,138,r,true,596,2,r,v,3,,,
aec,VDACtest,139,r,true,660.4000000059605,2,r,v,5,,,
aec,VDACtest,140,r,true,595.0999999940395,1,g,v,4,,,
aec,VDACtest,141,r,true,485.5,1,g,v,5,,,
aec,VDACtest,142,r,true,492.09999999403954,2,r,h,4,,,
aec,VDACtest,143,r,true,731.2999999970198,2,r,v,0,,,
aec,VDACtest,144,r,true,645,1,g,v,0,,,
aec,VDACtest,145,r,true,717.0999999940395,1,g,h,0,,,
aec,VDACtest,146,r,true,684.2999999970198,2,r,h,2,,,
aec,VDACtest,147,r,false,540.5,2,r,h,3,,,
aec,VDACtest,148,r,true,635.9000000059605,1,g,v,2,,,
aec,VDACtest,149,r,null,null,2,r,h,1,,,
aec,VDACtest,150,r,true,872.4000000059605,1,g,v,0,,,
brk,brk,brk,brk,brk,brk,brk,brk,brk,brk,brk,brk,
aec,VDACtest,151,r,true,802.2000000029802,1,g,v,1,,,
aec,VDACtest,152,r,true,779.7000000029802,1,g,h,0,,,
aec,VDACtest,153,r,true,796.2000000029802,2,r,h,5,,,
aec,VDACtest,154,r,true,657.8999999910593,1,g,h,1,,,
aec,VDACtest,155,r,true,893.6000000089407,2,r,h,4,,,
aec,VDACtest,156,r,true,781.3000000119209,2,r,h,0,,,
aec,VDACtest,157,r,null,null,2,r,v,4,,,
aec,VDACtest,158,r,true,543.5,2,r,h,1,,,
aec,VDACtest,159,r,true,516,1,g,v,3,,,
aec,VDACtest,160,r,true,460.79999999701977,1,g,v,4,,,
aec,VDACtest,161,r,true,470.20000000298023,1,g,v,1,,,
aec,VDACtest,162,r,true,515.9000000059605,2,r,v,4,,,
aec,VDACtest,163,r,true,813.5999999940395,2,r,h,0,,,
aec,VDACtest,164,r,true,483.19999998807907,1,g,h,5,,,
aec,VDACtest,165,r,true,581,2,r,h,1,,,
aec,VDACtest,166,r,true,518,1,g,v,0,,,
aec,VDACtest,167,r,true,514.7000000029802,1,g,h,5,,,
aec,VDACtest,168,r,true,636.9000000059605,1,g,h,1,,,
aec,VDACtest,169,r,true,837.2000000029802,2,r,h,5,,,
aec,VDACtest,170,r,true,419.09999999403954,2,r,v,1,,,
aec,VDACtest,171,r,true,557,1,g,v,3,,,
aec,VDACtest,172,r,true,460.59999999403954,2,r,v,5,,,
aec,VDACtest,173,r,true,571,1,g,h,2,,,
aec,VDACtest,174,r,true,451.40000000596046,1,g,h,1,,,
aec,VDACtest,175,r,true,388.29999999701977,2,r,h,1,,,
aec,VDACtest,176,r,true,642,2,r,v,3,,,
aec,VDACtest,177,r,true,717.2999999970198,1,g,v,4,,,
aec,VDACtest,178,r,true,325.3999999910593,1,g,h,1,,,
aec,VDACtest,179,r,true,380.40000000596046,1,g,v,4,,,
aec,VDACtest,180,r,true,571.2999999970198,1,g,h,3,,,
aec,VDACtest,181,r,true,506.8999999910593,1,g,v,0,,,
aec,VDACtest,182,r,true,532.0999999940395,1,g,h,2,,,
aec,VDACtest,183,r,true,380.5,2,r,v,4,,,
aec,VDACtest,184,r,true,435.8999999910593,1,g,h,0,,,
aec,VDACtest,185,r,true,396.09999999403954,2,r,v,5,,,
aec,VDACtest,186,r,true,453.70000000298023,1,g,h,0,,,
aec,VDACtest,187,r,true,381.5,2,r,v,0,,,
aec,VDACtest,188,r,true,484.69999998807907,1,g,v,2,,,
aec,VDACtest,189,r,true,541,1,g,h,1,,,
aec,VDACtest,190,r,true,796.5999999940395,2,r,h,4,,,
aec,VDACtest,191,r,true,507.40000000596046,2,r,h,0,,,
aec,VDACtest,192,r,true,955.1000000089407,1,g,h,2,,,
aec,VDACtest,193,r,true,603.7999999970198,2,r,v,0,,,
aec,VDACtest,194,r,true,988.4000000059605,1,g,v,1,,,
aec,VDACtest,195,r,true,511.79999999701977,2,r,v,5,,,
aec,VDACtest,196,r,true,914.3000000119209,1,g,h,1,,,
aec,VDACtest,197,r,true,417.90000000596046,1,g,h,0,,,
aec,VDACtest,198,r,true,548.7999999970198,1,g,h,3,,,
aec,VDACtest,199,r,true,629.2000000029802,1,g,v,0,,,
aec,VDACtest,200,r,false,724,2,r,h,4,,,
aec,RSVPtrain,0,r,null,null,0,b,,3,3,0,
aec,RSVPtrain,0,r,true,798.0999999940395,1,g,,3,1,1,
aec,RSVPtrain,0,r,false,1414.1000000089407,2,r,,3,2,1,
aec,RSVPtrain,0,r,true,786.7999999970198,2,r,,1,1,2,
aec,RSVPtrain,0,r,true,1495.7000000029802,1,g,,2,2,2,
aec,RSVPtrain,0,r,false,654.0999999940395,1,g,,1,0,1,
aec,RSVPtrain,0,r,true,1110.2000000029802,1,g,,3,0,1,
aec,RSVPtrain,0,r,false,1894.699999988079,2,r,,0,0,2,
aec,RSVPtrain,0,r,true,394.20000000298023,0,b,,0,3,0,
aec,RSVPtrain,0,r,true,856.7999999970198,0,b,,1,3,0,
aec,RSVPtest,1,r,false,836.7000000029802,1,g,,3,2,1,
aec,RSVPtest,2,r,false,1126.5999999940395,1,g,,0,0,2,
aec,RSVPtest,3,r,true,673.5999999940395,2,r,,0,0,2,
aec,RSVPtest,4,r,true,464.1000000089407,2,r,,2,2,2,
aec,RSVPtest,5,r,true,561.4000000059605,2,r,,0,0,2,
aec,RSVPtest,6,r,true,839.3999999910593,0,b,,0,3,0,
aec,RSVPtest,7,r,true,2013.9000000059605,2,r,,1,2,1,
aec,RSVPtest,8,r,true,652.3999999910593,1,g,,1,0,1,
aec,RSVPtest,9,r,true,664.3999999910593,1,g,,3,0,1,
aec,RSVPtest,10,r,true,311.1000000089407,2,r,,1,1,2,
aec,RSVPtest,11,r,true,2255.6000000089407,2,r,,2,0,1,
aec,RSVPtest,12,r,true,893.3999999910593,0,b,,3,3,0,
aec,RSVPtest,13,r,true,943.6000000089407,1,g,,3,0,1,
aec,RSVPtest,14,r,true,544.7000000029802,0,b,,0,3,0,
aec,RSVPtest,15,r,true,706,1,g,,3,2,1,
aec,RSVPtest,16,r,false,1695.0999999940395,2,r,,2,1,1,
aec,RSVPtest,17,r,true,334,2,r,,0,0,2,
aec,RSVPtest,18,r,true,1014,0,b,,2,3,0,
aec,RSVPtest,19,r,false,1041.7000000029802,1,g,,3,2,1,
aec,RSVPtest,20,r,false,877.7000000029802,1,g,,3,1,1,
aec,RSVPtest,21,r,true,798.5,1,g,,1,0,1,
aec,RSVPtest,22,r,false,574.5,2,r,,0,1,1,
aec,RSVPtest,23,r,false,933.4000000059605,1,g,,0,0,2,
aec,RSVPtest,24,r,true,773.5999999940395,1,g,,2,0,1,
aec,RSVPtest,25,r,true,807.0999999940395,1,g,,3,0,1,
aec,RSVPtest,26,r,true,902.2000000029802,0,b,,1,3,0,
aec,RSVPtest,27,r,true,1039.2000000029802,2,r,,2,0,1,
aec,RSVPtest,28,r,false,918.0999999940395,1,g,,3,0,1,
aec,RSVPtest,29,r,true,550.2999999970198,1,g,,1,1,2,
aec,RSVPtest,30,r,false,1076.4000000059605,2,r,,3,2,1,
aec,RSVPtest,31,r,true,661.8999999910593,2,r,,3,1,1,
aec,RSVPtest,32,r,null,null,2,r,,3,1,1,
aec,RSVPtest,33,r,true,773.3999999910593,1,g,,2,1,1,
aec,RSVPtest,34,r,false,743.2999999970198,2,r,,1,2,1,
aec,RSVPtest,35,r,true,766.3000000119209,0,b,,1,3,0,
aec,RSVPtest,36,r,true,838.5999999940395,2,r,,3,1,1,
aec,RSVPtest,37,r,true,752.7999999970198,0,b,,2,3,0,
aec,RSVPtest,38,r,false,814.2999999970198,1,g,,3,2,1,
aec,RSVPtest,39,r,false,670.9000000059605,0,b,,3,3,0,
aec,RSVPtest,40,r,true,815.2000000029802,0,b,,3,3,0,
aec,RSVPtest,41,r,false,886.1000000089407,0,b,,3,3,0,
aec,RSVPtest,42,r,true,1214.8999999910593,2,r,,3,2,1,
aec,RSVPtest,43,r,true,703.5,2,r,,2,2,2,
aec,RSVPtest,44,r,false,672.7000000029802,0,b,,0,3,0,
aec,RSVPtest,45,r,true,630.5,2,r,,0,0,2,
aec,RSVPtest,46,r,true,855.2999999970198,1,g,,0,1,1,
aec,RSVPtest,47,r,true,647,2,r,,2,1,1,
aec,RSVPtest,48,r,true,726.2999999970198,0,b,,1,3,0,
aec,RSVPtest,49,r,false,1167.1000000089407,2,r,,1,0,1,
aec,RSVPtest,50,r,true,1023.9000000059605,2,r,,0,2,1,
aec,RSVPtest,51,r,true,383,1,g,,1,0,1,
aec,RSVPtest,52,r,true,1134.5999999940395,0,b,,1,3,0,
aec,RSVPtest,53,r,false,670.7000000029802,1,g,,2,1,1,
aec,RSVPtest,54,r,true,716.9000000059605,2,r,,3,0,1,
aec,RSVPtest,55,r,true,724,1,g,,1,1,2,
aec,RSVPtest,56,r,false,853.5,2,r,,3,0,1,
aec,RSVPtest,57,r,false,383.69999998807907,0,b,,0,3,0,
aec,RSVPtest,58,r,true,1022.7999999970198,1,g,,3,1,1,
aec,RSVPtest,59,r,false,998.1999999880791,2,r,,3,1,1,
aec,RSVPtest,60,r,false,702.1000000089407,0,b,,2,3,0,
brk,brk,brk,brk,brk,brk,brk,brk,brk,brk,brk,brk,
aec,RSVPtest,61,r,false,984.6999999880791,0,b,,0,3,0,
aec,RSVPtest,62,r,true,893.7000000029802,1,g,,3,1,1,
aec,RSVPtest,63,r,true,742.0999999940395,0,b,,3,3,0,
aec,RSVPtest,64,r,false,814.2000000029802,2,r,,1,2,1,
aec,RSVPtest,65,r,false,1006.8999999910593,1,g,,0,0,2,
aec,RSVPtest,66,r,true,990.7000000029802,0,b,,2,3,0,
aec,RSVPtest,67,r,false,1325.199999988079,2,r,,2,0,1,
aec,RSVPtest,68,r,true,924.2000000029802,0,b,,3,3,0,
aec,RSVPtest,69,r,true,339.20000000298023,2,r,,0,1,1,
aec,RSVPtest,70,r,true,685.2999999970198,1,g,,0,0,2,
aec,RSVPtest,71,r,true,525.6999999880791,2,r,,2,2,2,
aec,RSVPtest,72,r,true,761,1,g,,3,1,1,
aec,RSVPtest,73,r,true,821.7999999970198,1,g,,2,2,2,
aec,RSVPtest,74,r,true,533.1999999880791,1,g,,3,0,1,
aec,RSVPtest,75,r,true,1422,1,g,,3,1,1,
aec,RSVPtest,76,r,true,764.7000000029802,0,b,,3,3,0,
aec,RSVPtest,77,r,true,877.1000000089407,2,r,,3,1,1,
aec,RSVPtest,78,r,true,638.2999999970198,1,g,,3,1,1,
aec,RSVPtest,79,r,false,524.4000000059605,2,r,,1,0,1,
aec,RSVPtest,80,r,true,520.7000000029802,0,b,,0,3,0,
aec,RSVPtest,81,r,true,1171.2999999970198,2,r,,3,2,1,
aec,RSVPtest,82,r,false,468.5,1,g,,1,2,1,
aec,RSVPtest,83,r,true,501.1000000089407,1,g,,1,1,2,
aec,RSVPtest,84,r,true,1171.7999999970198,2,r,,3,1,1,
aec,RSVPtest,85,r,false,1251.3999999910593,0,b,,2,3,0,
aec,RSVPtest,86,r,true,924.8999999910593,0,b,,2,3,0,
aec,RSVPtest,87,r,true,915.5,1,g,,1,2,1,
aec,RSVPtest,88,r,false,764.9000000059605,1,g,,2,1,1,
aec,RSVPtest,89,r,true,511.59999999403954,1,g,,0,1,1,
aec,RSVPtest,90,r,true,644.7999999970198,2,r,,3,2,1,
aec,RSVPtest,91,r,true,93.09999999403954,0,b,,1,3,0,
aec,RSVPtest,92,r,true,613.8999999910593,2,r,,0,0,2,
aec,RSVPtest,93,r,true,670.3000000119209,0,b,,0,3,0,
aec,RSVPtest,94,r,true,903,1,g,,3,1,1,
aec,RSVPtest,95,r,false,798.0999999940395,1,g,,0,1,1,
aec,RSVPtest,96,r,true,867.6999999880791,2,r,,3,1,1,
aec,RSVPtest,97,r,true,780.9000000059605,1,g,,1,0,1,
aec,RSVPtest,98,r,true,1315.9000000059605,2,r,,2,0,1,
aec,RSVPtest,99,r,true,876.3000000119209,2,r,,3,2,1,
aec,RSVPtest,100,r,true,398.09999999403954,1,g,,2,0,1,
aec,RSVPtest,101,r,false,932.6000000089407,0,b,,3,3,0,
aec,RSVPtest,102,r,true,907.0999999940395,2,r,,3,0,1,
aec,RSVPtest,103,r,false,9.099999994039536,1,g,,3,2,1,
aec,RSVPtest,104,r,true,612.2999999970198,1,g,,2,1,1,
aec,RSVPtest,105,r,false,124.70000000298023,0,b,,2,3,0,
aec,RSVPtest,106,r,true,916.3999999910593,1,g,,1,1,2,
aec,RSVPtest,107,r,true,309,0,b,,2,3,0,
aec,RSVPtest,108,r,false,71.6000000089407,1,g,,0,2,1,
aec,RSVPtest,109,r,false,242.29999999701977,1,g,,3,1,1,
aec,RSVPtest,110,r,false,85.20000000298023,2,r,,3,2,1,
aec,RSVPtest,111,r,true,372.5,2,r,,1,2,1,
aec,RSVPtest,112,r,true,228.1000000089407,0,b,,3,3,0,
aec,RSVPtest,113,r,false,14.600000008940697,1,g,,2,0,1,
aec,RSVPtest,114,r,true,41.400000005960464,1,g,,0,1,1,
aec,RSVPtest,115,r,true,103.20000000298023,2,r,,3,0,1,
aec,RSVPtest,116,r,true,83.8999999910593,1,g,,2,2,2,
aec,RSVPtest,117,r,true,701.4000000059605,0,b,,3,3,0,
aec,RSVPtest,118,r,true,118.20000000298023,1,g,,1,1,2,
aec,RSVPtest,119,r,false,340.09999999403954,1,g,,0,0,2,
aec,RSVPtest,120,r,false,93.5,2,r,,3,2,1,
brk,brk,brk,brk,brk,brk,brk,brk,brk,brk,brk,brk,
aec,RSVPtest,121,r,false,18.200000002980232,2,r,,3,0,1,
aec,RSVPtest,122,r,false,236.70000000298023,1,g,,2,0,1,
aec,RSVPtest,123,r,false,348.79999999701977,1,g,,3,2,1,
aec,RSVPtest,124,r,true,444.40000000596046,1,g,,2,2,2,
aec,RSVPtest,125,r,false,124.29999999701977,0,b,,3,3,0,
aec,RSVPtest,126,r,false,123.70000000298023,0,b,,3,3,0,
aec,RSVPtest,127,r,true,178.20000000298023,1,g,,2,1,1,
aec,RSVPtest,128,r,true,270.40000000596046,0,b,,0,3,0,
aec,RSVPtest,129,r,false,924.5999999940395,1,g,,3,2,1,
aec,RSVPtest,130,r,false,948.7999999970198,2,r,,3,2,1,
aec,RSVPtest,131,r,false,588.8999999910593,1,g,,3,1,1,
aec,RSVPtest,132,r,false,469.29999999701977,1,g,,3,1,1,
aec,RSVPtest,133,r,true,667.7999999970198,2,r,,0,2,1,
aec,RSVPtest,134,r,true,807,1,g,,1,2,1,
aec,RSVPtest,135,r,true,659.2000000029802,2,r,,2,2,2,
aec,RSVPtest,136,r,true,894.7999999970198,0,b,,3,3,0,
aec,RSVPtest,137,r,false,549.1000000089407,2,r,,1,2,1,
aec,RSVPtest,138,r,false,740.0999999940395,1,g,,0,2,1,
aec,RSVPtest,139,r,true,140.29999999701977,1,g,,0,2,1,
aec,RSVPtest,140,r,false,359.5,0,b,,3,3,0,
aec,RSVPtest,141,r,false,75.30000001192093,2,r,,1,0,1,
aec,RSVPtest,142,r,false,349.40000000596046,2,r,,3,1,1,
aec,RSVPtest,143,r,false,507.09999999403954,0,b,,1,3,0,
aec,RSVPtest,144,r,true,108.09999999403954,2,r,,3,1,1,
aec,RSVPtest,145,r,true,931.4000000059605,2,r,,3,2,1,
aec,RSVPtest,146,r,false,292.5,1,g,,3,0,1,
aec,RSVPtest,147,r,true,619.4000000059605,1,g,,2,2,2,
aec,RSVPtest,148,r,true,541.9000000059605,1,g,,0,2,1,
aec,RSVPtest,149,r,false,581.0999999940395,2,r,,1,0,1,
aec,RSVPtest,150,r,true,747.2000000029802,2,r,,3,0,1,
aec,RSVPtest,151,r,true,477.80000001192093,0,b,,0,3,0,
aec,RSVPtest,152,r,true,475.5,1,g,,2,2,2,
aec,RSVPtest,153,r,true,725.1999999880791,2,r,,3,1,1,
aec,RSVPtest,154,r,true,419.8999999910593,2,r,,1,1,2,
aec,RSVPtest,155,r,true,756,0,b,,2,3,0,
aec,RSVPtest,156,r,true,548.3999999910593,0,b,,1,3,0,
aec,RSVPtest,157,r,true,1003.5999999940395,1,g,,3,2,1,
aec,RSVPtest,158,r,false,867.1000000089407,0,b,,3,3,0,
aec,RSVPtest,159,r,true,765.9000000059605,2,r,,2,1,1,
aec,RSVPtest,160,r,false,114.90000000596046,1,g,,2,2,2,
aec,RSVPtest,161,r,false,586.7999999970198,1,g,,3,0,1,
aec,RSVPtest,162,r,false,516.7999999970198,2,r,,2,2,2,
aec,RSVPtest,163,r,true,717,0,b,,3,3,0,
aec,RSVPtest,164,r,false,1172.5999999940395,1,g,,1,0,1,
aec,RSVPtest,165,r,false,835.2000000029802,2,r,,3,1,1,
aec,RSVPtest,166,r,false,666.9000000059605,2,r,,0,2,1,
aec,RSVPtest,167,r,true,869.5,1,g,,3,2,1,
aec,RSVPtest,168,r,false,875.9000000059605,2,r,,1,0,1,
aec,RSVPtest,169,r,false,643,0,b,,3,3,0,
aec,RSVPtest,170,r,true,700.0999999940395,2,r,,0,2,1,
aec,RSVPtest,171,r,true,817.6999999880791,0,b,,3,3,0,
aec,RSVPtest,172,r,true,956.0999999940395,1,g,,3,1,1,
aec,RSVPtest,173,r,false,577.7999999970198,1,g,,3,2,1,
aec,RSVPtest,174,r,true,1332.5999999940395,0,b,,0,3,0,
aec,RSVPtest,175,r,false,1531.4000000059605,2,r,,0,1,1,
aec,RSVPtest,176,r,true,746.9000000059605,1,g,,2,0,1,
aec,RSVPtest,177,r,false,1773.0999999940395,2,r,,1,0,1,
aec,RSVPtest,178,r,true,587.0999999940395,1,g,,1,0,1,
aec,RSVPtest,179,r,false,979,0,b,,0,3,0,
aec,RSVPtest,180,r,false,612.2999999970198,2,r,,3,2,1,
brk,brk,brk,brk,brk,brk,brk,brk,brk,brk,brk,brk,
aec,RSVPtest,181,r,null,null,1,g,,0,1,1,
aec,RSVPtest,182,r,true,1.2999999970197678,0,b,,3,3,0,
aec,RSVPtest,183,r,false,645.7000000029802,0,b,,3,3,0,
aec,RSVPtest,184,r,true,332.1000000089407,1,g,,0,2,1,
aec,RSVPtest,185,r,false,579.9000000059605,1,g,,1,2,1,
aec,RSVPtest,186,r,true,23,0,b,,2,3,0,
aec,RSVPtest,187,r,false,773.0999999940395,2,r,,3,0,1,
aec,RSVPtest,188,r,false,147.5,2,r,,2,0,1,
aec,RSVPtest,189,r,false,412.70000000298023,2,r,,0,1,1,
aec,RSVPtest,190,r,false,665.7000000029802,2,r,,3,2,1,
aec,RSVPtest,191,r,false,18,2,r,,2,1,1,
aec,RSVPtest,192,r,false,191.6000000089407,1,g,,3,0,1,
aec,RSVPtest,193,r,false,394.40000000596046,1,g,,3,0,1,
aec,RSVPtest,194,r,true,218.70000000298023,1,g,,0,2,1,
aec,RSVPtest,195,r,false,392.09999999403954,2,r,,3,0,1,
aec,RSVPtest,196,r,true,113.5,2,r,,0,2,1,
aec,RSVPtest,197,r,true,742.3999999910593,0,b,,0,3,0,
aec,RSVPtest,198,r,false,249.90000000596046,2,r,,1,1,2,
aec,RSVPtest,199,r,true,67.90000000596046,2,r,,3,2,1,
aec,RSVPtest,200,r,false,1186.9000000059605,1,g,,3,1,1,
aec,RSVPtest,201,r,false,371.1000000089407,2,r,,2,1,1,
aec,RSVPtest,202,r,false,1272.7999999970198,1,g,,3,0,1,
aec,RSVPtest,203,r,false,700.2999999970198,1,g,,1,1,2,
aec,RSVPtest,204,r,true,491.3999999910593,2,r,,0,1,1,
aec,RSVPtest,205,r,true,517.2999999970198,2,r,,0,0,2,
aec,RSVPtest,206,r,true,467.40000000596046,1,g,,0,0,2,
aec,RSVPtest,207,r,false,995.8999999910593,0,b,,2,3,0,
aec,RSVPtest,208,r,false,922.3999999910593,2,r,,0,2,1,
aec,RSVPtest,209,r,false,916.2999999970198,1,g,,1,2,1,
aec,RSVPtest,210,r,true,777,0,b,,3,3,0,
aec,RSVPtest,211,r,true,700,2,r,,3,0,1,
aec,RSVPtest,212,r,false,699.7000000029802,1,g,,2,0,1,
aec,RSVPtest,213,r,true,1155.8999999910593,1,g,,3,2,1,
aec,RSVPtest,214,r,false,1147.9000000059605,0,b,,1,3,0,
aec,RSVPtest,215,r,true,524.0999999940395,1,g,,3,0,1,
aec,RSVPtest,216,r,false,2419.7999999970198,1,g,,3,0,1,
aec,RSVPtest,217,r,false,661,2,r,,3,0,1,
aec,RSVPtest,218,r,true,251.09999999403954,1,g,,0,1,1,
aec,RSVPtest,219,r,true,271.3999999910593,1,g,,1,2,1,
aec,RSVPtest,220,r,true,276,0,b,,1,3,0,
aec,RSVPtest,221,r,true,202.30000001192093,2,r,,3,0,1,
aec,RSVPtest,222,r,true,70.19999998807907,2,r,,2,0,1,
aec,RSVPtest,223,r,true,388.09999999403954,2,r,,1,1,2,
aec,RSVPtest,224,r,true,1068.1000000089407,1,g,,3,2,1,
aec,RSVPtest,225,r,false,875.2000000029802,0,b,,1,3,0,
aec,RSVPtest,226,r,true,587.5999999940395,2,r,,2,2,2,
aec,RSVPtest,227,r,true,439.20000000298023,0,b,,1,3,0,
aec,RSVPtest,228,r,true,467.5,2,r,,2,1,1,
aec,RSVPtest,229,r,true,355.1000000089407,0,b,,2,3,0,
aec,RSVPtest,230,r,false,892,0,b,,1,3,0,
aec,RSVPtest,231,r,false,771.5,2,r,,1,1,2,
aec,RSVPtest,232,r,true,1133.4000000059605,0,b,,3,3,0,
aec,RSVPtest,233,r,true,468.59999999403954,2,r,,1,1,2,
aec,RSVPtest,234,r,true,1116.4000000059605,2,r,,1,2,1,
aec,RSVPtest,235,r,false,1133,1,g,,2,1,1,
aec,RSVPtest,236,r,false,731.5999999940395,2,r,,3,1,1,
aec,RSVPtest,237,r,false,41.099999994039536,0,b,,3,3,0,
aec,RSVPtest,238,r,false,125.70000000298023,2,r,,0,1,1,
aec,RSVPtest,239,r,false,155.90000000596046,2,r,,3,0,1,
aec,RSVPtest,240,r,false,219.20000000298023,0,b,,3,3,0,
