subID,trialType,trialNum,cntBalance,correct,rt,rwdType,tgtCol,tgtDir,tgtPos,colPos,colMatch,
yga,VDACtrain,0,r,null,null,1,g,v,5,,,
yga,VDACtrain,0,r,true,665.9000000953674,2,r,v,4,,,
yga,VDACtrain,0,r,false,621.6999998092651,2,r,v,3,,,
yga,VDACtrain,0,r,false,480.19999980926514,1,g,h,5,,,
yga,VDACtrain,0,r,true,623.2000002861023,2,r,h,2,,,
yga,VDACtrain,0,r,false,600.5999999046326,2,r,h,1,,,
yga,VDACtrain,0,r,true,761.4000000953674,1,g,v,2,,,
yga,VDACtrain,0,r,true,584.9000000953674,1,g,v,0,,,
yga,VDACtrain,0,r,true,591.1999998092651,1,g,h,3,,,
yga,VDACtrain,0,r,false,903.7999997138977,2,r,h,0,,,
yga,VDACtest,1,r,false,682.2999997138977,2,r,v,0,,,
yga,VDACtest,2,r,false,710.7000002861023,2,r,v,4,,,
yga,VDACtest,3,r,true,606.5,2,r,h,1,,,
yga,VDACtest,4,r,null,null,2,r,h,3,,,
yga,VDACtest,5,r,true,653,2,r,v,3,,,
yga,VDACtest,6,r,true,773.5999999046326,2,r,v,1,,,
yga,VDACtest,7,r,true,942.5999999046326,1,g,v,4,,,
yga,VDACtest,8,r,true,528.0999999046326,1,g,h,4,,,
yga,VDACtest,9,r,false,558.2999997138977,2,r,h,0,,,
yga,VDACtest,10,r,false,602.7999997138977,2,r,h,2,,,
yga,VDACtest,11,r,true,712.5,2,r,h,4,,,
yga,VDACtest,12,r,true,680.4000000953674,1,g,v,1,,,
yga,VDACtest,13,r,true,656.3999996185303,1,g,v,0,,,
yga,VDACtest,14,r,true,639.3000001907349,2,r,v,1,,,
yga,VDACtest,15,r,true,522.2999997138977,2,r,v,0,,,
yga,VDACtest,16,r,true,454.40000009536743,1,g,h,0,,,
yga,VDACtest,17,r,false,608.5999999046326,1,g,h,4,,,
yga,VDACtest,18,r,true,559.8999996185303,2,r,v,3,,,
yga,VDACtest,19,r,true,648,1,g,h,5,,,
yga,VDACtest,20,r,true,700,1,g,v,1,,,
yga,VDACtest,21,r,true,495.59999990463257,1,g,v,4,,,
yga,VDACtest,22,r,true,543.0999999046326,1,g,v,5,,,
yga,VDACtest,23,r,true,399.30000019073486,1,g,h,0,,,
yga,VDACtest,24,r,false,568,1,g,v,2,,,
yga,VDACtest,25,r,true,655,2,r,h,3,,,
yga,VDACtest,26,r,false,583.8000001907349,2,r,v,5,,,
yga,VDACtest,27,r,true,583.0999999046326,2,r,h,1,,,
yga,VDACtest,28,r,true,719,1,g,v,1,,,
yga,VDACtest,29,r,false,545.2999997138977,1,g,v,4,,,
yga,VDACtest,30,r,false,623.5,1,g,v,0,,,
yga,VDACtest,31,r,true,872.1999998092651,2,r,v,5,,,
yga,VDACtest,32,r,true,688.5,1,g,h,1,,,
yga,VDACtest,33,r,false,943.2999997138977,2,r,v,2,,,
yga,VDACtest,34,r,null,null,2,r,v,1,,,
yga,VDACtest,35,r,true,547.1999998092651,1,g,h,5,,,
yga,VDACtest,36,r,true,895.0999999046326,2,r,v,3,,,
yga,VDACtest,37,r,true,937.4000000953674,2,r,v,2,,,
yga,VDACtest,38,r,true,598.8000001907349,2,r,v,5,,,
yga,VDACtest,39,r,true,600,2,r,v,1,,,
yga,VDACtest,40,r,true,487.80000019073486,2,r,v,5,,,
yga,VDACtest,41,r,true,551.3999996185303,1,g,h,2,,,
yga,VDACtest,42,r,true,463.2999997138977,1,g,h,2,,,
yga,VDACtest,43,r,false,431,1,g,v,2,,,
yga,VDACtest,44,r,true,423.40000009536743,2,r,h,2,,,
yga,VDACtest,45,r,false,711.4000000953674,1,g,h,3,,,
yga,VDACtest,46,r,false,527.7000002861023,2,r,h,5,,,
yga,VDACtest,47,r,true,542.0999999046326,2,r,v,5,,,
yga,VDACtest,48,r,true,615.9000000953674,1,g,v,0,,,
yga,VDACtest,49,r,true,536.0999999046326,2,r,v,0,,,
yga,VDACtest,50,r,true,767.6999998092651,2,r,h,1,,,
brk,brk,brk,brk,brk,brk,brk,brk,brk,brk,brk,brk,
yga,VDACtest,51,r,true,673.3000001907349,1,g,h,4,,,
yga,VDACtest,52,r,true,759.5,1,g,v,1,,,
yga,VDACtest,53,r,true,607.1999998092651,1,g,h,2,,,
yga,VDACtest,54,r,true,704.0999999046326,2,r,v,0,,,
yga,VDACtest,55,r,true,542.2999997138977,1,g,v,5,,,
yga,VDACtest,56,r,true,742.8999996185303,1,g,h,4,,,
yga,VDACtest,57,r,true,496.90000009536743,1,g,h,0,,,
yga,VDACtest,58,r,true,526.8999996185303,2,r,h,4,,,
yga,VDACtest,59,r,false,510.3999996185303,1,g,h,5,,,
yga,VDACtest,60,r,true,607.0999999046326,1,g,h,3,,,
yga,VDACtest,61,r,false,775.6999998092651,2,r,v,1,,,
yga,VDACtest,62,r,true,687,1,g,v,4,,,
yga,VDACtest,63,r,true,792.2000002861023,2,r,v,4,,,
yga,VDACtest,64,r,false,894.2999997138977,2,r,v,2,,,
yga,VDACtest,65,r,true,782.5999999046326,2,r,v,4,,,
yga,VDACtest,66,r,true,759.5,1,g,v,2,,,
yga,VDACtest,67,r,true,719.5,1,g,v,5,,,
yga,VDACtest,68,r,true,767.5,2,r,h,0,,,
yga,VDACtest,69,r,null,null,2,r,v,3,,,
yga,VDACtest,70,r,true,566.0999999046326,2,r,h,4,,,
yga,VDACtest,71,r,true,766,1,g,h,1,,,
yga,VDACtest,72,r,true,694.5999999046326,2,r,v,2,,,
yga,VDACtest,73,r,false,638.5,1,g,h,1,,,
yga,VDACtest,74,r,false,719.7999997138977,1,g,v,3,,,
yga,VDACtest,75,r,true,598.3000001907349,2,r,h,3,,,
yga,VDACtest,76,r,true,558.1999998092651,2,r,h,3,,,
yga,VDACtest,77,r,false,671.8999996185303,1,g,h,2,,,
yga,VDACtest,78,r,true,607.5,1,g,h,1,,,
yga,VDACtest,79,r,null,null,2,r,h,5,,,
yga,VDACtest,80,r,true,615.0999999046326,2,r,h,4,,,
yga,VDACtest,81,r,true,495.80000019073486,1,g,h,5,,,
yga,VDACtest,82,r,true,679,2,r,h,4,,,
yga,VDACtest,83,r,true,566.6999998092651,2,r,v,4,,,
yga,VDACtest,84,r,true,600.4000000953674,2,r,v,2,,,
yga,VDACtest,85,r,true,694.7999997138977,2,r,v,4,,,
yga,VDACtest,86,r,true,527.5,2,r,v,3,,,
yga,VDACtest,87,r,true,599.7000002861023,1,g,v,0,,,
yga,VDACtest,88,r,true,638.5999999046326,1,g,h,3,,,
yga,VDACtest,89,r,true,736.7000002861023,2,r,v,5,,,
yga,VDACtest,90,r,true,608.2000002861023,2,r,h,5,,,
yga,VDACtest,91,r,true,728.7999997138977,2,r,h,1,,,
yga,VDACtest,92,r,true,559.0999999046326,2,r,v,0,,,
yga,VDACtest,93,r,true,729.5,2,r,v,5,,,
yga,VDACtest,94,r,true,720.9000000953674,2,r,h,3,,,
yga,VDACtest,95,r,true,605.0999999046326,2,r,v,2,,,
yga,VDACtest,96,r,true,737,2,r,h,4,,,
yga,VDACtest,97,r,true,535.2999997138977,1,g,v,2,,,
yga,VDACtest,98,r,true,535.6999998092651,1,g,v,4,,,
yga,VDACtest,99,r,true,791.0999999046326,2,r,v,3,,,
yga,VDACtest,100,r,true,687.7999997138977,1,g,v,2,,,
brk,brk,brk,brk,brk,brk,brk,brk,brk,brk,brk,brk,
yga,VDACtest,101,r,true,959,2,r,h,1,,,
yga,VDACtest,102,r,true,702.5,1,g,v,1,,,
yga,VDACtest,103,r,true,823,2,r,h,5,,,
yga,VDACtest,104,r,true,735.8000001907349,2,r,v,1,,,
yga,VDACtest,105,r,false,783.5,1,g,h,3,,,
yga,VDACtest,106,r,null,null,2,r,v,0,,,
yga,VDACtest,107,r,true,732.5,2,r,h,2,,,
yga,VDACtest,108,r,true,598.2000002861023,2,r,h,2,,,
yga,VDACtest,109,r,true,641.0999999046326,2,r,h,1,,,
yga,VDACtest,110,r,true,783.1999998092651,1,g,v,4,,,
yga,VDACtest,111,r,null,null,1,g,h,3,,,
yga,VDACtest,112,r,true,558.6999998092651,1,g,v,5,,,
yga,VDACtest,113,r,true,704.6999998092651,1,g,h,1,,,
yga,VDACtest,114,r,true,638.6999998092651,1,g,h,0,,,
yga,VDACtest,115,r,true,479.90000009536743,2,r,v,0,,,
yga,VDACtest,116,r,true,622.5999999046326,2,r,h,0,,,
yga,VDACtest,117,r,true,494.5,1,g,v,4,,,
yga,VDACtest,118,r,true,695.3999996185303,1,g,h,1,,,
yga,VDACtest,119,r,true,798.8000001907349,1,g,h,4,,,
yga,VDACtest,120,r,true,694.9000000953674,1,g,h,1,,,
yga,VDACtest,121,r,true,582.5,1,g,h,0,,,
yga,VDACtest,122,r,true,695.0999999046326,2,r,h,2,,,
yga,VDACtest,123,r,true,479.19999980926514,2,r,h,2,,,
yga,VDACtest,124,r,true,478.7999997138977,1,g,h,2,,,
yga,VDACtest,125,r,true,607,1,g,v,3,,,
yga,VDACtest,126,r,false,510.5,1,g,h,2,,,
yga,VDACtest,127,r,true,631.8999996185303,1,g,h,2,,,
yga,VDACtest,128,r,true,696.5999999046326,1,g,h,5,,,
yga,VDACtest,129,r,true,556.6999998092651,1,g,h,3,,,
yga,VDACtest,130,r,true,630.5,2,r,v,2,,,
yga,VDACtest,131,r,true,567.3000001907349,2,r,v,5,,,
yga,VDACtest,132,r,true,504.2999997138977,2,r,v,4,,,
yga,VDACtest,133,r,true,703.0999999046326,1,g,v,2,,,
yga,VDACtest,134,r,true,523.5,1,g,v,0,,,
yga,VDACtest,135,r,true,671.1999998092651,1,g,h,4,,,
yga,VDACtest,136,r,null,null,1,g,h,5,,,
yga,VDACtest,137,r,true,632,2,r,v,1,,,
yga,VDACtest,138,r,true,542.6999998092651,1,g,v,1,,,
yga,VDACtest,139,r,true,550.5999999046326,2,r,h,4,,,
yga,VDACtest,140,r,true,552.8000001907349,2,r,v,1,,,
yga,VDACtest,141,r,true,663.1999998092651,2,r,v,3,,,
yga,VDACtest,142,r,true,559,2,r,h,1,,,
yga,VDACtest,143,r,true,950.9000000953674,2,r,h,3,,,
yga,VDACtest,144,r,true,854.0999999046326,1,g,v,3,,,
yga,VDACtest,145,r,null,null,1,g,v,4,,,
yga,VDACtest,146,r,true,597,2,r,v,0,,,
yga,VDACtest,147,r,true,519.2999997138977,2,r,h,0,,,
yga,VDACtest,148,r,true,669.8999996185303,2,r,h,3,,,
yga,VDACtest,149,r,true,631.5999999046326,1,g,h,3,,,
yga,VDACtest,150,r,true,725.5999999046326,1,g,h,1,,,
brk,brk,brk,brk,brk,brk,brk,brk,brk,brk,brk,brk,
yga,VDACtest,151,r,true,694.5,2,r,h,0,,,
yga,VDACtest,152,r,true,591.4000000953674,1,g,v,2,,,
yga,VDACtest,153,r,true,615.3000001907349,1,g,v,3,,,
yga,VDACtest,154,r,true,575.6999998092651,1,g,v,0,,,
yga,VDACtest,155,r,true,480.09999990463257,1,g,v,5,,,
yga,VDACtest,156,r,true,478.19999980926514,2,r,h,0,,,
yga,VDACtest,157,r,true,719.6999998092651,2,r,h,4,,,
yga,VDACtest,158,r,true,759.2999997138977,1,g,h,4,,,
yga,VDACtest,159,r,true,557.5,2,r,h,1,,,
yga,VDACtest,160,r,true,552.3000001907349,2,r,v,4,,,
yga,VDACtest,161,r,true,576.5,2,r,h,2,,,
yga,VDACtest,162,r,true,559.2999997138977,1,g,v,3,,,
yga,VDACtest,163,r,true,503.40000009536743,2,r,h,4,,,
yga,VDACtest,164,r,true,527.2999997138977,2,r,v,3,,,
yga,VDACtest,165,r,true,536,1,g,h,4,,,
yga,VDACtest,166,r,true,630.3000001907349,1,g,h,5,,,
yga,VDACtest,167,r,true,607.2000002861023,2,r,h,1,,,
yga,VDACtest,168,r,true,463.69999980926514,1,g,v,0,,,
yga,VDACtest,169,r,true,719.4000000953674,2,r,v,1,,,
yga,VDACtest,170,r,true,542.8999996185303,2,r,h,2,,,
yga,VDACtest,171,r,true,552.7999997138977,1,g,v,1,,,
yga,VDACtest,172,r,true,591.2999997138977,1,g,h,2,,,
yga,VDACtest,173,r,true,654.3999996185303,1,g,h,5,,,
yga,VDACtest,174,r,true,621.5999999046326,1,g,v,2,,,
yga,VDACtest,175,r,false,622.2999997138977,1,g,v,3,,,
yga,VDACtest,176,r,true,726,1,g,h,0,,,
yga,VDACtest,177,r,true,479.09999990463257,1,g,v,1,,,
yga,VDACtest,178,r,true,727.6999998092651,2,r,h,0,,,
yga,VDACtest,179,r,true,700.6999998092651,2,r,h,5,,,
yga,VDACtest,180,r,true,503,2,r,h,5,,,
yga,VDACtest,181,r,true,584.5,2,r,v,4,,,
yga,VDACtest,182,r,true,582.7000002861023,1,g,v,5,,,
yga,VDACtest,183,r,true,542.6999998092651,1,g,v,3,,,
yga,VDACtest,184,r,true,535.4000000953674,1,g,v,4,,,
yga,VDACtest,185,r,true,758.9000000953674,2,r,v,2,,,
yga,VDACtest,186,r,true,527.5999999046326,1,g,v,3,,,
yga,VDACtest,187,r,true,800.4000000953674,2,r,h,3,,,
yga,VDACtest,188,r,true,710.5,1,g,h,1,,,
yga,VDACtest,189,r,true,566.6999998092651,1,g,v,0,,,
yga,VDACtest,190,r,true,469.09999990463257,1,g,v,5,,,
yga,VDACtest,191,r,true,597.3000001907349,2,r,h,5,,,
yga,VDACtest,192,r,true,591.8000001907349,1,g,h,0,,,
yga,VDACtest,193,r,true,630,2,r,h,5,,,
yga,VDACtest,194,r,true,662,1,g,h,4,,,
yga,VDACtest,195,r,true,664.0999999046326,1,g,v,1,,,
yga,VDACtest,196,r,true,527.2000002861023,1,g,h,0,,,
yga,VDACtest,197,r,true,706.5999999046326,1,g,h,3,,,
yga,VDACtest,198,r,true,455.8999996185303,2,r,v,4,,,
yga,VDACtest,199,r,true,630.9000000953674,2,r,h,0,,,
yga,VDACtest,200,r,true,577.3000001907349,1,g,v,5,,,
yga,RSVPtrain,0,r,null,null,2,r,,0,0,2,
yga,RSVPtrain,0,r,false,2268.699999809265,0,b,,3,3,0,
yga,RSVPtrain,0,r,true,1858.0999999046326,0,b,,1,3,0,
yga,RSVPtrain,0,r,true,994.4000000953674,1,g,,3,0,1,
yga,RSVPtrain,0,r,true,727.4000000953674,1,g,,2,2,2,
yga,RSVPtrain,0,r,true,1441.3000001907349,0,b,,0,3,0,
yga,RSVPtrain,0,r,true,816.0999999046326,1,g,,3,1,1,
yga,RSVPtrain,0,r,true,828.1999998092651,2,r,,3,2,1,
yga,RSVPtrain,0,r,true,904.5,2,r,,1,1,2,
yga,RSVPtrain,0,r,false,1266.3000001907349,1,g,,1,0,1,
yga,RSVPtest,1,r,false,1021.5999999046326,1,g,,0,0,2,
yga,RSVPtest,2,r,false,899.7999997138977,1,g,,3,0,1,
yga,RSVPtest,3,r,true,1131.4000000953674,0,b,,2,3,0,
yga,RSVPtest,4,r,true,811.9000000953674,0,b,,3,3,0,
yga,RSVPtest,5,r,true,923.0999999046326,2,r,,2,0,1,
yga,RSVPtest,6,r,true,1817.6999998092651,2,r,,2,1,1,
yga,RSVPtest,7,r,true,1289.9000000953674,2,r,,2,2,2,
yga,RSVPtest,8,r,true,1076.1000003814697,2,r,,3,1,1,
yga,RSVPtest,9,r,true,763.9000000953674,1,g,,1,0,1,
yga,RSVPtest,10,r,false,1088.9000000953674,1,g,,3,2,1,
yga,RSVPtest,11,r,true,785.2999997138977,2,r,,3,1,1,
yga,RSVPtest,12,r,false,1078.8000001907349,0,b,,3,3,0,
yga,RSVPtest,13,r,true,1060,2,r,,2,0,1,
yga,RSVPtest,14,r,true,1040.9000000953674,1,g,,2,2,2,
yga,RSVPtest,15,r,true,785.9000000953674,1,g,,1,1,2,
yga,RSVPtest,16,r,true,1144.5999999046326,1,g,,3,1,1,
yga,RSVPtest,17,r,true,1785.1999998092651,0,b,,3,3,0,
yga,RSVPtest,18,r,true,705,0,b,,2,3,0,
yga,RSVPtest,19,r,true,1313.6999998092651,2,r,,3,1,1,
yga,RSVPtest,20,r,true,577.3000001907349,1,g,,0,0,2,
yga,RSVPtest,21,r,true,569.5,0,b,,0,3,0,
yga,RSVPtest,22,r,true,1321.3000001907349,2,r,,1,2,1,
yga,RSVPtest,23,r,true,683.0999999046326,1,g,,1,1,2,
yga,RSVPtest,24,r,true,820.1000003814697,1,g,,3,0,1,
yga,RSVPtest,25,r,false,794.4000000953674,2,r,,1,1,2,
yga,RSVPtest,26,r,false,1143.6999998092651,1,g,,3,1,1,
yga,RSVPtest,27,r,true,746.3000001907349,2,r,,2,0,1,
yga,RSVPtest,28,r,true,784.6999998092651,1,g,,3,1,1,
yga,RSVPtest,29,r,true,625.8000001907349,0,b,,1,3,0,
yga,RSVPtest,30,r,true,1335.1999998092651,2,r,,2,2,2,
yga,RSVPtest,31,r,true,1024.5,2,r,,2,2,2,
yga,RSVPtest,32,r,true,842.1999998092651,1,g,,1,0,1,
yga,RSVPtest,33,r,true,708.2999997138977,1,g,,1,1,2,
yga,RSVPtest,34,r,true,968.3999996185303,2,r,,3,2,1,
yga,RSVPtest,35,r,true,674.2999997138977,1,g,,1,0,1,
yga,RSVPtest,36,r,true,679.5,2,r,,0,0,2,
yga,RSVPtest,37,r,true,577.6999998092651,2,r,,2,2,2,
yga,RSVPtest,38,r,true,608.6000003814697,2,r,,1,0,1,
yga,RSVPtest,39,r,true,1250.3000001907349,2,r,,1,1,2,
yga,RSVPtest,40,r,true,552.8000001907349,1,g,,2,1,1,
yga,RSVPtest,41,r,true,735.0999999046326,2,r,,3,2,1,
yga,RSVPtest,42,r,true,551.5,0,b,,0,3,0,
yga,RSVPtest,43,r,true,705.7999997138977,1,g,,0,2,1,
yga,RSVPtest,44,r,true,801.3000001907349,2,r,,3,1,1,
yga,RSVPtest,45,r,true,579,1,g,,1,2,1,
yga,RSVPtest,46,r,true,1216,0,b,,3,3,0,
yga,RSVPtest,47,r,true,362.59999990463257,0,b,,0,3,0,
yga,RSVPtest,48,r,true,448.09999990463257,2,r,,1,0,1,
yga,RSVPtest,49,r,true,833,0,b,,1,3,0,
yga,RSVPtest,50,r,true,960.4000000953674,0,b,,3,3,0,
yga,RSVPtest,51,r,true,553.6999998092651,2,r,,1,0,1,
yga,RSVPtest,52,r,true,1017.3000001907349,1,g,,1,0,1,
yga,RSVPtest,53,r,true,608.8000001907349,2,r,,2,1,1,
yga,RSVPtest,54,r,true,653.2999997138977,1,g,,0,2,1,
yga,RSVPtest,55,r,true,759.8000001907349,1,g,,0,1,1,
yga,RSVPtest,56,r,true,386.80000019073486,2,r,,0,0,2,
yga,RSVPtest,57,r,true,569.0999999046326,2,r,,0,2,1,
yga,RSVPtest,58,r,true,553.4000000953674,0,b,,1,3,0,
yga,RSVPtest,59,r,true,507,1,g,,1,1,2,
yga,RSVPtest,60,r,false,662.6999998092651,2,r,,3,0,1,
brk,brk,brk,brk,brk,brk,brk,brk,brk,brk,brk,brk,
yga,RSVPtest,61,r,false,644.5999999046326,1,g,,3,1,1,
yga,RSVPtest,62,r,true,823.5,2,r,,1,2,1,
yga,RSVPtest,63,r,true,560.7999997138977,1,g,,0,1,1,
yga,RSVPtest,64,r,true,719.1999998092651,2,r,,3,2,1,
yga,RSVPtest,65,r,true,427.69999980926514,2,r,,2,2,2,
yga,RSVPtest,66,r,true,565.7000002861023,1,g,,2,1,1,
yga,RSVPtest,67,r,true,920.6999998092651,1,g,,3,1,1,
yga,RSVPtest,68,r,false,952.8000001907349,1,g,,3,2,1,
yga,RSVPtest,69,r,true,1030.5999999046326,1,g,,1,2,1,
yga,RSVPtest,70,r,true,721.7000002861023,1,g,,3,2,1,
yga,RSVPtest,71,r,true,699.0999999046326,1,g,,1,0,1,
yga,RSVPtest,72,r,true,601.1000003814697,2,r,,1,2,1,
yga,RSVPtest,73,r,true,569.4000000953674,1,g,,0,1,1,
yga,RSVPtest,74,r,true,632.9000000953674,2,r,,3,0,1,
yga,RSVPtest,75,r,true,769.5,0,b,,0,3,0,
yga,RSVPtest,76,r,true,1360.0999999046326,0,b,,2,3,0,
yga,RSVPtest,77,r,true,616.9000000953674,1,g,,3,0,1,
yga,RSVPtest,78,r,true,713.2000002861023,0,b,,1,3,0,
yga,RSVPtest,79,r,false,1227.3000001907349,1,g,,3,0,1,
yga,RSVPtest,80,r,true,767.3000001907349,1,g,,0,2,1,
yga,RSVPtest,81,r,true,546.0999999046326,2,r,,0,1,1,
yga,RSVPtest,82,r,true,850.4000000953674,2,r,,3,2,1,
yga,RSVPtest,83,r,true,480.7999997138977,0,b,,1,3,0,
yga,RSVPtest,84,r,true,880.7999997138977,2,r,,0,2,1,
yga,RSVPtest,85,r,false,964,1,g,,3,2,1,
yga,RSVPtest,86,r,false,855.2999997138977,1,g,,3,1,1,
yga,RSVPtest,87,r,true,656.2999997138977,2,r,,3,2,1,
yga,RSVPtest,88,r,true,751.4000000953674,1,g,,3,0,1,
yga,RSVPtest,89,r,true,624.1999998092651,1,g,,2,2,2,
yga,RSVPtest,90,r,true,720.6000003814697,2,r,,3,2,1,
yga,RSVPtest,91,r,false,688.2999997138977,1,g,,3,2,1,
yga,RSVPtest,92,r,true,720.7000002861023,0,b,,0,3,0,
yga,RSVPtest,93,r,false,504.80000019073486,2,r,,3,2,1,
yga,RSVPtest,94,r,true,720.3000001907349,1,g,,1,2,1,
yga,RSVPtest,95,r,false,833.7999997138977,2,r,,3,0,1,
yga,RSVPtest,96,r,false,671,2,r,,3,1,1,
yga,RSVPtest,97,r,true,817.0999999046326,2,r,,2,1,1,
yga,RSVPtest,98,r,true,574,2,r,,3,1,1,
yga,RSVPtest,99,r,false,552,1,g,,3,0,1,
yga,RSVPtest,100,r,false,775.3999996185303,0,b,,0,3,0,
yga,RSVPtest,101,r,true,994.1999998092651,2,r,,2,2,2,
yga,RSVPtest,102,r,true,861.7000002861023,1,g,,3,2,1,
yga,RSVPtest,103,r,false,736.7999997138977,1,g,,0,0,2,
yga,RSVPtest,104,r,true,435.2000002861023,2,r,,0,1,1,
yga,RSVPtest,105,r,false,1143.3000001907349,2,r,,3,0,1,
yga,RSVPtest,106,r,true,718.6000003814697,2,r,,3,2,1,
yga,RSVPtest,107,r,true,735.5,2,r,,1,1,2,
yga,RSVPtest,108,r,true,679.5,2,r,,0,2,1,
yga,RSVPtest,109,r,true,727.1999998092651,0,b,,0,3,0,
yga,RSVPtest,110,r,true,1188.8000001907349,1,g,,0,0,2,
yga,RSVPtest,111,r,true,1044.7999997138977,0,b,,1,3,0,
yga,RSVPtest,112,r,false,848.0999999046326,2,r,,3,0,1,
yga,RSVPtest,113,r,true,888.5,1,g,,2,0,1,
yga,RSVPtest,114,r,true,863.1000003814697,0,b,,1,3,0,
yga,RSVPtest,115,r,true,969.6999998092651,0,b,,2,3,0,
yga,RSVPtest,116,r,false,608.1000003814697,1,g,,3,2,1,
yga,RSVPtest,117,r,false,416.40000009536743,0,b,,3,3,0,
yga,RSVPtest,118,r,true,622.8999996185303,1,g,,2,1,1,
yga,RSVPtest,119,r,false,1111.5999999046326,2,r,,0,2,1,
yga,RSVPtest,120,r,true,774.6000003814697,2,r,,1,0,1,
brk,brk,brk,brk,brk,brk,brk,brk,brk,brk,brk,brk,
yga,RSVPtest,121,r,true,683.7999997138977,2,r,,1,2,1,
yga,RSVPtest,122,r,true,775,0,b,,3,3,0,
yga,RSVPtest,123,r,true,655.7999997138977,1,g,,1,1,2,
yga,RSVPtest,124,r,false,838.9000000953674,2,r,,3,0,1,
yga,RSVPtest,125,r,false,870,0,b,,3,3,0,
yga,RSVPtest,126,r,true,990.5,0,b,,0,3,0,
yga,RSVPtest,127,r,true,848,0,b,,1,3,0,
yga,RSVPtest,128,r,false,704.8000001907349,1,g,,3,1,1,
yga,RSVPtest,129,r,true,1010.5,1,g,,0,2,1,
yga,RSVPtest,130,r,true,961.6000003814697,1,g,,3,2,1,
yga,RSVPtest,131,r,true,1481.5999999046326,1,g,,2,1,1,
yga,RSVPtest,132,r,false,707.6000003814697,2,r,,3,0,1,
yga,RSVPtest,133,r,false,329.69999980926514,1,g,,2,2,2,
yga,RSVPtest,134,r,true,297.2000002861023,2,r,,3,1,1,
yga,RSVPtest,135,r,false,739.1999998092651,1,g,,3,0,1,
yga,RSVPtest,136,r,false,404.80000019073486,0,b,,2,3,0,
yga,RSVPtest,137,r,true,749.2999997138977,1,g,,1,2,1,
yga,RSVPtest,138,r,true,535,1,g,,2,2,2,
yga,RSVPtest,139,r,true,871.2999997138977,1,g,,3,1,1,
yga,RSVPtest,140,r,true,1203.7000002861023,1,g,,3,0,1,
yga,RSVPtest,141,r,true,1415.0999999046326,1,g,,0,2,1,
yga,RSVPtest,142,r,true,662,1,g,,0,1,1,
yga,RSVPtest,143,r,false,432.09999990463257,2,r,,3,0,1,
yga,RSVPtest,144,r,true,1030.0999999046326,2,r,,2,0,1,
yga,RSVPtest,145,r,true,719.5,2,r,,0,0,2,
yga,RSVPtest,146,r,true,1383.2000002861023,1,g,,1,1,2,
yga,RSVPtest,147,r,true,2166.199999809265,2,r,,0,1,1,
yga,RSVPtest,148,r,null,null,2,r,,0,1,1,
yga,RSVPtest,149,r,true,610.0999999046326,0,b,,0,3,0,
yga,RSVPtest,150,r,true,1367.7000002861023,1,g,,1,2,1,
yga,RSVPtest,151,r,false,589.8000001907349,0,b,,3,3,0,
yga,RSVPtest,152,r,true,615.6000003814697,2,r,,3,1,1,
yga,RSVPtest,153,r,null,null,0,b,,2,3,0,
yga,RSVPtest,154,r,null,null,1,g,,3,0,1,
yga,RSVPtest,155,r,true,537.8000001907349,1,g,,0,1,1,
yga,RSVPtest,156,r,false,1143.1999998092651,1,g,,3,2,1,
yga,RSVPtest,157,r,true,399.80000019073486,2,r,,3,0,1,
yga,RSVPtest,158,r,true,1839.7999997138977,2,r,,0,2,1,
yga,RSVPtest,159,r,false,941.4000000953674,2,r,,3,2,1,
yga,RSVPtest,160,r,true,1504.0999999046326,1,g,,3,1,1,
yga,RSVPtest,161,r,false,2296.300000190735,0,b,,3,3,0,
yga,RSVPtest,162,r,true,1943.6999998092651,0,b,,1,3,0,
yga,RSVPtest,163,r,true,1783.9000000953674,1,g,,0,0,2,
yga,RSVPtest,164,r,true,1919.6999998092651,0,b,,1,3,0,
yga,RSVPtest,165,r,true,845.9000000953674,2,r,,2,1,1,
yga,RSVPtest,166,r,null,null,1,g,,2,2,2,
yga,RSVPtest,167,r,true,577.8999996185303,0,b,,0,3,0,
yga,RSVPtest,168,r,true,583.8000001907349,1,g,,2,0,1,
yga,RSVPtest,169,r,true,638.5,2,r,,3,1,1,
yga,RSVPtest,170,r,false,1135.6000003814697,1,g,,3,0,1,
yga,RSVPtest,171,r,true,1092.0999999046326,2,r,,0,2,1,
yga,RSVPtest,172,r,true,968.1000003814697,2,r,,3,1,1,
yga,RSVPtest,173,r,true,1132.7999997138977,2,r,,3,1,1,
yga,RSVPtest,174,r,true,1095.5,2,r,,3,2,1,
yga,RSVPtest,175,r,true,1006.2999997138977,1,g,,2,2,2,
yga,RSVPtest,176,r,true,527.1000003814697,0,b,,2,3,0,
yga,RSVPtest,177,r,false,726,1,g,,3,2,1,
yga,RSVPtest,178,r,false,846.6000003814697,1,g,,3,0,1,
yga,RSVPtest,179,r,false,1262.6999998092651,2,r,,0,0,2,
yga,RSVPtest,180,r,true,861.8000001907349,1,g,,2,1,1,
brk,brk,brk,brk,brk,brk,brk,brk,brk,brk,brk,brk,
yga,RSVPtest,181,r,false,1045.5,1,g,,3,2,1,
yga,RSVPtest,182,r,false,958.1000003814697,0,b,,3,3,0,
yga,RSVPtest,183,r,true,912.6000003814697,1,g,,0,0,2,
yga,RSVPtest,184,r,true,664.3000001907349,0,b,,2,3,0,
yga,RSVPtest,185,r,true,598.8999996185303,1,g,,2,0,1,
yga,RSVPtest,186,r,true,1059.4000000953674,2,r,,1,1,2,
yga,RSVPtest,187,r,true,879.1999998092651,0,b,,2,3,0,
yga,RSVPtest,188,r,true,863.2999997138977,2,r,,0,1,1,
yga,RSVPtest,189,r,true,1159.9000000953674,0,b,,3,3,0,
yga,RSVPtest,190,r,true,835.9000000953674,2,r,,2,0,1,
yga,RSVPtest,191,r,false,1208.5,0,b,,2,3,0,
yga,RSVPtest,192,r,false,1062.4000000953674,0,b,,3,3,0,
yga,RSVPtest,193,r,true,1062.9000000953674,0,b,,3,3,0,
yga,RSVPtest,194,r,true,1335.6000003814697,1,g,,2,0,1,
yga,RSVPtest,195,r,true,820.1999998092651,2,r,,1,0,1,
yga,RSVPtest,196,r,false,1095,0,b,,3,3,0,
yga,RSVPtest,197,r,true,959,0,b,,2,3,0,
yga,RSVPtest,198,r,true,670.9000000953674,2,r,,1,2,1,
yga,RSVPtest,199,r,true,693.1999998092651,0,b,,1,3,0,
yga,RSVPtest,200,r,false,893,2,r,,3,2,1,
yga,RSVPtest,201,r,true,982.5,0,b,,3,3,0,
yga,RSVPtest,202,r,true,1166.5,2,r,,3,0,1,
yga,RSVPtest,203,r,true,1238.4000000953674,0,b,,3,3,0,
yga,RSVPtest,204,r,true,829.8000001907349,2,r,,1,1,2,
yga,RSVPtest,205,r,true,1143.6999998092651,1,g,,2,0,1,
yga,RSVPtest,206,r,true,789.1000003814697,0,b,,1,3,0,
yga,RSVPtest,207,r,true,887.5,2,r,,0,0,2,
yga,RSVPtest,208,r,true,653.3000001907349,1,g,,0,2,1,
yga,RSVPtest,209,r,true,1061.4000000953674,0,b,,3,3,0,
yga,RSVPtest,210,r,true,918.6000003814697,2,r,,2,1,1,
yga,RSVPtest,211,r,true,1238.4000000953674,2,r,,2,1,1,
yga,RSVPtest,212,r,true,943.5,2,r,,1,2,1,
yga,RSVPtest,213,r,true,1234.7999997138977,2,r,,0,0,2,
yga,RSVPtest,214,r,true,1519.6999998092651,2,r,,3,2,1,
yga,RSVPtest,215,r,true,860,1,g,,0,1,1,
yga,RSVPtest,216,r,true,936,2,r,,3,0,1,
yga,RSVPtest,217,r,true,623,2,r,,1,0,1,
yga,RSVPtest,218,r,true,1117.4000000953674,0,b,,3,3,0,
yga,RSVPtest,219,r,true,1309.9000000953674,2,r,,3,0,1,
yga,RSVPtest,220,r,false,964.5999999046326,1,g,,3,2,1,
yga,RSVPtest,221,r,true,1021.7999997138977,2,r,,3,1,1,
yga,RSVPtest,222,r,true,893.1000003814697,1,g,,2,1,1,
yga,RSVPtest,223,r,true,895.6999998092651,0,b,,3,3,0,
yga,RSVPtest,224,r,true,825.4000000953674,1,g,,1,0,1,
yga,RSVPtest,225,r,true,1079.0999999046326,2,r,,2,0,1,
yga,RSVPtest,226,r,false,854.9000000953674,2,r,,1,1,2,
yga,RSVPtest,227,r,true,597.1999998092651,0,b,,2,3,0,
yga,RSVPtest,228,r,true,677.9000000953674,0,b,,3,3,0,
yga,RSVPtest,229,r,true,675.9000000953674,0,b,,0,3,0,
yga,RSVPtest,230,r,true,814,0,b,,3,3,0,
yga,RSVPtest,231,r,true,934.1000003814697,0,b,,0,3,0,
yga,RSVPtest,232,r,false,782,0,b,,3,3,0,
yga,RSVPtest,233,r,true,975.0999999046326,1,g,,3,1,1,
yga,RSVPtest,234,r,true,619.9000000953674,2,r,,0,1,1,
yga,RSVPtest,235,r,true,511.40000009536743,1,g,,1,2,1,
yga,RSVPtest,236,r,false,766,0,b,,3,3,0,
yga,RSVPtest,237,r,true,1247.2999997138977,1,g,,2,0,1,
yga,RSVPtest,238,r,false,621.5,1,g,,3,1,1,
yga,RSVPtest,239,r,true,1333.8999996185303,1,g,,3,0,1,
yga,RSVPtest,240,r,true,1349.3000001907349,1,g,,3,1,1,
