subID,trialType,trialNum,cntBalance,correct,rt,rwdType,tgtCol,tgtDir,tgtPos,colPos,colMatch,
glg,VDACtrain,0,r,null,null,1,g,h,5,,,
glg,VDACtrain,0,r,true,687.3000001907349,2,r,v,4,,,
glg,VDACtrain,0,r,true,624.2000000476837,1,g,h,3,,,
glg,VDACtrain,0,r,true,946.6999998092651,1,g,v,5,,,
glg,VDACtrain,0,r,null,null,1,g,v,2,,,
glg,VDACtrain,0,r,true,697.9000000953674,2,r,h,2,,,
glg,VDACtrain,0,r,false,564,2,r,v,3,,,
glg,VDACtrain,0,r,false,792.7999999523163,2,r,h,0,,,
glg,VDACtrain,0,r,true,529.7000000476837,1,g,v,0,,,
glg,VDACtrain,0,r,true,723.6000001430511,2,r,h,1,,,
glg,VDACtest,1,r,false,768.7999999523163,1,g,v,1,,,
glg,VDACtest,2,r,true,882.1000001430511,2,r,h,5,,,
glg,VDACtest,3,r,true,551.5999999046326,1,g,v,3,,,
glg,VDACtest,4,r,true,713.5999999046326,1,g,h,3,,,
glg,VDACtest,5,r,true,565.1000001430511,2,r,h,0,,,
glg,VDACtest,6,r,true,537.0999999046326,1,g,h,3,,,
glg,VDACtest,7,r,true,624.4000000953674,1,g,h,1,,,
glg,VDACtest,8,r,true,636,1,g,h,4,,,
glg,VDACtest,9,r,true,584.3999998569489,1,g,h,2,,,
glg,VDACtest,10,r,true,698.2999999523163,1,g,v,5,,,
glg,VDACtest,11,r,true,513.5999999046326,1,g,h,4,,,
glg,VDACtest,12,r,true,552.5999999046326,1,g,h,0,,,
glg,VDACtest,13,r,true,530.7999999523163,1,g,h,1,,,
glg,VDACtest,14,r,true,577.1000001430511,2,r,v,4,,,
glg,VDACtest,15,r,true,660,1,g,v,5,,,
glg,VDACtest,16,r,true,513.8999998569489,2,r,v,0,,,
glg,VDACtest,17,r,true,562,1,g,v,4,,,
glg,VDACtest,18,r,true,788.8999998569489,2,r,h,3,,,
glg,VDACtest,19,r,true,643,2,r,h,1,,,
glg,VDACtest,20,r,true,610.2000000476837,2,r,h,5,,,
glg,VDACtest,21,r,true,581.8999998569489,1,g,h,2,,,
glg,VDACtest,22,r,true,530,2,r,h,2,,,
glg,VDACtest,23,r,false,697.3999998569489,1,g,v,3,,,
glg,VDACtest,24,r,true,666.5,1,g,v,0,,,
glg,VDACtest,25,r,true,515.5,2,r,v,5,,,
glg,VDACtest,26,r,true,586.9000000953674,1,g,v,4,,,
glg,VDACtest,27,r,true,649.9000000953674,2,r,v,0,,,
glg,VDACtest,28,r,true,625.7999999523163,2,r,h,5,,,
glg,VDACtest,29,r,true,561.5,1,g,v,4,,,
glg,VDACtest,30,r,true,627.8000001907349,2,r,h,5,,,
glg,VDACtest,31,r,true,551.5999999046326,2,r,v,5,,,
glg,VDACtest,32,r,true,715.8999998569489,2,r,v,2,,,
glg,VDACtest,33,r,true,737,2,r,h,1,,,
glg,VDACtest,34,r,true,594.2999999523163,2,r,v,3,,,
glg,VDACtest,35,r,true,528.9000000953674,2,r,v,5,,,
glg,VDACtest,36,r,true,435.89999985694885,2,r,h,3,,,
glg,VDACtest,37,r,true,871.7999999523163,1,g,h,2,,,
glg,VDACtest,38,r,true,634.2000000476837,1,g,v,4,,,
glg,VDACtest,39,r,true,899.2000000476837,2,r,v,5,,,
glg,VDACtest,40,r,true,712.2000000476837,1,g,h,4,,,
glg,VDACtest,41,r,true,658.9000000953674,2,r,h,1,,,
glg,VDACtest,42,r,true,577.8000001907349,2,r,v,1,,,
glg,VDACtest,43,r,null,null,2,r,h,3,,,
glg,VDACtest,44,r,true,721.3999998569489,1,g,h,2,,,
glg,VDACtest,45,r,true,690.7000000476837,2,r,v,4,,,
glg,VDACtest,46,r,true,586.4000000953674,2,r,h,2,,,
glg,VDACtest,47,r,true,559.5999999046326,2,r,h,2,,,
glg,VDACtest,48,r,true,737.7999999523163,1,g,v,5,,,
glg,VDACtest,49,r,true,555.7000000476837,1,g,v,3,,,
glg,VDACtest,50,r,true,745.8999998569489,2,r,v,0,,,
brk,brk,brk,brk,brk,brk,brk,brk,brk,brk,brk,brk,
glg,VDACtest,51,r,true,690.0999999046326,2,r,v,4,,,
glg,VDACtest,52,r,true,754.7999999523163,2,r,h,1,,,
glg,VDACtest,53,r,true,659.9000000953674,1,g,v,1,,,
glg,VDACtest,54,r,true,737.3999998569489,1,g,h,0,,,
glg,VDACtest,55,r,true,600.6999998092651,1,g,h,3,,,
glg,VDACtest,56,r,true,795.2000000476837,1,g,h,0,,,
glg,VDACtest,57,r,true,697.2000000476837,1,g,h,5,,,
glg,VDACtest,58,r,true,781,2,r,h,2,,,
glg,VDACtest,59,r,true,703.3999998569489,1,g,h,0,,,
glg,VDACtest,60,r,true,593.1000001430511,2,r,h,3,,,
glg,VDACtest,61,r,true,954.5,1,g,v,3,,,
glg,VDACtest,62,r,true,688.2999999523163,1,g,h,0,,,
glg,VDACtest,63,r,true,682.4000000953674,2,r,v,5,,,
glg,VDACtest,64,r,true,586.4000000953674,1,g,h,2,,,
glg,VDACtest,65,r,true,633,1,g,v,0,,,
glg,VDACtest,66,r,true,603.8999998569489,1,g,v,3,,,
glg,VDACtest,67,r,true,713.7000000476837,1,g,v,5,,,
glg,VDACtest,68,r,true,688.5999999046326,2,r,h,0,,,
glg,VDACtest,69,r,true,561.9000000953674,2,r,h,5,,,
glg,VDACtest,70,r,true,642.5,2,r,h,4,,,
glg,VDACtest,71,r,true,648.8000001907349,2,r,h,4,,,
glg,VDACtest,72,r,true,778.4000000953674,2,r,v,2,,,
glg,VDACtest,73,r,true,594.4000000953674,2,r,v,1,,,
glg,VDACtest,74,r,true,601,2,r,v,2,,,
glg,VDACtest,75,r,true,705.2000000476837,2,r,h,4,,,
glg,VDACtest,76,r,true,784.8999998569489,2,r,v,3,,,
glg,VDACtest,77,r,true,567.7999999523163,1,g,v,4,,,
glg,VDACtest,78,r,true,664.7999999523163,2,r,h,5,,,
glg,VDACtest,79,r,true,657.9000000953674,2,r,h,3,,,
glg,VDACtest,80,r,true,672.6000001430511,1,g,v,1,,,
glg,VDACtest,81,r,true,625.6000001430511,1,g,h,1,,,
glg,VDACtest,82,r,false,881.5,1,g,v,1,,,
glg,VDACtest,83,r,false,798.7999999523163,2,r,v,3,,,
glg,VDACtest,84,r,false,497.2999999523163,1,g,v,4,,,
glg,VDACtest,85,r,true,695.2999999523163,1,g,h,1,,,
glg,VDACtest,86,r,true,600.3999998569489,2,r,h,4,,,
glg,VDACtest,87,r,true,562,1,g,h,3,,,
glg,VDACtest,88,r,true,675,1,g,h,4,,,
glg,VDACtest,89,r,true,778,2,r,v,2,,,
glg,VDACtest,90,r,true,682.3999998569489,1,g,h,1,,,
glg,VDACtest,91,r,true,602.2999999523163,2,r,v,4,,,
glg,VDACtest,92,r,true,714,2,r,h,3,,,
glg,VDACtest,93,r,true,785.3000001907349,2,r,v,1,,,
glg,VDACtest,94,r,true,769,2,r,v,0,,,
glg,VDACtest,95,r,true,474,1,g,v,0,,,
glg,VDACtest,96,r,true,464.60000014305115,2,r,v,0,,,
glg,VDACtest,97,r,true,466.7000000476837,1,g,v,2,,,
glg,VDACtest,98,r,true,649.8999998569489,2,r,h,0,,,
glg,VDACtest,99,r,true,488.60000014305115,2,r,v,3,,,
glg,VDACtest,100,r,true,473.90000009536743,2,r,h,3,,,
brk,brk,brk,brk,brk,brk,brk,brk,brk,brk,brk,brk,
glg,VDACtest,101,r,true,620.2999999523163,2,r,v,3,,,
glg,VDACtest,102,r,true,478.59999990463257,2,r,v,2,,,
glg,VDACtest,103,r,true,562.2000000476837,1,g,v,2,,,
glg,VDACtest,104,r,true,561.5,2,r,v,1,,,
glg,VDACtest,105,r,true,466.09999990463257,1,g,v,4,,,
glg,VDACtest,106,r,true,401.10000014305115,2,r,v,4,,,
glg,VDACtest,107,r,true,457.7999999523163,2,r,v,2,,,
glg,VDACtest,108,r,true,551.8999998569489,1,g,h,3,,,
glg,VDACtest,109,r,true,643.2000000476837,2,r,h,2,,,
glg,VDACtest,110,r,true,610.5,1,g,h,0,,,
glg,VDACtest,111,r,true,530.5999999046326,1,g,h,5,,,
glg,VDACtest,112,r,true,481.5,1,g,v,3,,,
glg,VDACtest,113,r,true,498.2999999523163,2,r,h,1,,,
glg,VDACtest,114,r,true,529.5,2,r,v,5,,,
glg,VDACtest,115,r,true,521.5,1,g,h,5,,,
glg,VDACtest,116,r,true,458.39999985694885,1,g,v,4,,,
glg,VDACtest,117,r,true,695.9000000953674,1,g,h,4,,,
glg,VDACtest,118,r,true,721.7999999523163,1,g,v,2,,,
glg,VDACtest,119,r,true,857.5,2,r,h,2,,,
glg,VDACtest,120,r,true,579.5,1,g,h,5,,,
glg,VDACtest,121,r,true,561.4000000953674,2,r,h,1,,,
glg,VDACtest,122,r,true,578,2,r,v,1,,,
glg,VDACtest,123,r,true,554.8000001907349,1,g,h,5,,,
glg,VDACtest,124,r,true,721.1000001430511,2,r,v,3,,,
glg,VDACtest,125,r,true,825.5,1,g,v,5,,,
glg,VDACtest,126,r,true,417.10000014305115,2,r,v,5,,,
glg,VDACtest,127,r,true,665.6000001430511,2,r,h,4,,,
glg,VDACtest,128,r,true,674.7000000476837,1,g,h,0,,,
glg,VDACtest,129,r,true,681.5999999046326,2,r,v,0,,,
glg,VDACtest,130,r,true,674.7000000476837,2,r,h,4,,,
glg,VDACtest,131,r,true,794.9000000953674,1,g,v,2,,,
glg,VDACtest,132,r,true,592.0999999046326,2,r,h,1,,,
glg,VDACtest,133,r,true,514.0999999046326,1,g,h,2,,,
glg,VDACtest,134,r,true,706.8000001907349,2,r,v,1,,,
glg,VDACtest,135,r,null,null,2,r,v,5,,,
glg,VDACtest,136,r,true,518.1000001430511,1,g,h,5,,,
glg,VDACtest,137,r,true,563.8999998569489,1,g,h,4,,,
glg,VDACtest,138,r,true,723,2,r,v,0,,,
glg,VDACtest,139,r,true,465.5,2,r,v,1,,,
glg,VDACtest,140,r,true,459.10000014305115,2,r,v,1,,,
glg,VDACtest,141,r,true,826.5,1,g,h,2,,,
glg,VDACtest,142,r,true,522.8000001907349,1,g,h,1,,,
glg,VDACtest,143,r,true,498.69999980926514,2,r,v,3,,,
glg,VDACtest,144,r,true,520.3999998569489,1,g,h,1,,,
glg,VDACtest,145,r,true,696.7000000476837,2,r,h,0,,,
glg,VDACtest,146,r,true,644.8999998569489,1,g,h,1,,,
glg,VDACtest,147,r,true,466.59999990463257,2,r,v,4,,,
glg,VDACtest,148,r,true,455.39999985694885,1,g,h,1,,,
glg,VDACtest,149,r,true,473.2999999523163,1,g,v,0,,,
glg,VDACtest,150,r,true,457.60000014305115,1,g,v,1,,,
brk,brk,brk,brk,brk,brk,brk,brk,brk,brk,brk,brk,
glg,VDACtest,151,r,true,787.2000000476837,1,g,h,4,,,
glg,VDACtest,152,r,true,540.5,2,r,h,0,,,
glg,VDACtest,153,r,true,537.3999998569489,2,r,h,0,,,
glg,VDACtest,154,r,false,595.0999999046326,1,g,v,2,,,
glg,VDACtest,155,r,true,385.59999990463257,1,g,v,2,,,
glg,VDACtest,156,r,true,674.7999999523163,1,g,h,5,,,
glg,VDACtest,157,r,true,522.2000000476837,1,g,h,3,,,
glg,VDACtest,158,r,true,481,2,r,v,4,,,
glg,VDACtest,159,r,true,615.8999998569489,1,g,v,3,,,
glg,VDACtest,160,r,true,514.2999999523163,1,g,v,0,,,
glg,VDACtest,161,r,true,680.0999999046326,2,r,h,1,,,
glg,VDACtest,162,r,true,517.4000000953674,1,g,v,5,,,
glg,VDACtest,163,r,true,482,1,g,v,0,,,
glg,VDACtest,164,r,true,633,2,r,v,3,,,
glg,VDACtest,165,r,true,497.2000000476837,1,g,v,3,,,
glg,VDACtest,166,r,true,553.6000001430511,2,r,v,1,,,
glg,VDACtest,167,r,true,513.9000000953674,1,g,v,0,,,
glg,VDACtest,168,r,true,681.5999999046326,1,g,h,3,,,
glg,VDACtest,169,r,true,602.2999999523163,2,r,h,2,,,
glg,VDACtest,170,r,true,593.2000000476837,2,r,h,4,,,
glg,VDACtest,171,r,true,577.6000001430511,2,r,v,0,,,
glg,VDACtest,172,r,true,466.09999990463257,1,g,v,4,,,
glg,VDACtest,173,r,true,521.8999998569489,1,g,v,1,,,
glg,VDACtest,174,r,true,519.7000000476837,1,g,v,1,,,
glg,VDACtest,175,r,true,474,1,g,v,5,,,
glg,VDACtest,176,r,true,489.90000009536743,1,g,v,2,,,
glg,VDACtest,177,r,true,512.5,2,r,h,1,,,
glg,VDACtest,178,r,true,465.10000014305115,2,r,h,2,,,
glg,VDACtest,179,r,true,447,2,r,h,3,,,
glg,VDACtest,180,r,true,552.7999999523163,2,r,v,2,,,
glg,VDACtest,181,r,false,666.9000000953674,1,g,v,1,,,
glg,VDACtest,182,r,true,663.8999998569489,2,r,h,4,,,
glg,VDACtest,183,r,true,548,1,g,v,1,,,
glg,VDACtest,184,r,true,762.9000000953674,1,g,h,4,,,
glg,VDACtest,185,r,true,601.5,2,r,h,5,,,
glg,VDACtest,186,r,true,899,1,g,v,5,,,
glg,VDACtest,187,r,true,554.7000000476837,2,r,v,4,,,
glg,VDACtest,188,r,true,760.9000000953674,2,r,h,0,,,
glg,VDACtest,189,r,true,536.6000001430511,1,g,v,0,,,
glg,VDACtest,190,r,true,483.2999999523163,1,g,h,0,,,
glg,VDACtest,191,r,true,569,2,r,v,4,,,
glg,VDACtest,192,r,true,564.1000001430511,1,g,h,5,,,
glg,VDACtest,193,r,true,595,2,r,h,4,,,
glg,VDACtest,194,r,true,481.60000014305115,1,g,h,3,,,
glg,VDACtest,195,r,true,503.90000009536743,1,g,h,2,,,
glg,VDACtest,196,r,true,538.9000000953674,2,r,h,0,,,
glg,VDACtest,197,r,true,649.0999999046326,2,r,h,5,,,
glg,VDACtest,198,r,true,610.3999998569489,2,r,v,2,,,
glg,VDACtest,199,r,true,738.1999998092651,1,g,v,2,,,
glg,VDACtest,200,r,true,640.7999999523163,1,g,h,4,,,
glg,RSVPtrain,0,r,null,null,2,r,,3,2,1,
glg,RSVPtrain,0,r,true,395.10000014305115,0,b,,0,3,0,
glg,RSVPtrain,0,r,false,1077,2,r,,0,0,2,
glg,RSVPtrain,0,r,true,1115.8999998569489,1,g,,2,2,2,
glg,RSVPtrain,0,r,false,1474.6999998092651,2,r,,1,1,2,
glg,RSVPtrain,0,r,true,1285.4000000953674,0,b,,1,3,0,
glg,RSVPtrain,0,r,true,1250,0,b,,3,3,0,
glg,RSVPtrain,0,r,false,1005.5999999046326,1,g,,3,0,1,
glg,RSVPtrain,0,r,false,1483,1,g,,3,1,1,
glg,RSVPtrain,0,r,true,1525.5,1,g,,1,0,1,
glg,RSVPtest,1,r,false,999,2,r,,3,1,1,
glg,RSVPtest,2,r,true,1404.7000000476837,0,b,,0,3,0,
glg,RSVPtest,3,r,true,1161.5,1,g,,2,1,1,
glg,RSVPtest,4,r,true,947.5,2,r,,0,0,2,
glg,RSVPtest,5,r,false,1331.2999999523163,1,g,,0,2,1,
glg,RSVPtest,6,r,false,1763.3999998569489,1,g,,3,2,1,
glg,RSVPtest,7,r,false,1122.6000001430511,2,r,,3,1,1,
glg,RSVPtest,8,r,true,1097.1999998092651,0,b,,1,3,0,
glg,RSVPtest,9,r,true,1381,0,b,,3,3,0,
glg,RSVPtest,10,r,true,1267.9000000953674,2,r,,2,1,1,
glg,RSVPtest,11,r,true,1388.7999999523163,2,r,,3,1,1,
glg,RSVPtest,12,r,true,1001.8999998569489,2,r,,1,0,1,
glg,RSVPtest,13,r,false,2035.0999999046326,1,g,,3,2,1,
glg,RSVPtest,14,r,true,1449.2000000476837,0,b,,3,3,0,
glg,RSVPtest,15,r,true,1145.2000000476837,1,g,,0,1,1,
glg,RSVPtest,16,r,true,1844.5999999046326,1,g,,3,1,1,
glg,RSVPtest,17,r,false,1752.2000000476837,0,b,,0,3,0,
glg,RSVPtest,18,r,true,1196.3999998569489,0,b,,3,3,0,
glg,RSVPtest,19,r,false,1459.5,0,b,,1,3,0,
glg,RSVPtest,20,r,false,780.2000000476837,1,g,,3,2,1,
glg,RSVPtest,21,r,false,581.3999998569489,2,r,,0,2,1,
glg,RSVPtest,22,r,true,1180.3000001907349,2,r,,0,2,1,
glg,RSVPtest,23,r,true,1004,1,g,,0,2,1,
glg,RSVPtest,24,r,true,836,0,b,,3,3,0,
glg,RSVPtest,25,r,false,1685.7999999523163,1,g,,3,1,1,
glg,RSVPtest,26,r,true,1860.1000001430511,1,g,,1,0,1,
glg,RSVPtest,27,r,false,1941.0999999046326,1,g,,0,0,2,
glg,RSVPtest,28,r,true,1869,2,r,,3,2,1,
glg,RSVPtest,29,r,true,881.8999998569489,0,b,,3,3,0,
glg,RSVPtest,30,r,true,1316.2999999523163,1,g,,0,2,1,
glg,RSVPtest,31,r,false,2004.0999999046326,0,b,,2,3,0,
glg,RSVPtest,32,r,true,1178.9000000953674,1,g,,0,0,2,
glg,RSVPtest,33,r,true,1250.3999998569489,1,g,,1,1,2,
glg,RSVPtest,34,r,false,1299.2000000476837,1,g,,2,2,2,
glg,RSVPtest,35,r,true,990.7000000476837,0,b,,2,3,0,
glg,RSVPtest,36,r,true,2445,0,b,,3,3,0,
glg,RSVPtest,37,r,true,538.7999999523163,2,r,,2,0,1,
glg,RSVPtest,38,r,false,939.1000001430511,2,r,,1,1,2,
glg,RSVPtest,39,r,true,843.9000000953674,2,r,,3,1,1,
glg,RSVPtest,40,r,true,1082.9000000953674,0,b,,0,3,0,
glg,RSVPtest,41,r,true,1317.6999998092651,2,r,,1,2,1,
glg,RSVPtest,42,r,true,841.6999998092651,1,g,,2,1,1,
glg,RSVPtest,43,r,false,762.4000000953674,2,r,,2,2,2,
glg,RSVPtest,44,r,true,1795.2000000476837,1,g,,2,1,1,
glg,RSVPtest,45,r,false,1570.8999998569489,1,g,,1,2,1,
glg,RSVPtest,46,r,true,1018.7000000476837,0,b,,0,3,0,
glg,RSVPtest,47,r,false,917.5,1,g,,3,1,1,
glg,RSVPtest,48,r,true,1080.2999999523163,2,r,,0,1,1,
glg,RSVPtest,49,r,true,940.2999999523163,2,r,,1,1,2,
glg,RSVPtest,50,r,true,1011.3999998569489,1,g,,3,0,1,
glg,RSVPtest,51,r,null,null,0,b,,3,3,0,
glg,RSVPtest,52,r,false,278,2,r,,3,1,1,
glg,RSVPtest,53,r,true,588.9000000953674,1,g,,2,2,2,
glg,RSVPtest,54,r,true,875.2999999523163,2,r,,0,1,1,
glg,RSVPtest,55,r,true,1058.7000000476837,1,g,,2,2,2,
glg,RSVPtest,56,r,true,1044.5,1,g,,0,0,2,
glg,RSVPtest,57,r,false,915.0999999046326,2,r,,3,0,1,
glg,RSVPtest,58,r,true,900.5999999046326,1,g,,1,0,1,
glg,RSVPtest,59,r,true,1226.2999999523163,0,b,,1,3,0,
glg,RSVPtest,60,r,true,1290.5999999046326,1,g,,3,0,1,
brk,brk,brk,brk,brk,brk,brk,brk,brk,brk,brk,brk,
glg,RSVPtest,61,r,true,1352,1,g,,3,1,1,
glg,RSVPtest,62,r,true,803.6000001430511,1,g,,3,2,1,
glg,RSVPtest,63,r,true,1555.8999998569489,0,b,,1,3,0,
glg,RSVPtest,64,r,true,916.5999999046326,1,g,,3,1,1,
glg,RSVPtest,65,r,true,1787.3999998569489,1,g,,3,2,1,
glg,RSVPtest,66,r,true,1298,1,g,,3,1,1,
glg,RSVPtest,67,r,true,1771.9000000953674,1,g,,3,0,1,
glg,RSVPtest,68,r,true,1547.1000001430511,1,g,,1,1,2,
glg,RSVPtest,69,r,true,1552.9000000953674,1,g,,0,0,2,
glg,RSVPtest,70,r,true,1508.2000000476837,2,r,,3,0,1,
glg,RSVPtest,71,r,true,1003.7999999523163,0,b,,0,3,0,
glg,RSVPtest,72,r,false,1634.4000000953674,0,b,,3,3,0,
glg,RSVPtest,73,r,false,1354.8000001907349,2,r,,1,2,1,
glg,RSVPtest,74,r,true,1322.7999999523163,2,r,,1,0,1,
glg,RSVPtest,75,r,true,2130.600000143051,2,r,,3,2,1,
glg,RSVPtest,76,r,false,1834.7999999523163,0,b,,3,3,0,
glg,RSVPtest,77,r,true,952.5,2,r,,2,0,1,
glg,RSVPtest,78,r,true,952.5,0,b,,0,3,0,
glg,RSVPtest,79,r,true,1448.9000000953674,1,g,,3,0,1,
glg,RSVPtest,80,r,true,1362,2,r,,2,2,2,
glg,RSVPtest,81,r,false,1146.5,0,b,,1,3,0,
glg,RSVPtest,82,r,false,1258.2000000476837,1,g,,3,2,1,
glg,RSVPtest,83,r,true,906.5,0,b,,1,3,0,
glg,RSVPtest,84,r,true,777.5,1,g,,0,1,1,
glg,RSVPtest,85,r,true,1861,2,r,,3,1,1,
glg,RSVPtest,86,r,true,600.0999999046326,2,r,,1,2,1,
glg,RSVPtest,87,r,true,1098.8000001907349,0,b,,0,3,0,
glg,RSVPtest,88,r,true,643.2999999523163,2,r,,1,1,2,
glg,RSVPtest,89,r,null,null,0,b,,2,3,0,
glg,RSVPtest,90,r,null,null,1,g,,1,2,1,
glg,RSVPtest,91,r,false,339.2000000476837,1,g,,3,0,1,
glg,RSVPtest,92,r,true,1042.5999999046326,2,r,,0,1,1,
glg,RSVPtest,93,r,true,1538.1999998092651,1,g,,2,2,2,
glg,RSVPtest,94,r,true,1081.5,2,r,,3,0,1,
glg,RSVPtest,95,r,false,1538.7999999523163,1,g,,1,0,1,
glg,RSVPtest,96,r,true,697.4000000953674,2,r,,2,2,2,
glg,RSVPtest,97,r,true,665.5,2,r,,2,1,1,
glg,RSVPtest,98,r,false,1963,0,b,,3,3,0,
glg,RSVPtest,99,r,true,1819.4000000953674,0,b,,3,3,0,
glg,RSVPtest,100,r,true,1620.6000001430511,2,r,,0,0,2,
glg,RSVPtest,101,r,false,1762.5,2,r,,0,1,1,
glg,RSVPtest,102,r,null,null,0,b,,0,3,0,
glg,RSVPtest,103,r,true,997.8999998569489,2,r,,3,0,1,
glg,RSVPtest,104,r,true,450,2,r,,3,0,1,
glg,RSVPtest,105,r,null,null,1,g,,2,0,1,
glg,RSVPtest,106,r,true,943.4000000953674,2,r,,0,1,1,
glg,RSVPtest,107,r,null,null,2,r,,0,1,1,
glg,RSVPtest,108,r,false,262.09999990463257,0,b,,1,3,0,
glg,RSVPtest,109,r,true,697.9000000953674,2,r,,2,2,2,
glg,RSVPtest,110,r,false,751.0999999046326,2,r,,3,0,1,
glg,RSVPtest,111,r,true,985.2000000476837,0,b,,2,3,0,
glg,RSVPtest,112,r,true,788.0999999046326,1,g,,3,2,1,
glg,RSVPtest,113,r,true,833.2999999523163,2,r,,1,1,2,
glg,RSVPtest,114,r,true,771.6000001430511,0,b,,0,3,0,
glg,RSVPtest,115,r,false,618,1,g,,1,1,2,
glg,RSVPtest,116,r,false,1154,1,g,,3,2,1,
glg,RSVPtest,117,r,true,1521.2000000476837,2,r,,3,1,1,
glg,RSVPtest,118,r,null,null,2,r,,3,1,1,
glg,RSVPtest,119,r,false,380.40000009536743,2,r,,2,2,2,
glg,RSVPtest,120,r,true,315.80000019073486,2,r,,2,0,1,
brk,brk,brk,brk,brk,brk,brk,brk,brk,brk,brk,brk,
glg,RSVPtest,121,r,true,969.2999999523163,0,b,,2,3,0,
glg,RSVPtest,122,r,false,1032.5999999046326,1,g,,2,0,1,
glg,RSVPtest,123,r,true,794.5,0,b,,3,3,0,
glg,RSVPtest,124,r,true,706.3000001907349,2,r,,0,0,2,
glg,RSVPtest,125,r,true,1065,2,r,,0,2,1,
glg,RSVPtest,126,r,true,744.1000001430511,1,g,,0,2,1,
glg,RSVPtest,127,r,true,711.9000000953674,1,g,,2,0,1,
glg,RSVPtest,128,r,false,1146,1,g,,2,1,1,
glg,RSVPtest,129,r,true,736.0999999046326,1,g,,0,0,2,
glg,RSVPtest,130,r,true,1090.7000000476837,1,g,,1,1,2,
glg,RSVPtest,131,r,true,835.1999998092651,1,g,,1,2,1,
glg,RSVPtest,132,r,false,1023.6000001430511,1,g,,1,2,1,
glg,RSVPtest,133,r,true,1050.5,1,g,,3,1,1,
glg,RSVPtest,134,r,true,896.7999999523163,2,r,,3,2,1,
glg,RSVPtest,135,r,false,1130.5,1,g,,3,0,1,
glg,RSVPtest,136,r,true,976.7000000476837,0,b,,3,3,0,
glg,RSVPtest,137,r,true,920.0999999046326,0,b,,2,3,0,
glg,RSVPtest,138,r,true,826.8000001907349,2,r,,0,2,1,
glg,RSVPtest,139,r,true,1243,2,r,,3,2,1,
glg,RSVPtest,140,r,false,872.2999999523163,2,r,,1,0,1,
glg,RSVPtest,141,r,true,850.2999999523163,1,g,,3,2,1,
glg,RSVPtest,142,r,false,1279.2999999523163,1,g,,0,1,1,
glg,RSVPtest,143,r,false,971.2000000476837,0,b,,2,3,0,
glg,RSVPtest,144,r,true,960.7999999523163,2,r,,2,1,1,
glg,RSVPtest,145,r,true,1754.4000000953674,2,r,,3,0,1,
glg,RSVPtest,146,r,true,1033.2999999523163,2,r,,3,2,1,
glg,RSVPtest,147,r,true,1194.2999999523163,0,b,,1,3,0,
glg,RSVPtest,148,r,true,962.1999998092651,2,r,,3,2,1,
glg,RSVPtest,149,r,false,1385.5,2,r,,1,0,1,
glg,RSVPtest,150,r,true,936.9000000953674,1,g,,2,2,2,
glg,RSVPtest,151,r,true,1051.9000000953674,0,b,,1,3,0,
glg,RSVPtest,152,r,true,1121.2000000476837,2,r,,3,1,1,
glg,RSVPtest,153,r,true,1138.1000001430511,0,b,,3,3,0,
glg,RSVPtest,154,r,true,1584.7999999523163,1,g,,1,1,2,
glg,RSVPtest,155,r,true,1018,2,r,,1,0,1,
glg,RSVPtest,156,r,true,1090.3999998569489,0,b,,2,3,0,
glg,RSVPtest,157,r,false,865.1999998092651,1,g,,2,2,2,
glg,RSVPtest,158,r,true,937.7000000476837,2,r,,2,1,1,
glg,RSVPtest,159,r,true,1111.7999999523163,1,g,,3,0,1,
glg,RSVPtest,160,r,false,1143.5,1,g,,2,1,1,
glg,RSVPtest,161,r,true,881.8999998569489,2,r,,0,0,2,
glg,RSVPtest,162,r,true,1498.7000000476837,2,r,,3,1,1,
glg,RSVPtest,163,r,true,1208.7000000476837,2,r,,2,2,2,
glg,RSVPtest,164,r,true,1160,2,r,,1,2,1,
glg,RSVPtest,165,r,false,1577.7999999523163,1,g,,2,0,1,
glg,RSVPtest,166,r,true,1143.0999999046326,0,b,,0,3,0,
glg,RSVPtest,167,r,false,1272.0999999046326,1,g,,3,1,1,
glg,RSVPtest,168,r,true,989.7999999523163,2,r,,1,2,1,
glg,RSVPtest,169,r,true,1064.2999999523163,0,b,,3,3,0,
glg,RSVPtest,170,r,true,1273.2999999523163,0,b,,2,3,0,
glg,RSVPtest,171,r,true,904.1999998092651,0,b,,2,3,0,
glg,RSVPtest,172,r,true,1055,2,r,,3,0,1,
glg,RSVPtest,173,r,false,1287.1000001430511,0,b,,3,3,0,
glg,RSVPtest,174,r,true,1327.1999998092651,1,g,,2,1,1,
glg,RSVPtest,175,r,true,1409.5999999046326,2,r,,3,2,1,
glg,RSVPtest,176,r,true,1169.1000001430511,0,b,,3,3,0,
glg,RSVPtest,177,r,true,863.9000000953674,2,r,,3,0,1,
glg,RSVPtest,178,r,false,968.6000001430511,1,g,,0,0,2,
glg,RSVPtest,179,r,false,802.2999999523163,2,r,,3,0,1,
glg,RSVPtest,180,r,true,984.0999999046326,1,g,,3,0,1,
brk,brk,brk,brk,brk,brk,brk,brk,brk,brk,brk,brk,
glg,RSVPtest,181,r,false,996.5,1,g,,0,2,1,
glg,RSVPtest,182,r,true,992.5999999046326,1,g,,1,0,1,
glg,RSVPtest,183,r,false,1048.2999999523163,1,g,,1,2,1,
glg,RSVPtest,184,r,true,975.6000001430511,2,r,,0,2,1,
glg,RSVPtest,185,r,true,936,0,b,,1,3,0,
glg,RSVPtest,186,r,true,936.8999998569489,0,b,,1,3,0,
glg,RSVPtest,187,r,true,1105.1000001430511,1,g,,3,2,1,
glg,RSVPtest,188,r,true,1185.0999999046326,1,g,,3,2,1,
glg,RSVPtest,189,r,false,1377.7999999523163,2,r,,2,1,1,
glg,RSVPtest,190,r,true,1184.7000000476837,1,g,,3,1,1,
glg,RSVPtest,191,r,false,962.5,2,r,,2,1,1,
glg,RSVPtest,192,r,true,1313.5,1,g,,0,1,1,
glg,RSVPtest,193,r,true,1264.3000001907349,0,b,,3,3,0,
glg,RSVPtest,194,r,true,1042.2999999523163,1,g,,3,0,1,
glg,RSVPtest,195,r,true,1053.7999999523163,0,b,,3,3,0,
glg,RSVPtest,196,r,false,1222.5,1,g,,0,1,1,
glg,RSVPtest,197,r,true,1880.6000001430511,2,r,,3,2,1,
glg,RSVPtest,198,r,false,1207.6000001430511,0,b,,2,3,0,
glg,RSVPtest,199,r,true,1184.5,2,r,,3,1,1,
glg,RSVPtest,200,r,true,1414.9000000953674,0,b,,2,3,0,
glg,RSVPtest,201,r,false,1896.3999998569489,0,b,,1,3,0,
glg,RSVPtest,202,r,true,967.7000000476837,1,g,,0,2,1,
glg,RSVPtest,203,r,false,871.9000000953674,2,r,,1,1,2,
glg,RSVPtest,204,r,true,959.3999998569489,2,r,,0,0,2,
glg,RSVPtest,205,r,false,359.90000009536743,2,r,,1,0,1,
glg,RSVPtest,206,r,false,1448.6000001430511,2,r,,1,1,2,
glg,RSVPtest,207,r,true,1120.2999999523163,2,r,,3,2,1,
glg,RSVPtest,208,r,false,1023.5,1,g,,1,1,2,
glg,RSVPtest,209,r,true,1072.2999999523163,0,b,,3,3,0,
glg,RSVPtest,210,r,true,1169.8000001907349,2,r,,2,0,1,
glg,RSVPtest,211,r,true,1145.4000000953674,2,r,,3,2,1,
glg,RSVPtest,212,r,true,1240.6000001430511,1,g,,3,1,1,
glg,RSVPtest,213,r,true,1527.7999999523163,1,g,,0,1,1,
glg,RSVPtest,214,r,true,1336.5,2,r,,0,0,2,
glg,RSVPtest,215,r,true,1744.7000000476837,0,b,,3,3,0,
glg,RSVPtest,216,r,true,1833,0,b,,0,3,0,
glg,RSVPtest,217,r,true,1609.7000000476837,2,r,,0,2,1,
glg,RSVPtest,218,r,true,1569,2,r,,3,0,1,
glg,RSVPtest,219,r,false,1553,0,b,,3,3,0,
glg,RSVPtest,220,r,true,1062.9000000953674,1,g,,1,0,1,
glg,RSVPtest,221,r,true,1503.1000001430511,0,b,,3,3,0,
glg,RSVPtest,222,r,false,1222.7999999523163,2,r,,2,0,1,
glg,RSVPtest,223,r,true,1329,2,r,,2,0,1,
glg,RSVPtest,224,r,true,1160.8000001907349,2,r,,1,2,1,
glg,RSVPtest,225,r,true,983.6000001430511,1,g,,3,2,1,
glg,RSVPtest,226,r,true,1031.3000001907349,2,r,,3,0,1,
glg,RSVPtest,227,r,true,1241.5,2,r,,3,2,1,
glg,RSVPtest,228,r,true,1119.7999999523163,2,r,,3,2,1,
glg,RSVPtest,229,r,false,1648.2999999523163,1,g,,1,2,1,
glg,RSVPtest,230,r,true,1484.5,1,g,,2,0,1,
glg,RSVPtest,231,r,true,1344.6000001430511,1,g,,3,0,1,
glg,RSVPtest,232,r,true,1014.5999999046326,1,g,,3,1,1,
glg,RSVPtest,233,r,true,983.3000001907349,1,g,,3,0,1,
glg,RSVPtest,234,r,true,1200.2000000476837,0,b,,3,3,0,
glg,RSVPtest,235,r,true,1025.1000001430511,2,r,,3,1,1,
glg,RSVPtest,236,r,false,1204.6000001430511,0,b,,0,3,0,
glg,RSVPtest,237,r,true,933.5,1,g,,1,0,1,
glg,RSVPtest,238,r,true,870.0999999046326,1,g,,3,0,1,
glg,RSVPtest,239,r,true,1006.2999999523163,1,g,,2,0,1,
glg,RSVPtest,240,r,false,1733.4000000953674,1,g,,3,1,1,
