"success","trial_type","trial_index","time_elapsed","internal_node_id","subject","condition","view_history","rt","stimulus","response","trialType","tgtCol","colPos","tgtPos","correct","question_order"
"true","fullscreen","0","2196","0.0-0.0","jn8","[""r""]","","","","","","","","","",""
"","instructions","1","71295","0.0-1.0-0.0","jn8","[""r""]","[{""page_index"":0,""viewing_time"":45739},{""page_index"":1,""viewing_time"":9644.700000047684},{""page_index"":2,""viewing_time"":3624},{""page_index"":3,""viewing_time"":10088.200000047684}]","69096.40000009537","","","","","","","",""
"","html-keyboard-response","2","71728","0.0-1.0-1.0-0.0","jn8","[""r""]","","null","<svg viewBox=""0 0 100 100"" > <path d=""M 50 52 L 50 48"" stroke=""black"" stroke-width="".5""/> <path d=""M 52 50 L 48 50"" stroke=""black"" stroke-width="".5""/>","null","","","","","",""
"","html-keyboard-response","3","72482","0.0-1.0-1.0-1.0-0.0","jn8","[""r""]","","null","[""<svg viewBox=\""0 0 100 100\"" >"",""<path d=\""M 50 52 L 50 48\"" stroke=\""black\"" stroke-width=\"".5\""/>"",""<path d=\""M 52 50 L 48 50\"" stroke=\""black\"" stroke-width=\"".5\""/>"",""text"",""<text dominant-baseline=\""middle\"" x=\""50\"" y=\""50\"" fill=black transform=\""translate(0 30)\"" class=\""bacs1\"">r</text>"",""<text dominant-baseline=\""middle\"" x=\""50\"" y=\""50\"" fill=black transform=\""translate(-26 -15)\"" class=\""bacs2\"">Z</text>"",""<text dominant-baseline=\""middle\"" x=\""50\"" y=\""50\"" fill=lime transform=\""translate(26 -15)\"" class=\""bacs2\"">D</text>"",""</svg>""]","null","","","","","",""
"","html-keyboard-response","4","72734","0.0-1.0-1.0-1.0-1.0","jn8","[""r""]","","null","<svg viewBox=""0 0 100 100"" > <path d=""M 50 52 L 50 48"" stroke=""black"" stroke-width="".5""/> <path d=""M 52 50 L 48 50"" stroke=""black"" stroke-width="".5""/>","null","","","","","",""
"","html-keyboard-response","5","72837","0.0-1.0-1.0-1.0-2.0","jn8","[""r""]","","null","[""<svg viewBox=\""0 0 100 100\"" >"",""<path d=\""M 50 52 L 50 48\"" stroke=\""black\"" stroke-width=\"".5\""/>"",""<path d=\""M 52 50 L 48 50\"" stroke=\""black\"" stroke-width=\"".5\""/>"",""<text dominant-baseline=\""middle\"" text-anchor= \""middle\"" x=\""50\"" y=\""50\"" fill=\""black\"" transform=\""translate(0 30)\"">X</text><text dominant-baseline=\""middle\"" text-anchor= \""middle\"" x=\""50\"" y=\""50\"" fill=\""black\"" transform=\""translate(5 30)\"">X</text><text dominant-baseline=\""middle\"" text-anchor= \""middle\"" x=\""50\"" y=\""50\"" fill=\""black\"" transform=\""translate(-5 30)\"">X</text>"",""<text dominant-baseline=\""middle\"" text-anchor= \""middle\"" x=\""50\"" y=\""50\"" fill=\""black\"" transform=\""translate(-26 -15)\"">X</text><text dominant-baseline=\""middle\"" text-anchor= \""middle\"" x=\""50\"" y=\""50\"" fill=\""black\"" transform=\""translate(-21 -15)\"">X</text><text dominant-baseline=\""middle\"" text-anchor= \""middle\"" x=\""50\"" y=\""50\"" fill=\""black\"" transform=\""translate(-31 -15)\"">X</text>"",""<text dominant-baseline=\""middle\"" text-anchor= \""middle\"" x=\""50\"" y=\""50\"" fill=\""black\"" transform=\""translate(26 -15)\"">X</text><text dominant-baseline=\""middle\"" text-anchor= \""middle\"" x=\""50\"" y=\""50\"" fill=\""black\"" transform=\""translate(31 -15)\"">X</text><text dominant-baseline=\""middle\"" text-anchor= \""middle\"" x=\""50\"" y=\""50\"" fill=\""black\"" transform=\""translate(21 -15)\"">X</text>"",""</svg>""]","null","","","","","",""
"","html-keyboard-response","6","73838","0.0-1.0-1.0-1.0-3.0","jn8","[""r""]","","null","<svg viewBox=""0 0 100 100"" > <path d=""M 50 52 L 50 48"" stroke=""black"" stroke-width="".5""/> <path d=""M 52 50 L 48 50"" stroke=""black"" stroke-width="".5""/>","null","","","","","",""
"","html-keyboard-response","7","74927","0.0-1.0-1.0-1.0-4.0","jn8","[""r""]","","1085.3999998569489","<svg viewBox=""0 0 100 100""><text dominant-baseline=""middle"" x=""50"" y=""50"" class=""bacs2"">D</text><text font-size=""10%"" text-anchor=""middle""  x=""50"" y=""75"">Press z for old or m for new</text>","z","RSVPtrain","g","2","2","true",""
"","html-keyboard-response","8","77431","0.0-1.0-1.0-2.0","jn8","[""r""]","","null","<p style=""font-size:300%;"">Correct!</p>","null","","","","","",""
"","html-keyboard-response","9","78861","0.0-1.0-1.0-0.1","jn8","[""r""]","","null","<svg viewBox=""0 0 100 100"" > <path d=""M 50 52 L 50 48"" stroke=""black"" stroke-width="".5""/> <path d=""M 52 50 L 48 50"" stroke=""black"" stroke-width="".5""/>","null","","","","","",""
"","html-keyboard-response","10","79614","0.0-1.0-1.0-1.1-0.1","jn8","[""r""]","","null","[""<svg viewBox=\""0 0 100 100\"" >"",""<path d=\""M 50 52 L 50 48\"" stroke=\""black\"" stroke-width=\"".5\""/>"",""<path d=\""M 52 50 L 48 50\"" stroke=\""black\"" stroke-width=\"".5\""/>"",""text"",""<text dominant-baseline=\""middle\"" x=\""50\"" y=\""50\"" fill=black transform=\""translate(0 30)\"" class=\""bacs2\"">n</text>"",""<text dominant-baseline=\""middle\"" x=\""50\"" y=\""50\"" fill=red transform=\""translate(-26 -15)\"" class=\""bacs1\"">B</text>"",""<text dominant-baseline=\""middle\"" x=\""50\"" y=\""50\"" fill=black transform=\""translate(26 -15)\"" class=\""bacs1\"">J</text>"",""</svg>""]","null","","","","","",""
"","html-keyboard-response","11","79866","0.0-1.0-1.0-1.1-1.1","jn8","[""r""]","","null","<svg viewBox=""0 0 100 100"" > <path d=""M 50 52 L 50 48"" stroke=""black"" stroke-width="".5""/> <path d=""M 52 50 L 48 50"" stroke=""black"" stroke-width="".5""/>","null","","","","","",""
"","html-keyboard-response","12","79968","0.0-1.0-1.0-1.1-2.1","jn8","[""r""]","","null","[""<svg viewBox=\""0 0 100 100\"" >"",""<path d=\""M 50 52 L 50 48\"" stroke=\""black\"" stroke-width=\"".5\""/>"",""<path d=\""M 52 50 L 48 50\"" stroke=\""black\"" stroke-width=\"".5\""/>"",""<text dominant-baseline=\""middle\"" text-anchor= \""middle\"" x=\""50\"" y=\""50\"" fill=\""black\"" transform=\""translate(0 30)\"">X</text><text dominant-baseline=\""middle\"" text-anchor= \""middle\"" x=\""50\"" y=\""50\"" fill=\""black\"" transform=\""translate(5 30)\"">X</text><text dominant-baseline=\""middle\"" text-anchor= \""middle\"" x=\""50\"" y=\""50\"" fill=\""black\"" transform=\""translate(-5 30)\"">X</text>"",""<text dominant-baseline=\""middle\"" text-anchor= \""middle\"" x=\""50\"" y=\""50\"" fill=\""black\"" transform=\""translate(-26 -15)\"">X</text><text dominant-baseline=\""middle\"" text-anchor= \""middle\"" x=\""50\"" y=\""50\"" fill=\""black\"" transform=\""translate(-21 -15)\"">X</text><text dominant-baseline=\""middle\"" text-anchor= \""middle\"" x=\""50\"" y=\""50\"" fill=\""black\"" transform=\""translate(-31 -15)\"">X</text>"",""<text dominant-baseline=\""middle\"" text-anchor= \""middle\"" x=\""50\"" y=\""50\"" fill=\""black\"" transform=\""translate(26 -15)\"">X</text><text dominant-baseline=\""middle\"" text-anchor= \""middle\"" x=\""50\"" y=\""50\"" fill=\""black\"" transform=\""translate(31 -15)\"">X</text><text dominant-baseline=\""middle\"" text-anchor= \""middle\"" x=\""50\"" y=\""50\"" fill=\""black\"" transform=\""translate(21 -15)\"">X</text>"",""</svg>""]","null","","","","","",""
"","html-keyboard-response","13","80970","0.0-1.0-1.0-1.1-3.1","jn8","[""r""]","","null","<svg viewBox=""0 0 100 100"" > <path d=""M 50 52 L 50 48"" stroke=""black"" stroke-width="".5""/> <path d=""M 52 50 L 48 50"" stroke=""black"" stroke-width="".5""/>","null","","","","","",""
"","html-keyboard-response","14","81959","0.0-1.0-1.0-1.1-4.1","jn8","[""r""]","","986.2000000476837","<svg viewBox=""0 0 100 100""><text dominant-baseline=""middle"" x=""50"" y=""50"" class=""bacs1"">B</text><text font-size=""10%"" text-anchor=""middle""  x=""50"" y=""75"">Press z for old or m for new</text>","z","RSVPtrain","r","1","1","true",""
"","html-keyboard-response","15","84461","0.0-1.0-1.0-2.1","jn8","[""r""]","","null","<p style=""font-size:300%;"">Correct!</p>","null","","","","","",""
"","html-keyboard-response","16","85892","0.0-1.0-1.0-0.2","jn8","[""r""]","","null","<svg viewBox=""0 0 100 100"" > <path d=""M 50 52 L 50 48"" stroke=""black"" stroke-width="".5""/> <path d=""M 52 50 L 48 50"" stroke=""black"" stroke-width="".5""/>","null","","","","","",""
"","html-keyboard-response","17","86645","0.0-1.0-1.0-1.2-0.2","jn8","[""r""]","","null","[""<svg viewBox=\""0 0 100 100\"" >"",""<path d=\""M 50 52 L 50 48\"" stroke=\""black\"" stroke-width=\"".5\""/>"",""<path d=\""M 52 50 L 48 50\"" stroke=\""black\"" stroke-width=\"".5\""/>"",""text"",""<text dominant-baseline=\""middle\"" x=\""50\"" y=\""50\"" fill=black transform=\""translate(26 15)\"" class=\""bacs1\"">H</text>"",""<text dominant-baseline=\""middle\"" x=\""50\"" y=\""50\"" fill=lime transform=\""translate(-26 15)\"" class=\""bacs2\"">B</text>"",""<text dominant-baseline=\""middle\"" x=\""50\"" y=\""50\"" fill=black transform=\""translate(0 -30)\"" class=\""bacs2\"">e</text>"",""</svg>""]","null","","","","","",""
"","html-keyboard-response","18","86897","0.0-1.0-1.0-1.2-1.2","jn8","[""r""]","","null","<svg viewBox=""0 0 100 100"" > <path d=""M 50 52 L 50 48"" stroke=""black"" stroke-width="".5""/> <path d=""M 52 50 L 48 50"" stroke=""black"" stroke-width="".5""/>","null","","","","","",""
"","html-keyboard-response","19","86999","0.0-1.0-1.0-1.2-2.2","jn8","[""r""]","","null","[""<svg viewBox=\""0 0 100 100\"" >"",""<path d=\""M 50 52 L 50 48\"" stroke=\""black\"" stroke-width=\"".5\""/>"",""<path d=\""M 52 50 L 48 50\"" stroke=\""black\"" stroke-width=\"".5\""/>"",""<text dominant-baseline=\""middle\"" text-anchor= \""middle\"" x=\""50\"" y=\""50\"" fill=\""black\"" transform=\""translate(26 15)\"">X</text><text dominant-baseline=\""middle\"" text-anchor= \""middle\"" x=\""50\"" y=\""50\"" fill=\""black\"" transform=\""translate(31 15)\"">X</text><text dominant-baseline=\""middle\"" text-anchor= \""middle\"" x=\""50\"" y=\""50\"" fill=\""black\"" transform=\""translate(21 15)\"">X</text>"",""<text dominant-baseline=\""middle\"" text-anchor= \""middle\"" x=\""50\"" y=\""50\"" fill=\""black\"" transform=\""translate(-26 15)\"">X</text><text dominant-baseline=\""middle\"" text-anchor= \""middle\"" x=\""50\"" y=\""50\"" fill=\""black\"" transform=\""translate(-21 15)\"">X</text><text dominant-baseline=\""middle\"" text-anchor= \""middle\"" x=\""50\"" y=\""50\"" fill=\""black\"" transform=\""translate(-31 15)\"">X</text>"",""<text dominant-baseline=\""middle\"" text-anchor= \""middle\"" x=\""50\"" y=\""50\"" fill=\""black\"" transform=\""translate(0 -30)\"">X</text><text dominant-baseline=\""middle\"" text-anchor= \""middle\"" x=\""50\"" y=\""50\"" fill=\""black\"" transform=\""translate(5 -30)\"">X</text><text dominant-baseline=\""middle\"" text-anchor= \""middle\"" x=\""50\"" y=\""50\"" fill=\""black\"" transform=\""translate(-5 -30)\"">X</text>"",""</svg>""]","null","","","","","",""
"","html-keyboard-response","20","88001","0.0-1.0-1.0-1.2-3.2","jn8","[""r""]","","null","<svg viewBox=""0 0 100 100"" > <path d=""M 50 52 L 50 48"" stroke=""black"" stroke-width="".5""/> <path d=""M 52 50 L 48 50"" stroke=""black"" stroke-width="".5""/>","null","","","","","",""
"","html-keyboard-response","21","89126","0.0-1.0-1.0-1.2-4.2","jn8","[""r""]","","1122.9000000953674","<svg viewBox=""0 0 100 100""><text dominant-baseline=""middle"" x=""50"" y=""50"" class=""bacs2"">a</text><text font-size=""10%"" text-anchor=""middle""  x=""50"" y=""75"">Press z for old or m for new</text>","z","RSVPtrain","g","1","3","false",""
"","html-keyboard-response","22","91628","0.0-1.0-1.0-2.2","jn8","[""r""]","","null","<p style=""font-size:300%;"">Miss.</p> <p style=""font-size:300%;"">Wrong response.</p>","null","","","","","",""
"","html-keyboard-response","23","93058","0.0-1.0-1.0-0.3","jn8","[""r""]","","null","<svg viewBox=""0 0 100 100"" > <path d=""M 50 52 L 50 48"" stroke=""black"" stroke-width="".5""/> <path d=""M 52 50 L 48 50"" stroke=""black"" stroke-width="".5""/>","null","","","","","",""
"","html-keyboard-response","24","93811","0.0-1.0-1.0-1.3-0.3","jn8","[""r""]","","null","[""<svg viewBox=\""0 0 100 100\"" >"",""<path d=\""M 50 52 L 50 48\"" stroke=\""black\"" stroke-width=\"".5\""/>"",""<path d=\""M 52 50 L 48 50\"" stroke=\""black\"" stroke-width=\"".5\""/>"",""text"",""<text dominant-baseline=\""middle\"" x=\""50\"" y=\""50\"" fill=black transform=\""translate(26 15)\"" class=\""bacs1\"">F</text>"",""<text dominant-baseline=\""middle\"" x=\""50\"" y=\""50\"" fill=black transform=\""translate(-26 15)\"" class=\""bacs1\"">I</text>"",""<text dominant-baseline=\""middle\"" x=\""50\"" y=\""50\"" fill=red transform=\""translate(0 -30)\"" class=\""bacs1\"">L</text>"",""</svg>""]","null","","","","","",""
"","html-keyboard-response","25","94062","0.0-1.0-1.0-1.3-1.3","jn8","[""r""]","","null","<svg viewBox=""0 0 100 100"" > <path d=""M 50 52 L 50 48"" stroke=""black"" stroke-width="".5""/> <path d=""M 52 50 L 48 50"" stroke=""black"" stroke-width="".5""/>","null","","","","","",""
"","html-keyboard-response","26","94164","0.0-1.0-1.0-1.3-2.3","jn8","[""r""]","","null","[""<svg viewBox=\""0 0 100 100\"" >"",""<path d=\""M 50 52 L 50 48\"" stroke=\""black\"" stroke-width=\"".5\""/>"",""<path d=\""M 52 50 L 48 50\"" stroke=\""black\"" stroke-width=\"".5\""/>"",""<text dominant-baseline=\""middle\"" text-anchor= \""middle\"" x=\""50\"" y=\""50\"" fill=\""black\"" transform=\""translate(26 15)\"">X</text><text dominant-baseline=\""middle\"" text-anchor= \""middle\"" x=\""50\"" y=\""50\"" fill=\""black\"" transform=\""translate(31 15)\"">X</text><text dominant-baseline=\""middle\"" text-anchor= \""middle\"" x=\""50\"" y=\""50\"" fill=\""black\"" transform=\""translate(21 15)\"">X</text>"",""<text dominant-baseline=\""middle\"" text-anchor= \""middle\"" x=\""50\"" y=\""50\"" fill=\""black\"" transform=\""translate(-26 15)\"">X</text><text dominant-baseline=\""middle\"" text-anchor= \""middle\"" x=\""50\"" y=\""50\"" fill=\""black\"" transform=\""translate(-21 15)\"">X</text><text dominant-baseline=\""middle\"" text-anchor= \""middle\"" x=\""50\"" y=\""50\"" fill=\""black\"" transform=\""translate(-31 15)\"">X</text>"",""<text dominant-baseline=\""middle\"" text-anchor= \""middle\"" x=\""50\"" y=\""50\"" fill=\""black\"" transform=\""translate(0 -30)\"">X</text><text dominant-baseline=\""middle\"" text-anchor= \""middle\"" x=\""50\"" y=\""50\"" fill=\""black\"" transform=\""translate(5 -30)\"">X</text><text dominant-baseline=\""middle\"" text-anchor= \""middle\"" x=\""50\"" y=\""50\"" fill=\""black\"" transform=\""translate(-5 -30)\"">X</text>"",""</svg>""]","null","","","","","",""
"","html-keyboard-response","27","95165","0.0-1.0-1.0-1.3-3.3","jn8","[""r""]","","null","<svg viewBox=""0 0 100 100"" > <path d=""M 50 52 L 50 48"" stroke=""black"" stroke-width="".5""/> <path d=""M 52 50 L 48 50"" stroke=""black"" stroke-width="".5""/>","null","","","","","",""
"","html-keyboard-response","28","96183","0.0-1.0-1.0-1.3-4.3","jn8","[""r""]","","1014.2999999523163","<svg viewBox=""0 0 100 100""><text dominant-baseline=""middle"" x=""50"" y=""50"" class=""bacs1"">Y</text><text font-size=""10%"" text-anchor=""middle""  x=""50"" y=""75"">Press z for old or m for new</text>","m","RSVPtrain","r","2","3","true",""
"","html-keyboard-response","29","98686","0.0-1.0-1.0-2.3","jn8","[""r""]","","null","<p style=""font-size:300%;"">Correct!</p>","null","","","","","",""
"","html-keyboard-response","30","100115","0.0-1.0-1.0-0.4","jn8","[""r""]","","null","<svg viewBox=""0 0 100 100"" > <path d=""M 50 52 L 50 48"" stroke=""black"" stroke-width="".5""/> <path d=""M 52 50 L 48 50"" stroke=""black"" stroke-width="".5""/>","null","","","","","",""
"","html-keyboard-response","31","100868","0.0-1.0-1.0-1.4-0.4","jn8","[""r""]","","null","[""<svg viewBox=\""0 0 100 100\"" >"",""<path d=\""M 50 52 L 50 48\"" stroke=\""black\"" stroke-width=\"".5\""/>"",""<path d=\""M 52 50 L 48 50\"" stroke=\""black\"" stroke-width=\"".5\""/>"",""text"",""<text dominant-baseline=\""middle\"" x=\""50\"" y=\""50\"" fill=red transform=\""translate(26 15)\"" class=\""bacs1\"">L</text>"",""<text dominant-baseline=\""middle\"" x=\""50\"" y=\""50\"" fill=black transform=\""translate(-26 15)\"" class=\""bacs2\"">A</text>"",""<text dominant-baseline=\""middle\"" x=\""50\"" y=\""50\"" fill=black transform=\""translate(0 -30)\"" class=\""bacs2\"">B</text>"",""</svg>""]","null","","","","","",""
"","html-keyboard-response","32","101119","0.0-1.0-1.0-1.4-1.4","jn8","[""r""]","","null","<svg viewBox=""0 0 100 100"" > <path d=""M 50 52 L 50 48"" stroke=""black"" stroke-width="".5""/> <path d=""M 52 50 L 48 50"" stroke=""black"" stroke-width="".5""/>","null","","","","","",""
"","html-keyboard-response","33","101221","0.0-1.0-1.0-1.4-2.4","jn8","[""r""]","","null","[""<svg viewBox=\""0 0 100 100\"" >"",""<path d=\""M 50 52 L 50 48\"" stroke=\""black\"" stroke-width=\"".5\""/>"",""<path d=\""M 52 50 L 48 50\"" stroke=\""black\"" stroke-width=\"".5\""/>"",""<text dominant-baseline=\""middle\"" text-anchor= \""middle\"" x=\""50\"" y=\""50\"" fill=\""black\"" transform=\""translate(26 15)\"">X</text><text dominant-baseline=\""middle\"" text-anchor= \""middle\"" x=\""50\"" y=\""50\"" fill=\""black\"" transform=\""translate(31 15)\"">X</text><text dominant-baseline=\""middle\"" text-anchor= \""middle\"" x=\""50\"" y=\""50\"" fill=\""black\"" transform=\""translate(21 15)\"">X</text>"",""<text dominant-baseline=\""middle\"" text-anchor= \""middle\"" x=\""50\"" y=\""50\"" fill=\""black\"" transform=\""translate(-26 15)\"">X</text><text dominant-baseline=\""middle\"" text-anchor= \""middle\"" x=\""50\"" y=\""50\"" fill=\""black\"" transform=\""translate(-21 15)\"">X</text><text dominant-baseline=\""middle\"" text-anchor= \""middle\"" x=\""50\"" y=\""50\"" fill=\""black\"" transform=\""translate(-31 15)\"">X</text>"",""<text dominant-baseline=\""middle\"" text-anchor= \""middle\"" x=\""50\"" y=\""50\"" fill=\""black\"" transform=\""translate(0 -30)\"">X</text><text dominant-baseline=\""middle\"" text-anchor= \""middle\"" x=\""50\"" y=\""50\"" fill=\""black\"" transform=\""translate(5 -30)\"">X</text><text dominant-baseline=\""middle\"" text-anchor= \""middle\"" x=\""50\"" y=\""50\"" fill=\""black\"" transform=\""translate(-5 -30)\"">X</text>"",""</svg>""]","null","","","","","",""
"","html-keyboard-response","34","102224","0.0-1.0-1.0-1.4-3.4","jn8","[""r""]","","null","<svg viewBox=""0 0 100 100"" > <path d=""M 50 52 L 50 48"" stroke=""black"" stroke-width="".5""/> <path d=""M 52 50 L 48 50"" stroke=""black"" stroke-width="".5""/>","null","","","","","",""
"","html-keyboard-response","35","103654","0.0-1.0-1.0-1.4-4.4","jn8","[""r""]","","1428","<svg viewBox=""0 0 100 100""><text dominant-baseline=""middle"" x=""50"" y=""50"" class=""bacs1"">L</text><text font-size=""10%"" text-anchor=""middle""  x=""50"" y=""75"">Press z for old or m for new</text>","m","RSVPtrain","r","0","0","false",""
"","html-keyboard-response","36","106158","0.0-1.0-1.0-2.4","jn8","[""r""]","","null","<p style=""font-size:300%;"">Miss.</p> <p style=""font-size:300%;"">Wrong response.</p>","null","","","","","",""
"","html-keyboard-response","37","107587","0.0-1.0-1.0-0.5","jn8","[""r""]","","null","<svg viewBox=""0 0 100 100"" > <path d=""M 50 52 L 50 48"" stroke=""black"" stroke-width="".5""/> <path d=""M 52 50 L 48 50"" stroke=""black"" stroke-width="".5""/>","null","","","","","",""
"","html-keyboard-response","38","108340","0.0-1.0-1.0-1.5-0.5","jn8","[""r""]","","null","[""<svg viewBox=\""0 0 100 100\"" >"",""<path d=\""M 50 52 L 50 48\"" stroke=\""black\"" stroke-width=\"".5\""/>"",""<path d=\""M 52 50 L 48 50\"" stroke=\""black\"" stroke-width=\"".5\""/>"",""text"",""<text dominant-baseline=\""middle\"" x=\""50\"" y=\""50\"" fill=black transform=\""translate(0 30)\"" class=\""bacs1\"">h</text>"",""<text dominant-baseline=\""middle\"" x=\""50\"" y=\""50\"" fill=black transform=\""translate(-26 -15)\"" class=\""bacs1\"">F</text>"",""<text dominant-baseline=\""middle\"" x=\""50\"" y=\""50\"" fill=black transform=\""translate(26 -15)\"" class=\""bacs1\"">k</text>"",""</svg>""]","null","","","","","",""
"","html-keyboard-response","39","108592","0.0-1.0-1.0-1.5-1.5","jn8","[""r""]","","null","<svg viewBox=""0 0 100 100"" > <path d=""M 50 52 L 50 48"" stroke=""black"" stroke-width="".5""/> <path d=""M 52 50 L 48 50"" stroke=""black"" stroke-width="".5""/>","null","","","","","",""
"","html-keyboard-response","40","108694","0.0-1.0-1.0-1.5-2.5","jn8","[""r""]","","null","[""<svg viewBox=\""0 0 100 100\"" >"",""<path d=\""M 50 52 L 50 48\"" stroke=\""black\"" stroke-width=\"".5\""/>"",""<path d=\""M 52 50 L 48 50\"" stroke=\""black\"" stroke-width=\"".5\""/>"",""<text dominant-baseline=\""middle\"" text-anchor= \""middle\"" x=\""50\"" y=\""50\"" fill=\""black\"" transform=\""translate(0 30)\"">X</text><text dominant-baseline=\""middle\"" text-anchor= \""middle\"" x=\""50\"" y=\""50\"" fill=\""black\"" transform=\""translate(5 30)\"">X</text><text dominant-baseline=\""middle\"" text-anchor= \""middle\"" x=\""50\"" y=\""50\"" fill=\""black\"" transform=\""translate(-5 30)\"">X</text>"",""<text dominant-baseline=\""middle\"" text-anchor= \""middle\"" x=\""50\"" y=\""50\"" fill=\""black\"" transform=\""translate(-26 -15)\"">X</text><text dominant-baseline=\""middle\"" text-anchor= \""middle\"" x=\""50\"" y=\""50\"" fill=\""black\"" transform=\""translate(-21 -15)\"">X</text><text dominant-baseline=\""middle\"" text-anchor= \""middle\"" x=\""50\"" y=\""50\"" fill=\""black\"" transform=\""translate(-31 -15)\"">X</text>"",""<text dominant-baseline=\""middle\"" text-anchor= \""middle\"" x=\""50\"" y=\""50\"" fill=\""black\"" transform=\""translate(26 -15)\"">X</text><text dominant-baseline=\""middle\"" text-anchor= \""middle\"" x=\""50\"" y=\""50\"" fill=\""black\"" transform=\""translate(31 -15)\"">X</text><text dominant-baseline=\""middle\"" text-anchor= \""middle\"" x=\""50\"" y=\""50\"" fill=\""black\"" transform=\""translate(21 -15)\"">X</text>"",""</svg>""]","null","","","","","",""
"","html-keyboard-response","41","109697","0.0-1.0-1.0-1.5-3.5","jn8","[""r""]","","null","<svg viewBox=""0 0 100 100"" > <path d=""M 50 52 L 50 48"" stroke=""black"" stroke-width="".5""/> <path d=""M 52 50 L 48 50"" stroke=""black"" stroke-width="".5""/>","null","","","","","",""
"","html-keyboard-response","42","110598","0.0-1.0-1.0-1.5-4.5","jn8","[""r""]","","898.6000001430511","<svg viewBox=""0 0 100 100""><text dominant-baseline=""middle"" x=""50"" y=""50"" class=""bacs1"">F</text><text font-size=""10%"" text-anchor=""middle""  x=""50"" y=""75"">Press z for old or m for new</text>","m","RSVPtrain","b","3","1","false",""
"","html-keyboard-response","43","113101","0.0-1.0-1.0-2.5","jn8","[""r""]","","null","<p style=""font-size:300%;"">Miss.</p> <p style=""font-size:300%;"">Wrong response.</p>","null","","","","","",""
"","html-keyboard-response","44","114530","0.0-1.0-1.0-0.6","jn8","[""r""]","","null","<svg viewBox=""0 0 100 100"" > <path d=""M 50 52 L 50 48"" stroke=""black"" stroke-width="".5""/> <path d=""M 52 50 L 48 50"" stroke=""black"" stroke-width="".5""/>","null","","","","","",""
"","html-keyboard-response","45","115283","0.0-1.0-1.0-1.6-0.6","jn8","[""r""]","","null","[""<svg viewBox=\""0 0 100 100\"" >"",""<path d=\""M 50 52 L 50 48\"" stroke=\""black\"" stroke-width=\"".5\""/>"",""<path d=\""M 52 50 L 48 50\"" stroke=\""black\"" stroke-width=\"".5\""/>"",""text"",""<text dominant-baseline=\""middle\"" x=\""50\"" y=\""50\"" fill=lime transform=\""translate(26 15)\"" class=\""bacs2\"">x</text>"",""<text dominant-baseline=\""middle\"" x=\""50\"" y=\""50\"" fill=black transform=\""translate(-26 15)\"" class=\""bacs2\"">p</text>"",""<text dominant-baseline=\""middle\"" x=\""50\"" y=\""50\"" fill=black transform=\""translate(0 -30)\"" class=\""bacs1\"">P</text>"",""</svg>""]","null","","","","","",""
"","html-keyboard-response","46","115535","0.0-1.0-1.0-1.6-1.6","jn8","[""r""]","","null","<svg viewBox=""0 0 100 100"" > <path d=""M 50 52 L 50 48"" stroke=""black"" stroke-width="".5""/> <path d=""M 52 50 L 48 50"" stroke=""black"" stroke-width="".5""/>","null","","","","","",""
"","html-keyboard-response","47","115638","0.0-1.0-1.0-1.6-2.6","jn8","[""r""]","","null","[""<svg viewBox=\""0 0 100 100\"" >"",""<path d=\""M 50 52 L 50 48\"" stroke=\""black\"" stroke-width=\"".5\""/>"",""<path d=\""M 52 50 L 48 50\"" stroke=\""black\"" stroke-width=\"".5\""/>"",""<text dominant-baseline=\""middle\"" text-anchor= \""middle\"" x=\""50\"" y=\""50\"" fill=\""black\"" transform=\""translate(26 15)\"">X</text><text dominant-baseline=\""middle\"" text-anchor= \""middle\"" x=\""50\"" y=\""50\"" fill=\""black\"" transform=\""translate(31 15)\"">X</text><text dominant-baseline=\""middle\"" text-anchor= \""middle\"" x=\""50\"" y=\""50\"" fill=\""black\"" transform=\""translate(21 15)\"">X</text>"",""<text dominant-baseline=\""middle\"" text-anchor= \""middle\"" x=\""50\"" y=\""50\"" fill=\""black\"" transform=\""translate(-26 15)\"">X</text><text dominant-baseline=\""middle\"" text-anchor= \""middle\"" x=\""50\"" y=\""50\"" fill=\""black\"" transform=\""translate(-21 15)\"">X</text><text dominant-baseline=\""middle\"" text-anchor= \""middle\"" x=\""50\"" y=\""50\"" fill=\""black\"" transform=\""translate(-31 15)\"">X</text>"",""<text dominant-baseline=\""middle\"" text-anchor= \""middle\"" x=\""50\"" y=\""50\"" fill=\""black\"" transform=\""translate(0 -30)\"">X</text><text dominant-baseline=\""middle\"" text-anchor= \""middle\"" x=\""50\"" y=\""50\"" fill=\""black\"" transform=\""translate(5 -30)\"">X</text><text dominant-baseline=\""middle\"" text-anchor= \""middle\"" x=\""50\"" y=\""50\"" fill=\""black\"" transform=\""translate(-5 -30)\"">X</text>"",""</svg>""]","null","","","","","",""
"","html-keyboard-response","48","116639","0.0-1.0-1.0-1.6-3.6","jn8","[""r""]","","null","<svg viewBox=""0 0 100 100"" > <path d=""M 50 52 L 50 48"" stroke=""black"" stroke-width="".5""/> <path d=""M 52 50 L 48 50"" stroke=""black"" stroke-width="".5""/>","null","","","","","",""
"","html-keyboard-response","49","117374","0.0-1.0-1.0-1.6-4.6","jn8","[""r""]","","732.6000001430511","<svg viewBox=""0 0 100 100""><text dominant-baseline=""middle"" x=""50"" y=""50"" class=""bacs2"">p</text><text font-size=""10%"" text-anchor=""middle""  x=""50"" y=""75"">Press z for old or m for new</text>","z","RSVPtrain","g","0","1","true",""
"","html-keyboard-response","50","119876","0.0-1.0-1.0-2.6","jn8","[""r""]","","null","<p style=""font-size:300%;"">Correct!</p>","null","","","","","",""
"","html-keyboard-response","51","121305","0.0-1.0-1.0-0.7","jn8","[""r""]","","null","<svg viewBox=""0 0 100 100"" > <path d=""M 50 52 L 50 48"" stroke=""black"" stroke-width="".5""/> <path d=""M 52 50 L 48 50"" stroke=""black"" stroke-width="".5""/>","null","","","","","",""
"","html-keyboard-response","52","122059","0.0-1.0-1.0-1.7-0.7","jn8","[""r""]","","null","[""<svg viewBox=\""0 0 100 100\"" >"",""<path d=\""M 50 52 L 50 48\"" stroke=\""black\"" stroke-width=\"".5\""/>"",""<path d=\""M 52 50 L 48 50\"" stroke=\""black\"" stroke-width=\"".5\""/>"",""text"",""<text dominant-baseline=\""middle\"" x=\""50\"" y=\""50\"" fill=black transform=\""translate(26 15)\"" class=\""bacs2\"">n</text>"",""<text dominant-baseline=\""middle\"" x=\""50\"" y=\""50\"" fill=black transform=\""translate(-26 15)\"" class=\""bacs1\"">S</text>"",""<text dominant-baseline=\""middle\"" x=\""50\"" y=\""50\"" fill=black transform=\""translate(0 -30)\"" class=\""bacs2\"">a</text>"",""</svg>""]","null","","","","","",""
"","html-keyboard-response","53","122311","0.0-1.0-1.0-1.7-1.7","jn8","[""r""]","","null","<svg viewBox=""0 0 100 100"" > <path d=""M 50 52 L 50 48"" stroke=""black"" stroke-width="".5""/> <path d=""M 52 50 L 48 50"" stroke=""black"" stroke-width="".5""/>","null","","","","","",""
"","html-keyboard-response","54","122413","0.0-1.0-1.0-1.7-2.7","jn8","[""r""]","","null","[""<svg viewBox=\""0 0 100 100\"" >"",""<path d=\""M 50 52 L 50 48\"" stroke=\""black\"" stroke-width=\"".5\""/>"",""<path d=\""M 52 50 L 48 50\"" stroke=\""black\"" stroke-width=\"".5\""/>"",""<text dominant-baseline=\""middle\"" text-anchor= \""middle\"" x=\""50\"" y=\""50\"" fill=\""black\"" transform=\""translate(26 15)\"">X</text><text dominant-baseline=\""middle\"" text-anchor= \""middle\"" x=\""50\"" y=\""50\"" fill=\""black\"" transform=\""translate(31 15)\"">X</text><text dominant-baseline=\""middle\"" text-anchor= \""middle\"" x=\""50\"" y=\""50\"" fill=\""black\"" transform=\""translate(21 15)\"">X</text>"",""<text dominant-baseline=\""middle\"" text-anchor= \""middle\"" x=\""50\"" y=\""50\"" fill=\""black\"" transform=\""translate(-26 15)\"">X</text><text dominant-baseline=\""middle\"" text-anchor= \""middle\"" x=\""50\"" y=\""50\"" fill=\""black\"" transform=\""translate(-21 15)\"">X</text><text dominant-baseline=\""middle\"" text-anchor= \""middle\"" x=\""50\"" y=\""50\"" fill=\""black\"" transform=\""translate(-31 15)\"">X</text>"",""<text dominant-baseline=\""middle\"" text-anchor= \""middle\"" x=\""50\"" y=\""50\"" fill=\""black\"" transform=\""translate(0 -30)\"">X</text><text dominant-baseline=\""middle\"" text-anchor= \""middle\"" x=\""50\"" y=\""50\"" fill=\""black\"" transform=\""translate(5 -30)\"">X</text><text dominant-baseline=\""middle\"" text-anchor= \""middle\"" x=\""50\"" y=\""50\"" fill=\""black\"" transform=\""translate(-5 -30)\"">X</text>"",""</svg>""]","null","","","","","",""
"","html-keyboard-response","55","123415","0.0-1.0-1.0-1.7-3.7","jn8","[""r""]","","null","<svg viewBox=""0 0 100 100"" > <path d=""M 50 52 L 50 48"" stroke=""black"" stroke-width="".5""/> <path d=""M 52 50 L 48 50"" stroke=""black"" stroke-width="".5""/>","null","","","","","",""
"","html-keyboard-response","56","124607","0.0-1.0-1.0-1.7-4.7","jn8","[""r""]","","1188.3999998569489","<svg viewBox=""0 0 100 100""><text dominant-baseline=""middle"" x=""50"" y=""50"" class=""bacs2"">n</text><text font-size=""10%"" text-anchor=""middle""  x=""50"" y=""75"">Press z for old or m for new</text>","z","RSVPtrain","b","3","0","true",""
"","html-keyboard-response","57","127109","0.0-1.0-1.0-2.7","jn8","[""r""]","","null","<p style=""font-size:300%;"">Correct!</p>","null","","","","","",""
"","html-keyboard-response","58","128539","0.0-1.0-1.0-0.8","jn8","[""r""]","","null","<svg viewBox=""0 0 100 100"" > <path d=""M 50 52 L 50 48"" stroke=""black"" stroke-width="".5""/> <path d=""M 52 50 L 48 50"" stroke=""black"" stroke-width="".5""/>","null","","","","","",""
"","html-keyboard-response","59","129292","0.0-1.0-1.0-1.8-0.8","jn8","[""r""]","","null","[""<svg viewBox=\""0 0 100 100\"" >"",""<path d=\""M 50 52 L 50 48\"" stroke=\""black\"" stroke-width=\"".5\""/>"",""<path d=\""M 52 50 L 48 50\"" stroke=\""black\"" stroke-width=\"".5\""/>"",""text"",""<text dominant-baseline=\""middle\"" x=\""50\"" y=\""50\"" fill=lime transform=\""translate(0 30)\"" class=\""bacs2\"">u</text>"",""<text dominant-baseline=\""middle\"" x=\""50\"" y=\""50\"" fill=black transform=\""translate(-26 -15)\"" class=\""bacs1\"">m</text>"",""<text dominant-baseline=\""middle\"" x=\""50\"" y=\""50\"" fill=black transform=\""translate(26 -15)\"" class=\""bacs1\"">O</text>"",""</svg>""]","null","","","","","",""
"","html-keyboard-response","60","129544","0.0-1.0-1.0-1.8-1.8","jn8","[""r""]","","null","<svg viewBox=""0 0 100 100"" > <path d=""M 50 52 L 50 48"" stroke=""black"" stroke-width="".5""/> <path d=""M 52 50 L 48 50"" stroke=""black"" stroke-width="".5""/>","null","","","","","",""
"","html-keyboard-response","61","129646","0.0-1.0-1.0-1.8-2.8","jn8","[""r""]","","null","[""<svg viewBox=\""0 0 100 100\"" >"",""<path d=\""M 50 52 L 50 48\"" stroke=\""black\"" stroke-width=\"".5\""/>"",""<path d=\""M 52 50 L 48 50\"" stroke=\""black\"" stroke-width=\"".5\""/>"",""<text dominant-baseline=\""middle\"" text-anchor= \""middle\"" x=\""50\"" y=\""50\"" fill=\""black\"" transform=\""translate(0 30)\"">X</text><text dominant-baseline=\""middle\"" text-anchor= \""middle\"" x=\""50\"" y=\""50\"" fill=\""black\"" transform=\""translate(5 30)\"">X</text><text dominant-baseline=\""middle\"" text-anchor= \""middle\"" x=\""50\"" y=\""50\"" fill=\""black\"" transform=\""translate(-5 30)\"">X</text>"",""<text dominant-baseline=\""middle\"" text-anchor= \""middle\"" x=\""50\"" y=\""50\"" fill=\""black\"" transform=\""translate(-26 -15)\"">X</text><text dominant-baseline=\""middle\"" text-anchor= \""middle\"" x=\""50\"" y=\""50\"" fill=\""black\"" transform=\""translate(-21 -15)\"">X</text><text dominant-baseline=\""middle\"" text-anchor= \""middle\"" x=\""50\"" y=\""50\"" fill=\""black\"" transform=\""translate(-31 -15)\"">X</text>"",""<text dominant-baseline=\""middle\"" text-anchor= \""middle\"" x=\""50\"" y=\""50\"" fill=\""black\"" transform=\""translate(26 -15)\"">X</text><text dominant-baseline=\""middle\"" text-anchor= \""middle\"" x=\""50\"" y=\""50\"" fill=\""black\"" transform=\""translate(31 -15)\"">X</text><text dominant-baseline=\""middle\"" text-anchor= \""middle\"" x=\""50\"" y=\""50\"" fill=\""black\"" transform=\""translate(21 -15)\"">X</text>"",""</svg>""]","null","","","","","",""
"","html-keyboard-response","62","130648","0.0-1.0-1.0-1.8-3.8","jn8","[""r""]","","null","<svg viewBox=""0 0 100 100"" > <path d=""M 50 52 L 50 48"" stroke=""black"" stroke-width="".5""/> <path d=""M 52 50 L 48 50"" stroke=""black"" stroke-width="".5""/>","null","","","","","",""
"","html-keyboard-response","63","131310","0.0-1.0-1.0-1.8-4.8","jn8","[""r""]","","660.1000001430511","<svg viewBox=""0 0 100 100""><text dominant-baseline=""middle"" x=""50"" y=""50"" class=""bacs2"">M</text><text font-size=""10%"" text-anchor=""middle""  x=""50"" y=""75"">Press z for old or m for new</text>","m","RSVPtrain","g","0","3","true",""
"","html-keyboard-response","64","133813","0.0-1.0-1.0-2.8","jn8","[""r""]","","null","<p style=""font-size:300%;"">Correct!</p>","null","","","","","",""
"","html-keyboard-response","65","135242","0.0-1.0-1.0-0.9","jn8","[""r""]","","null","<svg viewBox=""0 0 100 100"" > <path d=""M 50 52 L 50 48"" stroke=""black"" stroke-width="".5""/> <path d=""M 52 50 L 48 50"" stroke=""black"" stroke-width="".5""/>","null","","","","","",""
"","html-keyboard-response","66","135995","0.0-1.0-1.0-1.9-0.9","jn8","[""r""]","","null","[""<svg viewBox=\""0 0 100 100\"" >"",""<path d=\""M 50 52 L 50 48\"" stroke=\""black\"" stroke-width=\"".5\""/>"",""<path d=\""M 52 50 L 48 50\"" stroke=\""black\"" stroke-width=\"".5\""/>"",""text"",""<text dominant-baseline=\""middle\"" x=\""50\"" y=\""50\"" fill=black transform=\""translate(26 15)\"" class=\""bacs2\"">u</text>"",""<text dominant-baseline=\""middle\"" x=\""50\"" y=\""50\"" fill=black transform=\""translate(-26 15)\"" class=\""bacs2\"">n</text>"",""<text dominant-baseline=\""middle\"" x=\""50\"" y=\""50\"" fill=black transform=\""translate(0 -30)\"" class=\""bacs1\"">u</text>"",""</svg>""]","null","","","","","",""
"","html-keyboard-response","67","136247","0.0-1.0-1.0-1.9-1.9","jn8","[""r""]","","null","<svg viewBox=""0 0 100 100"" > <path d=""M 50 52 L 50 48"" stroke=""black"" stroke-width="".5""/> <path d=""M 52 50 L 48 50"" stroke=""black"" stroke-width="".5""/>","null","","","","","",""
"","html-keyboard-response","68","136349","0.0-1.0-1.0-1.9-2.9","jn8","[""r""]","","null","[""<svg viewBox=\""0 0 100 100\"" >"",""<path d=\""M 50 52 L 50 48\"" stroke=\""black\"" stroke-width=\"".5\""/>"",""<path d=\""M 52 50 L 48 50\"" stroke=\""black\"" stroke-width=\"".5\""/>"",""<text dominant-baseline=\""middle\"" text-anchor= \""middle\"" x=\""50\"" y=\""50\"" fill=\""black\"" transform=\""translate(26 15)\"">X</text><text dominant-baseline=\""middle\"" text-anchor= \""middle\"" x=\""50\"" y=\""50\"" fill=\""black\"" transform=\""translate(31 15)\"">X</text><text dominant-baseline=\""middle\"" text-anchor= \""middle\"" x=\""50\"" y=\""50\"" fill=\""black\"" transform=\""translate(21 15)\"">X</text>"",""<text dominant-baseline=\""middle\"" text-anchor= \""middle\"" x=\""50\"" y=\""50\"" fill=\""black\"" transform=\""translate(-26 15)\"">X</text><text dominant-baseline=\""middle\"" text-anchor= \""middle\"" x=\""50\"" y=\""50\"" fill=\""black\"" transform=\""translate(-21 15)\"">X</text><text dominant-baseline=\""middle\"" text-anchor= \""middle\"" x=\""50\"" y=\""50\"" fill=\""black\"" transform=\""translate(-31 15)\"">X</text>"",""<text dominant-baseline=\""middle\"" text-anchor= \""middle\"" x=\""50\"" y=\""50\"" fill=\""black\"" transform=\""translate(0 -30)\"">X</text><text dominant-baseline=\""middle\"" text-anchor= \""middle\"" x=\""50\"" y=\""50\"" fill=\""black\"" transform=\""translate(5 -30)\"">X</text><text dominant-baseline=\""middle\"" text-anchor= \""middle\"" x=\""50\"" y=\""50\"" fill=\""black\"" transform=\""translate(-5 -30)\"">X</text>"",""</svg>""]","null","","","","","",""
"","html-keyboard-response","69","137351","0.0-1.0-1.0-1.9-3.9","jn8","[""r""]","","null","<svg viewBox=""0 0 100 100"" > <path d=""M 50 52 L 50 48"" stroke=""black"" stroke-width="".5""/> <path d=""M 52 50 L 48 50"" stroke=""black"" stroke-width="".5""/>","null","","","","","",""
"","html-keyboard-response","70","139079","0.0-1.0-1.0-1.9-4.9","jn8","[""r""]","","1721.6999998092651","<svg viewBox=""0 0 100 100""><text dominant-baseline=""middle"" x=""50"" y=""50"" class=""bacs1"">n</text><text font-size=""10%"" text-anchor=""middle""  x=""50"" y=""75"">Press z for old or m for new</text>","z","RSVPtrain","b","3","3","false",""
"","html-keyboard-response","71","141582","0.0-1.0-1.0-2.9","jn8","[""r""]","","null","<p style=""font-size:300%;"">Miss.</p> <p style=""font-size:300%;"">Wrong response.</p>","null","","","","","",""
"","html-keyboard-response","72","147694","0.0-1.0-2.0","jn8","[""r""]","","5109.599999904633","<p>You have now finished the training exercise. If you would like to repeat the instructions and training exercise, press <b>R</b>.<p>If you are ready to continue to the task, press <b>C</b>.</p>","c","","","","","",""
"","html-keyboard-response","73","148125","0.0-2.0-0.0","jn8","[""r""]","","null","<svg viewBox=""0 0 100 100"" > <path d=""M 50 52 L 50 48"" stroke=""black"" stroke-width="".5""/> <path d=""M 52 50 L 48 50"" stroke=""black"" stroke-width="".5""/>","null","","","","","",""
"","html-keyboard-response","74","148877","0.0-2.0-1.0-0.0","jn8","[""r""]","","null","[""<svg viewBox=\""0 0 100 100\"" >"",""<path d=\""M 50 52 L 50 48\"" stroke=\""black\"" stroke-width=\"".5\""/>"",""<path d=\""M 52 50 L 48 50\"" stroke=\""black\"" stroke-width=\"".5\""/>"",""<text dominant-baseline=\""middle\"" x=\""50\"" y=\""50\"" fill=black transform=\""translate(0 30)\"" class=\""bacs2\"">n</text>"",""<text dominant-baseline=\""middle\"" x=\""50\"" y=\""50\"" fill=black transform=\""translate(-26 -15)\"" class=\""bacs2\"">P</text>"",""<text dominant-baseline=\""middle\"" x=\""50\"" y=\""50\"" fill=red transform=\""translate(26 -15)\"" class=\""bacs1\"">t</text>"",""</svg>""]","null","","","","","",""
"","html-keyboard-response","75","149128","0.0-2.0-1.0-1.0","jn8","[""r""]","","null","<svg viewBox=""0 0 100 100"" > <path d=""M 50 52 L 50 48"" stroke=""black"" stroke-width="".5""/> <path d=""M 52 50 L 48 50"" stroke=""black"" stroke-width="".5""/>","null","","","","","",""
"","html-keyboard-response","76","149230","0.0-2.0-1.0-2.0","jn8","[""r""]","","null","[""<svg viewBox=\""0 0 100 100\"" >"",""<path d=\""M 50 52 L 50 48\"" stroke=\""black\"" stroke-width=\"".5\""/>"",""<path d=\""M 52 50 L 48 50\"" stroke=\""black\"" stroke-width=\"".5\""/>"",""<text dominant-baseline=\""middle\"" text-anchor= \""middle\"" x=\""50\"" y=\""50\"" fill=\""black\"" transform=\""translate(0 30)\"">X</text><text dominant-baseline=\""middle\"" text-anchor= \""middle\"" x=\""50\"" y=\""50\"" fill=\""black\"" transform=\""translate(5 30)\"">X</text><text dominant-baseline=\""middle\"" text-anchor= \""middle\"" x=\""50\"" y=\""50\"" fill=\""black\"" transform=\""translate(-5 30)\"">X</text>"",""<text dominant-baseline=\""middle\"" text-anchor= \""middle\"" x=\""50\"" y=\""50\"" fill=\""black\"" transform=\""translate(-26 -15)\"">X</text><text dominant-baseline=\""middle\"" text-anchor= \""middle\"" x=\""50\"" y=\""50\"" fill=\""black\"" transform=\""translate(-21 -15)\"">X</text><text dominant-baseline=\""middle\"" text-anchor= \""middle\"" x=\""50\"" y=\""50\"" fill=\""black\"" transform=\""translate(-31 -15)\"">X</text>"",""<text dominant-baseline=\""middle\"" text-anchor= \""middle\"" x=\""50\"" y=\""50\"" fill=\""black\"" transform=\""translate(26 -15)\"">X</text><text dominant-baseline=\""middle\"" text-anchor= \""middle\"" x=\""50\"" y=\""50\"" fill=\""black\"" transform=\""translate(31 -15)\"">X</text><text dominant-baseline=\""middle\"" text-anchor= \""middle\"" x=\""50\"" y=\""50\"" fill=\""black\"" transform=\""translate(21 -15)\"">X</text>"",""</svg>""]","null","","","","","",""
"","html-keyboard-response","77","150232","0.0-2.0-1.0-3.0","jn8","[""r""]","","null","<svg viewBox=""0 0 100 100"" > <path d=""M 50 52 L 50 48"" stroke=""black"" stroke-width="".5""/> <path d=""M 52 50 L 48 50"" stroke=""black"" stroke-width="".5""/>","null","","","","","",""
"","html-keyboard-response","78","151214","0.0-2.0-1.0-4.0","jn8","[""r""]","","980","<svg viewBox=""0 0 100 100""><text dominant-baseline=""middle"" x=""50"" y=""50"" class=""bacs1"">t</text></svg>","z","RSVPtest","r","2","2","true",""
"","html-keyboard-response","79","153717","0.0-2.0-2.0","jn8","[""r""]","","null","<p style=""font-size:300%;"">Correct!</p>","null","","","","","",""
"","html-keyboard-response","80","155147","0.0-2.0-0.1","jn8","[""r""]","","null","<svg viewBox=""0 0 100 100"" > <path d=""M 50 52 L 50 48"" stroke=""black"" stroke-width="".5""/> <path d=""M 52 50 L 48 50"" stroke=""black"" stroke-width="".5""/>","null","","","","","",""
"","html-keyboard-response","81","155900","0.0-2.0-1.1-0.1","jn8","[""r""]","","null","[""<svg viewBox=\""0 0 100 100\"" >"",""<path d=\""M 50 52 L 50 48\"" stroke=\""black\"" stroke-width=\"".5\""/>"",""<path d=\""M 52 50 L 48 50\"" stroke=\""black\"" stroke-width=\"".5\""/>"",""<text dominant-baseline=\""middle\"" x=\""50\"" y=\""50\"" fill=black transform=\""translate(0 30)\"" class=\""bacs2\"">U</text>"",""<text dominant-baseline=\""middle\"" x=\""50\"" y=\""50\"" fill=black transform=\""translate(-26 -15)\"" class=\""bacs1\"">m</text>"",""<text dominant-baseline=\""middle\"" x=\""50\"" y=\""50\"" fill=red transform=\""translate(26 -15)\"" class=\""bacs1\"">G</text>"",""</svg>""]","null","","","","","",""
"","html-keyboard-response","82","156151","0.0-2.0-1.1-1.1","jn8","[""r""]","","null","<svg viewBox=""0 0 100 100"" > <path d=""M 50 52 L 50 48"" stroke=""black"" stroke-width="".5""/> <path d=""M 52 50 L 48 50"" stroke=""black"" stroke-width="".5""/>","null","","","","","",""
"","html-keyboard-response","83","156254","0.0-2.0-1.1-2.1","jn8","[""r""]","","null","[""<svg viewBox=\""0 0 100 100\"" >"",""<path d=\""M 50 52 L 50 48\"" stroke=\""black\"" stroke-width=\"".5\""/>"",""<path d=\""M 52 50 L 48 50\"" stroke=\""black\"" stroke-width=\"".5\""/>"",""<text dominant-baseline=\""middle\"" text-anchor= \""middle\"" x=\""50\"" y=\""50\"" fill=\""black\"" transform=\""translate(0 30)\"">X</text><text dominant-baseline=\""middle\"" text-anchor= \""middle\"" x=\""50\"" y=\""50\"" fill=\""black\"" transform=\""translate(5 30)\"">X</text><text dominant-baseline=\""middle\"" text-anchor= \""middle\"" x=\""50\"" y=\""50\"" fill=\""black\"" transform=\""translate(-5 30)\"">X</text>"",""<text dominant-baseline=\""middle\"" text-anchor= \""middle\"" x=\""50\"" y=\""50\"" fill=\""black\"" transform=\""translate(-26 -15)\"">X</text><text dominant-baseline=\""middle\"" text-anchor= \""middle\"" x=\""50\"" y=\""50\"" fill=\""black\"" transform=\""translate(-21 -15)\"">X</text><text dominant-baseline=\""middle\"" text-anchor= \""middle\"" x=\""50\"" y=\""50\"" fill=\""black\"" transform=\""translate(-31 -15)\"">X</text>"",""<text dominant-baseline=\""middle\"" text-anchor= \""middle\"" x=\""50\"" y=\""50\"" fill=\""black\"" transform=\""translate(26 -15)\"">X</text><text dominant-baseline=\""middle\"" text-anchor= \""middle\"" x=\""50\"" y=\""50\"" fill=\""black\"" transform=\""translate(31 -15)\"">X</text><text dominant-baseline=\""middle\"" text-anchor= \""middle\"" x=\""50\"" y=\""50\"" fill=\""black\"" transform=\""translate(21 -15)\"">X</text>"",""</svg>""]","null","","","","","",""
"","html-keyboard-response","84","157256","0.0-2.0-1.1-3.1","jn8","[""r""]","","null","<svg viewBox=""0 0 100 100"" > <path d=""M 50 52 L 50 48"" stroke=""black"" stroke-width="".5""/> <path d=""M 52 50 L 48 50"" stroke=""black"" stroke-width="".5""/>","null","","","","","",""
"","html-keyboard-response","85","158302","0.0-2.0-1.1-4.1","jn8","[""r""]","","1044.5","<svg viewBox=""0 0 100 100""><text dominant-baseline=""middle"" x=""50"" y=""50"" class=""bacs1"">G</text></svg>","m","RSVPtest","r","2","2","false",""
"","html-keyboard-response","86","160806","0.0-2.0-2.1","jn8","[""r""]","","null","<p style=""font-size:300%;"">Miss.</p>","null","","","","","",""
"","html-keyboard-response","87","162236","0.0-2.0-0.2","jn8","[""r""]","","null","<svg viewBox=""0 0 100 100"" > <path d=""M 50 52 L 50 48"" stroke=""black"" stroke-width="".5""/> <path d=""M 52 50 L 48 50"" stroke=""black"" stroke-width="".5""/>","null","","","","","",""
"","html-keyboard-response","88","162989","0.0-2.0-1.2-0.2","jn8","[""r""]","","null","[""<svg viewBox=\""0 0 100 100\"" >"",""<path d=\""M 50 52 L 50 48\"" stroke=\""black\"" stroke-width=\"".5\""/>"",""<path d=\""M 52 50 L 48 50\"" stroke=\""black\"" stroke-width=\"".5\""/>"",""<text dominant-baseline=\""middle\"" x=\""50\"" y=\""50\"" fill=black transform=\""translate(0 30)\"" class=\""bacs1\"">N</text>"",""<text dominant-baseline=\""middle\"" x=\""50\"" y=\""50\"" fill=black transform=\""translate(-26 -15)\"" class=\""bacs1\"">f</text>"",""<text dominant-baseline=\""middle\"" x=\""50\"" y=\""50\"" fill=red transform=\""translate(26 -15)\"" class=\""bacs1\"">n</text>"",""</svg>""]","null","","","","","",""
"","html-keyboard-response","89","163241","0.0-2.0-1.2-1.2","jn8","[""r""]","","null","<svg viewBox=""0 0 100 100"" > <path d=""M 50 52 L 50 48"" stroke=""black"" stroke-width="".5""/> <path d=""M 52 50 L 48 50"" stroke=""black"" stroke-width="".5""/>","null","","","","","",""
"","html-keyboard-response","90","163344","0.0-2.0-1.2-2.2","jn8","[""r""]","","null","[""<svg viewBox=\""0 0 100 100\"" >"",""<path d=\""M 50 52 L 50 48\"" stroke=\""black\"" stroke-width=\"".5\""/>"",""<path d=\""M 52 50 L 48 50\"" stroke=\""black\"" stroke-width=\"".5\""/>"",""<text dominant-baseline=\""middle\"" text-anchor= \""middle\"" x=\""50\"" y=\""50\"" fill=\""black\"" transform=\""translate(0 30)\"">X</text><text dominant-baseline=\""middle\"" text-anchor= \""middle\"" x=\""50\"" y=\""50\"" fill=\""black\"" transform=\""translate(5 30)\"">X</text><text dominant-baseline=\""middle\"" text-anchor= \""middle\"" x=\""50\"" y=\""50\"" fill=\""black\"" transform=\""translate(-5 30)\"">X</text>"",""<text dominant-baseline=\""middle\"" text-anchor= \""middle\"" x=\""50\"" y=\""50\"" fill=\""black\"" transform=\""translate(-26 -15)\"">X</text><text dominant-baseline=\""middle\"" text-anchor= \""middle\"" x=\""50\"" y=\""50\"" fill=\""black\"" transform=\""translate(-21 -15)\"">X</text><text dominant-baseline=\""middle\"" text-anchor= \""middle\"" x=\""50\"" y=\""50\"" fill=\""black\"" transform=\""translate(-31 -15)\"">X</text>"",""<text dominant-baseline=\""middle\"" text-anchor= \""middle\"" x=\""50\"" y=\""50\"" fill=\""black\"" transform=\""translate(26 -15)\"">X</text><text dominant-baseline=\""middle\"" text-anchor= \""middle\"" x=\""50\"" y=\""50\"" fill=\""black\"" transform=\""translate(31 -15)\"">X</text><text dominant-baseline=\""middle\"" text-anchor= \""middle\"" x=\""50\"" y=\""50\"" fill=\""black\"" transform=\""translate(21 -15)\"">X</text>"",""</svg>""]","null","","","","","",""
"","html-keyboard-response","91","164345","0.0-2.0-1.2-3.2","jn8","[""r""]","","null","<svg viewBox=""0 0 100 100"" > <path d=""M 50 52 L 50 48"" stroke=""black"" stroke-width="".5""/> <path d=""M 52 50 L 48 50"" stroke=""black"" stroke-width="".5""/>","null","","","","","",""
"","html-keyboard-response","92","166262","0.0-2.0-1.2-4.2","jn8","[""r""]","","1914.3000001907349","<svg viewBox=""0 0 100 100""><text dominant-baseline=""middle"" x=""50"" y=""50"" class=""bacs1"">N</text></svg>","m","RSVPtest","r","2","0","false",""
"","html-keyboard-response","93","168766","0.0-2.0-2.2","jn8","[""r""]","","null","<p style=""font-size:300%;"">Miss.</p>","null","","","","","",""
"","html-keyboard-response","94","170195","0.0-2.0-0.3","jn8","[""r""]","","null","<svg viewBox=""0 0 100 100"" > <path d=""M 50 52 L 50 48"" stroke=""black"" stroke-width="".5""/> <path d=""M 52 50 L 48 50"" stroke=""black"" stroke-width="".5""/>","null","","","","","",""
"","html-keyboard-response","95","170948","0.0-2.0-1.3-0.3","jn8","[""r""]","","null","[""<svg viewBox=\""0 0 100 100\"" >"",""<path d=\""M 50 52 L 50 48\"" stroke=\""black\"" stroke-width=\"".5\""/>"",""<path d=\""M 52 50 L 48 50\"" stroke=\""black\"" stroke-width=\"".5\""/>"",""<text dominant-baseline=\""middle\"" x=\""50\"" y=\""50\"" fill=black transform=\""translate(26 15)\"" class=\""bacs2\"">U</text>"",""<text dominant-baseline=\""middle\"" x=\""50\"" y=\""50\"" fill=black transform=\""translate(-26 15)\"" class=\""bacs2\"">u</text>"",""<text dominant-baseline=\""middle\"" x=\""50\"" y=\""50\"" fill=black transform=\""translate(0 -30)\"" class=\""bacs1\"">K</text>"",""</svg>""]","null","","","","","",""
"","html-keyboard-response","96","171199","0.0-2.0-1.3-1.3","jn8","[""r""]","","null","<svg viewBox=""0 0 100 100"" > <path d=""M 50 52 L 50 48"" stroke=""black"" stroke-width="".5""/> <path d=""M 52 50 L 48 50"" stroke=""black"" stroke-width="".5""/>","null","","","","","",""
"","html-keyboard-response","97","171302","0.0-2.0-1.3-2.3","jn8","[""r""]","","null","[""<svg viewBox=\""0 0 100 100\"" >"",""<path d=\""M 50 52 L 50 48\"" stroke=\""black\"" stroke-width=\"".5\""/>"",""<path d=\""M 52 50 L 48 50\"" stroke=\""black\"" stroke-width=\"".5\""/>"",""<text dominant-baseline=\""middle\"" text-anchor= \""middle\"" x=\""50\"" y=\""50\"" fill=\""black\"" transform=\""translate(26 15)\"">X</text><text dominant-baseline=\""middle\"" text-anchor= \""middle\"" x=\""50\"" y=\""50\"" fill=\""black\"" transform=\""translate(31 15)\"">X</text><text dominant-baseline=\""middle\"" text-anchor= \""middle\"" x=\""50\"" y=\""50\"" fill=\""black\"" transform=\""translate(21 15)\"">X</text>"",""<text dominant-baseline=\""middle\"" text-anchor= \""middle\"" x=\""50\"" y=\""50\"" fill=\""black\"" transform=\""translate(-26 15)\"">X</text><text dominant-baseline=\""middle\"" text-anchor= \""middle\"" x=\""50\"" y=\""50\"" fill=\""black\"" transform=\""translate(-21 15)\"">X</text><text dominant-baseline=\""middle\"" text-anchor= \""middle\"" x=\""50\"" y=\""50\"" fill=\""black\"" transform=\""translate(-31 15)\"">X</text>"",""<text dominant-baseline=\""middle\"" text-anchor= \""middle\"" x=\""50\"" y=\""50\"" fill=\""black\"" transform=\""translate(0 -30)\"">X</text><text dominant-baseline=\""middle\"" text-anchor= \""middle\"" x=\""50\"" y=\""50\"" fill=\""black\"" transform=\""translate(5 -30)\"">X</text><text dominant-baseline=\""middle\"" text-anchor= \""middle\"" x=\""50\"" y=\""50\"" fill=\""black\"" transform=\""translate(-5 -30)\"">X</text>"",""</svg>""]","null","","","","","",""
"","html-keyboard-response","98","172304","0.0-2.0-1.3-3.3","jn8","[""r""]","","null","<svg viewBox=""0 0 100 100"" > <path d=""M 50 52 L 50 48"" stroke=""black"" stroke-width="".5""/> <path d=""M 52 50 L 48 50"" stroke=""black"" stroke-width="".5""/>","null","","","","","",""
"","html-keyboard-response","99","173774","0.0-2.0-1.3-4.3","jn8","[""r""]","","1467.4000000953674","<svg viewBox=""0 0 100 100""><text dominant-baseline=""middle"" x=""50"" y=""50"" class=""bacs1"">K</text></svg>","z","RSVPtest","b","3","2","true",""
"","html-keyboard-response","100","176277","0.0-2.0-2.3","jn8","[""r""]","","null","<p style=""font-size:300%;"">Correct!</p>","null","","","","","",""
"","html-keyboard-response","101","177707","0.0-2.0-0.4","jn8","[""r""]","","null","<svg viewBox=""0 0 100 100"" > <path d=""M 50 52 L 50 48"" stroke=""black"" stroke-width="".5""/> <path d=""M 52 50 L 48 50"" stroke=""black"" stroke-width="".5""/>","null","","","","","",""
"","html-keyboard-response","102","178460","0.0-2.0-1.4-0.4","jn8","[""r""]","","null","[""<svg viewBox=\""0 0 100 100\"" >"",""<path d=\""M 50 52 L 50 48\"" stroke=\""black\"" stroke-width=\"".5\""/>"",""<path d=\""M 52 50 L 48 50\"" stroke=\""black\"" stroke-width=\"".5\""/>"",""<text dominant-baseline=\""middle\"" x=\""50\"" y=\""50\"" fill=black transform=\""translate(0 30)\"" class=\""bacs1\"">b</text>"",""<text dominant-baseline=\""middle\"" x=\""50\"" y=\""50\"" fill=black transform=\""translate(-26 -15)\"" class=\""bacs2\"">a</text>"",""<text dominant-baseline=\""middle\"" x=\""50\"" y=\""50\"" fill=black transform=\""translate(26 -15)\"" class=\""bacs1\"">m</text>"",""</svg>""]","null","","","","","",""
"","html-keyboard-response","103","178711","0.0-2.0-1.4-1.4","jn8","[""r""]","","null","<svg viewBox=""0 0 100 100"" > <path d=""M 50 52 L 50 48"" stroke=""black"" stroke-width="".5""/> <path d=""M 52 50 L 48 50"" stroke=""black"" stroke-width="".5""/>","null","","","","","",""
"","html-keyboard-response","104","178814","0.0-2.0-1.4-2.4","jn8","[""r""]","","null","[""<svg viewBox=\""0 0 100 100\"" >"",""<path d=\""M 50 52 L 50 48\"" stroke=\""black\"" stroke-width=\"".5\""/>"",""<path d=\""M 52 50 L 48 50\"" stroke=\""black\"" stroke-width=\"".5\""/>"",""<text dominant-baseline=\""middle\"" text-anchor= \""middle\"" x=\""50\"" y=\""50\"" fill=\""black\"" transform=\""translate(0 30)\"">X</text><text dominant-baseline=\""middle\"" text-anchor= \""middle\"" x=\""50\"" y=\""50\"" fill=\""black\"" transform=\""translate(5 30)\"">X</text><text dominant-baseline=\""middle\"" text-anchor= \""middle\"" x=\""50\"" y=\""50\"" fill=\""black\"" transform=\""translate(-5 30)\"">X</text>"",""<text dominant-baseline=\""middle\"" text-anchor= \""middle\"" x=\""50\"" y=\""50\"" fill=\""black\"" transform=\""translate(-26 -15)\"">X</text><text dominant-baseline=\""middle\"" text-anchor= \""middle\"" x=\""50\"" y=\""50\"" fill=\""black\"" transform=\""translate(-21 -15)\"">X</text><text dominant-baseline=\""middle\"" text-anchor= \""middle\"" x=\""50\"" y=\""50\"" fill=\""black\"" transform=\""translate(-31 -15)\"">X</text>"",""<text dominant-baseline=\""middle\"" text-anchor= \""middle\"" x=\""50\"" y=\""50\"" fill=\""black\"" transform=\""translate(26 -15)\"">X</text><text dominant-baseline=\""middle\"" text-anchor= \""middle\"" x=\""50\"" y=\""50\"" fill=\""black\"" transform=\""translate(31 -15)\"">X</text><text dominant-baseline=\""middle\"" text-anchor= \""middle\"" x=\""50\"" y=\""50\"" fill=\""black\"" transform=\""translate(21 -15)\"">X</text>"",""</svg>""]","null","","","","","",""
"","html-keyboard-response","105","179815","0.0-2.0-1.4-3.4","jn8","[""r""]","","null","<svg viewBox=""0 0 100 100"" > <path d=""M 50 52 L 50 48"" stroke=""black"" stroke-width="".5""/> <path d=""M 52 50 L 48 50"" stroke=""black"" stroke-width="".5""/>","null","","","","","",""
"","html-keyboard-response","106","180950","0.0-2.0-1.4-4.4","jn8","[""r""]","","1132.3000001907349","<svg viewBox=""0 0 100 100""><text dominant-baseline=""middle"" x=""50"" y=""50"" class=""bacs1"">b</text></svg>","z","RSVPtest","b","3","0","true",""
"","html-keyboard-response","107","183453","0.0-2.0-2.4","jn8","[""r""]","","null","<p style=""font-size:300%;"">Correct!</p>","null","","","","","",""
"","html-keyboard-response","108","184883","0.0-2.0-0.5","jn8","[""r""]","","null","<svg viewBox=""0 0 100 100"" > <path d=""M 50 52 L 50 48"" stroke=""black"" stroke-width="".5""/> <path d=""M 52 50 L 48 50"" stroke=""black"" stroke-width="".5""/>","null","","","","","",""
"","html-keyboard-response","109","185635","0.0-2.0-1.5-0.5","jn8","[""r""]","","null","[""<svg viewBox=\""0 0 100 100\"" >"",""<path d=\""M 50 52 L 50 48\"" stroke=\""black\"" stroke-width=\"".5\""/>"",""<path d=\""M 52 50 L 48 50\"" stroke=\""black\"" stroke-width=\"".5\""/>"",""<text dominant-baseline=\""middle\"" x=\""50\"" y=\""50\"" fill=black transform=\""translate(26 15)\"" class=\""bacs1\"">b</text>"",""<text dominant-baseline=\""middle\"" x=\""50\"" y=\""50\"" fill=lime transform=\""translate(-26 15)\"" class=\""bacs1\"">V</text>"",""<text dominant-baseline=\""middle\"" x=\""50\"" y=\""50\"" fill=black transform=\""translate(0 -30)\"" class=\""bacs1\"">e</text>"",""</svg>""]","null","","","","","",""
"","html-keyboard-response","110","185887","0.0-2.0-1.5-1.5","jn8","[""r""]","","null","<svg viewBox=""0 0 100 100"" > <path d=""M 50 52 L 50 48"" stroke=""black"" stroke-width="".5""/> <path d=""M 52 50 L 48 50"" stroke=""black"" stroke-width="".5""/>","null","","","","","",""
"","html-keyboard-response","111","185989","0.0-2.0-1.5-2.5","jn8","[""r""]","","null","[""<svg viewBox=\""0 0 100 100\"" >"",""<path d=\""M 50 52 L 50 48\"" stroke=\""black\"" stroke-width=\"".5\""/>"",""<path d=\""M 52 50 L 48 50\"" stroke=\""black\"" stroke-width=\"".5\""/>"",""<text dominant-baseline=\""middle\"" text-anchor= \""middle\"" x=\""50\"" y=\""50\"" fill=\""black\"" transform=\""translate(26 15)\"">X</text><text dominant-baseline=\""middle\"" text-anchor= \""middle\"" x=\""50\"" y=\""50\"" fill=\""black\"" transform=\""translate(31 15)\"">X</text><text dominant-baseline=\""middle\"" text-anchor= \""middle\"" x=\""50\"" y=\""50\"" fill=\""black\"" transform=\""translate(21 15)\"">X</text>"",""<text dominant-baseline=\""middle\"" text-anchor= \""middle\"" x=\""50\"" y=\""50\"" fill=\""black\"" transform=\""translate(-26 15)\"">X</text><text dominant-baseline=\""middle\"" text-anchor= \""middle\"" x=\""50\"" y=\""50\"" fill=\""black\"" transform=\""translate(-21 15)\"">X</text><text dominant-baseline=\""middle\"" text-anchor= \""middle\"" x=\""50\"" y=\""50\"" fill=\""black\"" transform=\""translate(-31 15)\"">X</text>"",""<text dominant-baseline=\""middle\"" text-anchor= \""middle\"" x=\""50\"" y=\""50\"" fill=\""black\"" transform=\""translate(0 -30)\"">X</text><text dominant-baseline=\""middle\"" text-anchor= \""middle\"" x=\""50\"" y=\""50\"" fill=\""black\"" transform=\""translate(5 -30)\"">X</text><text dominant-baseline=\""middle\"" text-anchor= \""middle\"" x=\""50\"" y=\""50\"" fill=\""black\"" transform=\""translate(-5 -30)\"">X</text>"",""</svg>""]","null","","","","","",""
"","html-keyboard-response","112","186991","0.0-2.0-1.5-3.5","jn8","[""r""]","","null","<svg viewBox=""0 0 100 100"" > <path d=""M 50 52 L 50 48"" stroke=""black"" stroke-width="".5""/> <path d=""M 52 50 L 48 50"" stroke=""black"" stroke-width="".5""/>","null","","","","","",""
"","html-keyboard-response","113","188246","0.0-2.0-1.5-4.5","jn8","[""r""]","","1252.4000000953674","<svg viewBox=""0 0 100 100""><text dominant-baseline=""middle"" x=""50"" y=""50"" class=""bacs1"">V</text></svg>","z","RSVPtest","g","1","1","true",""
"","html-keyboard-response","114","190748","0.0-2.0-2.5","jn8","[""r""]","","null","<p style=""font-size:300%;"">Correct!</p>","null","","","","","",""
"","html-keyboard-response","115","192177","0.0-2.0-0.6","jn8","[""r""]","","null","<svg viewBox=""0 0 100 100"" > <path d=""M 50 52 L 50 48"" stroke=""black"" stroke-width="".5""/> <path d=""M 52 50 L 48 50"" stroke=""black"" stroke-width="".5""/>","null","","","","","",""
"","html-keyboard-response","116","192930","0.0-2.0-1.6-0.6","jn8","[""r""]","","null","[""<svg viewBox=\""0 0 100 100\"" >"",""<path d=\""M 50 52 L 50 48\"" stroke=\""black\"" stroke-width=\"".5\""/>"",""<path d=\""M 52 50 L 48 50\"" stroke=\""black\"" stroke-width=\"".5\""/>"",""<text dominant-baseline=\""middle\"" x=\""50\"" y=\""50\"" fill=red transform=\""translate(26 15)\"" class=\""bacs2\"">H</text>"",""<text dominant-baseline=\""middle\"" x=\""50\"" y=\""50\"" fill=black transform=\""translate(-26 15)\"" class=\""bacs2\"">Y</text>"",""<text dominant-baseline=\""middle\"" x=\""50\"" y=\""50\"" fill=black transform=\""translate(0 -30)\"" class=\""bacs1\"">d</text>"",""</svg>""]","null","","","","","",""
"","html-keyboard-response","117","193183","0.0-2.0-1.6-1.6","jn8","[""r""]","","null","<svg viewBox=""0 0 100 100"" > <path d=""M 50 52 L 50 48"" stroke=""black"" stroke-width="".5""/> <path d=""M 52 50 L 48 50"" stroke=""black"" stroke-width="".5""/>","null","","","","","",""
"","html-keyboard-response","118","193285","0.0-2.0-1.6-2.6","jn8","[""r""]","","null","[""<svg viewBox=\""0 0 100 100\"" >"",""<path d=\""M 50 52 L 50 48\"" stroke=\""black\"" stroke-width=\"".5\""/>"",""<path d=\""M 52 50 L 48 50\"" stroke=\""black\"" stroke-width=\"".5\""/>"",""<text dominant-baseline=\""middle\"" text-anchor= \""middle\"" x=\""50\"" y=\""50\"" fill=\""black\"" transform=\""translate(26 15)\"">X</text><text dominant-baseline=\""middle\"" text-anchor= \""middle\"" x=\""50\"" y=\""50\"" fill=\""black\"" transform=\""translate(31 15)\"">X</text><text dominant-baseline=\""middle\"" text-anchor= \""middle\"" x=\""50\"" y=\""50\"" fill=\""black\"" transform=\""translate(21 15)\"">X</text>"",""<text dominant-baseline=\""middle\"" text-anchor= \""middle\"" x=\""50\"" y=\""50\"" fill=\""black\"" transform=\""translate(-26 15)\"">X</text><text dominant-baseline=\""middle\"" text-anchor= \""middle\"" x=\""50\"" y=\""50\"" fill=\""black\"" transform=\""translate(-21 15)\"">X</text><text dominant-baseline=\""middle\"" text-anchor= \""middle\"" x=\""50\"" y=\""50\"" fill=\""black\"" transform=\""translate(-31 15)\"">X</text>"",""<text dominant-baseline=\""middle\"" text-anchor= \""middle\"" x=\""50\"" y=\""50\"" fill=\""black\"" transform=\""translate(0 -30)\"">X</text><text dominant-baseline=\""middle\"" text-anchor= \""middle\"" x=\""50\"" y=\""50\"" fill=\""black\"" transform=\""translate(5 -30)\"">X</text><text dominant-baseline=\""middle\"" text-anchor= \""middle\"" x=\""50\"" y=\""50\"" fill=\""black\"" transform=\""translate(-5 -30)\"">X</text>"",""</svg>""]","null","","","","","",""
"","html-keyboard-response","119","194286","0.0-2.0-1.6-3.6","jn8","[""r""]","","null","<svg viewBox=""0 0 100 100"" > <path d=""M 50 52 L 50 48"" stroke=""black"" stroke-width="".5""/> <path d=""M 52 50 L 48 50"" stroke=""black"" stroke-width="".5""/>","null","","","","","",""
"","html-keyboard-response","120","195974","0.0-2.0-1.6-4.6","jn8","[""r""]","","1685.7000000476837","<svg viewBox=""0 0 100 100""><text dominant-baseline=""middle"" x=""50"" y=""50"" class=""bacs2"">u</text></svg>","z","RSVPtest","r","0","3","false",""
"","html-keyboard-response","121","198477","0.0-2.0-2.6","jn8","[""r""]","","null","<p style=""font-size:300%;"">Miss.</p>","null","","","","","",""
"","html-keyboard-response","122","199906","0.0-2.0-0.7","jn8","[""r""]","","null","<svg viewBox=""0 0 100 100"" > <path d=""M 50 52 L 50 48"" stroke=""black"" stroke-width="".5""/> <path d=""M 52 50 L 48 50"" stroke=""black"" stroke-width="".5""/>","null","","","","","",""
"","html-keyboard-response","123","200658","0.0-2.0-1.7-0.7","jn8","[""r""]","","null","[""<svg viewBox=\""0 0 100 100\"" >"",""<path d=\""M 50 52 L 50 48\"" stroke=\""black\"" stroke-width=\"".5\""/>"",""<path d=\""M 52 50 L 48 50\"" stroke=\""black\"" stroke-width=\"".5\""/>"",""<text dominant-baseline=\""middle\"" x=\""50\"" y=\""50\"" fill=black transform=\""translate(0 30)\"" class=\""bacs1\"">I</text>"",""<text dominant-baseline=\""middle\"" x=\""50\"" y=\""50\"" fill=black transform=\""translate(-26 -15)\"" class=\""bacs2\"">x</text>"",""<text dominant-baseline=\""middle\"" x=\""50\"" y=\""50\"" fill=black transform=\""translate(26 -15)\"" class=\""bacs2\"">n</text>"",""</svg>""]","null","","","","","",""
"","html-keyboard-response","124","200910","0.0-2.0-1.7-1.7","jn8","[""r""]","","null","<svg viewBox=""0 0 100 100"" > <path d=""M 50 52 L 50 48"" stroke=""black"" stroke-width="".5""/> <path d=""M 52 50 L 48 50"" stroke=""black"" stroke-width="".5""/>","null","","","","","",""
"","html-keyboard-response","125","201012","0.0-2.0-1.7-2.7","jn8","[""r""]","","null","[""<svg viewBox=\""0 0 100 100\"" >"",""<path d=\""M 50 52 L 50 48\"" stroke=\""black\"" stroke-width=\"".5\""/>"",""<path d=\""M 52 50 L 48 50\"" stroke=\""black\"" stroke-width=\"".5\""/>"",""<text dominant-baseline=\""middle\"" text-anchor= \""middle\"" x=\""50\"" y=\""50\"" fill=\""black\"" transform=\""translate(0 30)\"">X</text><text dominant-baseline=\""middle\"" text-anchor= \""middle\"" x=\""50\"" y=\""50\"" fill=\""black\"" transform=\""translate(5 30)\"">X</text><text dominant-baseline=\""middle\"" text-anchor= \""middle\"" x=\""50\"" y=\""50\"" fill=\""black\"" transform=\""translate(-5 30)\"">X</text>"",""<text dominant-baseline=\""middle\"" text-anchor= \""middle\"" x=\""50\"" y=\""50\"" fill=\""black\"" transform=\""translate(-26 -15)\"">X</text><text dominant-baseline=\""middle\"" text-anchor= \""middle\"" x=\""50\"" y=\""50\"" fill=\""black\"" transform=\""translate(-21 -15)\"">X</text><text dominant-baseline=\""middle\"" text-anchor= \""middle\"" x=\""50\"" y=\""50\"" fill=\""black\"" transform=\""translate(-31 -15)\"">X</text>"",""<text dominant-baseline=\""middle\"" text-anchor= \""middle\"" x=\""50\"" y=\""50\"" fill=\""black\"" transform=\""translate(26 -15)\"">X</text><text dominant-baseline=\""middle\"" text-anchor= \""middle\"" x=\""50\"" y=\""50\"" fill=\""black\"" transform=\""translate(31 -15)\"">X</text><text dominant-baseline=\""middle\"" text-anchor= \""middle\"" x=\""50\"" y=\""50\"" fill=\""black\"" transform=\""translate(21 -15)\"">X</text>"",""</svg>""]","null","","","","","",""
"","html-keyboard-response","126","202014","0.0-2.0-1.7-3.7","jn8","[""r""]","","null","<svg viewBox=""0 0 100 100"" > <path d=""M 50 52 L 50 48"" stroke=""black"" stroke-width="".5""/> <path d=""M 52 50 L 48 50"" stroke=""black"" stroke-width="".5""/>","null","","","","","",""
"","html-keyboard-response","127","203110","0.0-2.0-1.7-4.7","jn8","[""r""]","","1093.4000000953674","<svg viewBox=""0 0 100 100""><text dominant-baseline=""middle"" x=""50"" y=""50"" class=""bacs2"">n</text></svg>","z","RSVPtest","b","3","2","true",""
"","html-keyboard-response","128","205612","0.0-2.0-2.7","jn8","[""r""]","","null","<p style=""font-size:300%;"">Correct!</p>","null","","","","","",""
"","html-keyboard-response","129","207041","0.0-2.0-0.8","jn8","[""r""]","","null","<svg viewBox=""0 0 100 100"" > <path d=""M 50 52 L 50 48"" stroke=""black"" stroke-width="".5""/> <path d=""M 52 50 L 48 50"" stroke=""black"" stroke-width="".5""/>","null","","","","","",""
"","html-keyboard-response","130","207794","0.0-2.0-1.8-0.8","jn8","[""r""]","","null","[""<svg viewBox=\""0 0 100 100\"" >"",""<path d=\""M 50 52 L 50 48\"" stroke=\""black\"" stroke-width=\"".5\""/>"",""<path d=\""M 52 50 L 48 50\"" stroke=\""black\"" stroke-width=\"".5\""/>"",""<text dominant-baseline=\""middle\"" x=\""50\"" y=\""50\"" fill=lime transform=\""translate(0 30)\"" class=\""bacs1\"">M</text>"",""<text dominant-baseline=\""middle\"" x=\""50\"" y=\""50\"" fill=black transform=\""translate(-26 -15)\"" class=\""bacs1\"">P</text>"",""<text dominant-baseline=\""middle\"" x=\""50\"" y=\""50\"" fill=black transform=\""translate(26 -15)\"" class=\""bacs1\"">i</text>"",""</svg>""]","null","","","","","",""
"","html-keyboard-response","131","208046","0.0-2.0-1.8-1.8","jn8","[""r""]","","null","<svg viewBox=""0 0 100 100"" > <path d=""M 50 52 L 50 48"" stroke=""black"" stroke-width="".5""/> <path d=""M 52 50 L 48 50"" stroke=""black"" stroke-width="".5""/>","null","","","","","",""
"","html-keyboard-response","132","208148","0.0-2.0-1.8-2.8","jn8","[""r""]","","null","[""<svg viewBox=\""0 0 100 100\"" >"",""<path d=\""M 50 52 L 50 48\"" stroke=\""black\"" stroke-width=\"".5\""/>"",""<path d=\""M 52 50 L 48 50\"" stroke=\""black\"" stroke-width=\"".5\""/>"",""<text dominant-baseline=\""middle\"" text-anchor= \""middle\"" x=\""50\"" y=\""50\"" fill=\""black\"" transform=\""translate(0 30)\"">X</text><text dominant-baseline=\""middle\"" text-anchor= \""middle\"" x=\""50\"" y=\""50\"" fill=\""black\"" transform=\""translate(5 30)\"">X</text><text dominant-baseline=\""middle\"" text-anchor= \""middle\"" x=\""50\"" y=\""50\"" fill=\""black\"" transform=\""translate(-5 30)\"">X</text>"",""<text dominant-baseline=\""middle\"" text-anchor= \""middle\"" x=\""50\"" y=\""50\"" fill=\""black\"" transform=\""translate(-26 -15)\"">X</text><text dominant-baseline=\""middle\"" text-anchor= \""middle\"" x=\""50\"" y=\""50\"" fill=\""black\"" transform=\""translate(-21 -15)\"">X</text><text dominant-baseline=\""middle\"" text-anchor= \""middle\"" x=\""50\"" y=\""50\"" fill=\""black\"" transform=\""translate(-31 -15)\"">X</text>"",""<text dominant-baseline=\""middle\"" text-anchor= \""middle\"" x=\""50\"" y=\""50\"" fill=\""black\"" transform=\""translate(26 -15)\"">X</text><text dominant-baseline=\""middle\"" text-anchor= \""middle\"" x=\""50\"" y=\""50\"" fill=\""black\"" transform=\""translate(31 -15)\"">X</text><text dominant-baseline=\""middle\"" text-anchor= \""middle\"" x=\""50\"" y=\""50\"" fill=\""black\"" transform=\""translate(21 -15)\"">X</text>"",""</svg>""]","null","","","","","",""
"","html-keyboard-response","133","209150","0.0-2.0-1.8-3.8","jn8","[""r""]","","null","<svg viewBox=""0 0 100 100"" > <path d=""M 50 52 L 50 48"" stroke=""black"" stroke-width="".5""/> <path d=""M 52 50 L 48 50"" stroke=""black"" stroke-width="".5""/>","null","","","","","",""
"","html-keyboard-response","134","209958","0.0-2.0-1.8-4.8","jn8","[""r""]","","805.9000000953674","<svg viewBox=""0 0 100 100""><text dominant-baseline=""middle"" x=""50"" y=""50"" class=""bacs1"">G</text></svg>","m","RSVPtest","g","0","3","true",""
"","html-keyboard-response","135","212461","0.0-2.0-2.8","jn8","[""r""]","","null","<p style=""font-size:300%;"">Correct!</p>","null","","","","","",""
"","html-keyboard-response","136","213890","0.0-2.0-0.9","jn8","[""r""]","","null","<svg viewBox=""0 0 100 100"" > <path d=""M 50 52 L 50 48"" stroke=""black"" stroke-width="".5""/> <path d=""M 52 50 L 48 50"" stroke=""black"" stroke-width="".5""/>","null","","","","","",""
"","html-keyboard-response","137","214643","0.0-2.0-1.9-0.9","jn8","[""r""]","","null","[""<svg viewBox=\""0 0 100 100\"" >"",""<path d=\""M 50 52 L 50 48\"" stroke=\""black\"" stroke-width=\"".5\""/>"",""<path d=\""M 52 50 L 48 50\"" stroke=\""black\"" stroke-width=\"".5\""/>"",""<text dominant-baseline=\""middle\"" x=\""50\"" y=\""50\"" fill=black transform=\""translate(26 15)\"" class=\""bacs2\"">L</text>"",""<text dominant-baseline=\""middle\"" x=\""50\"" y=\""50\"" fill=red transform=\""translate(-26 15)\"" class=\""bacs2\"">A</text>"",""<text dominant-baseline=\""middle\"" x=\""50\"" y=\""50\"" fill=black transform=\""translate(0 -30)\"" class=\""bacs1\"">s</text>"",""</svg>""]","null","","","","","",""
"","html-keyboard-response","138","214894","0.0-2.0-1.9-1.9","jn8","[""r""]","","null","<svg viewBox=""0 0 100 100"" > <path d=""M 50 52 L 50 48"" stroke=""black"" stroke-width="".5""/> <path d=""M 52 50 L 48 50"" stroke=""black"" stroke-width="".5""/>","null","","","","","",""
"","html-keyboard-response","139","214996","0.0-2.0-1.9-2.9","jn8","[""r""]","","null","[""<svg viewBox=\""0 0 100 100\"" >"",""<path d=\""M 50 52 L 50 48\"" stroke=\""black\"" stroke-width=\"".5\""/>"",""<path d=\""M 52 50 L 48 50\"" stroke=\""black\"" stroke-width=\"".5\""/>"",""<text dominant-baseline=\""middle\"" text-anchor= \""middle\"" x=\""50\"" y=\""50\"" fill=\""black\"" transform=\""translate(26 15)\"">X</text><text dominant-baseline=\""middle\"" text-anchor= \""middle\"" x=\""50\"" y=\""50\"" fill=\""black\"" transform=\""translate(31 15)\"">X</text><text dominant-baseline=\""middle\"" text-anchor= \""middle\"" x=\""50\"" y=\""50\"" fill=\""black\"" transform=\""translate(21 15)\"">X</text>"",""<text dominant-baseline=\""middle\"" text-anchor= \""middle\"" x=\""50\"" y=\""50\"" fill=\""black\"" transform=\""translate(-26 15)\"">X</text><text dominant-baseline=\""middle\"" text-anchor= \""middle\"" x=\""50\"" y=\""50\"" fill=\""black\"" transform=\""translate(-21 15)\"">X</text><text dominant-baseline=\""middle\"" text-anchor= \""middle\"" x=\""50\"" y=\""50\"" fill=\""black\"" transform=\""translate(-31 15)\"">X</text>"",""<text dominant-baseline=\""middle\"" text-anchor= \""middle\"" x=\""50\"" y=\""50\"" fill=\""black\"" transform=\""translate(0 -30)\"">X</text><text dominant-baseline=\""middle\"" text-anchor= \""middle\"" x=\""50\"" y=\""50\"" fill=\""black\"" transform=\""translate(5 -30)\"">X</text><text dominant-baseline=\""middle\"" text-anchor= \""middle\"" x=\""50\"" y=\""50\"" fill=\""black\"" transform=\""translate(-5 -30)\"">X</text>"",""</svg>""]","null","","","","","",""
"","html-keyboard-response","140","215997","0.0-2.0-1.9-3.9","jn8","[""r""]","","null","<svg viewBox=""0 0 100 100"" > <path d=""M 50 52 L 50 48"" stroke=""black"" stroke-width="".5""/> <path d=""M 52 50 L 48 50"" stroke=""black"" stroke-width="".5""/>","null","","","","","",""
"","html-keyboard-response","141","217214","0.0-2.0-1.9-4.9","jn8","[""r""]","","1213.5","<svg viewBox=""0 0 100 100""><text dominant-baseline=""middle"" x=""50"" y=""50"" class=""bacs1"">G</text></svg>","z","RSVPtest","r","1","3","false",""
"","html-keyboard-response","142","219718","0.0-2.0-2.9","jn8","[""r""]","","null","<p style=""font-size:300%;"">Miss.</p>","null","","","","","",""
"","html-keyboard-response","143","221147","0.0-2.0-0.10","jn8","[""r""]","","null","<svg viewBox=""0 0 100 100"" > <path d=""M 50 52 L 50 48"" stroke=""black"" stroke-width="".5""/> <path d=""M 52 50 L 48 50"" stroke=""black"" stroke-width="".5""/>","null","","","","","",""
"","html-keyboard-response","144","221900","0.0-2.0-1.10-0.10","jn8","[""r""]","","null","[""<svg viewBox=\""0 0 100 100\"" >"",""<path d=\""M 50 52 L 50 48\"" stroke=\""black\"" stroke-width=\"".5\""/>"",""<path d=\""M 52 50 L 48 50\"" stroke=\""black\"" stroke-width=\"".5\""/>"",""<text dominant-baseline=\""middle\"" x=\""50\"" y=\""50\"" fill=black transform=\""translate(0 30)\"" class=\""bacs1\"">F</text>"",""<text dominant-baseline=\""middle\"" x=\""50\"" y=\""50\"" fill=black transform=\""translate(-26 -15)\"" class=\""bacs1\"">C</text>"",""<text dominant-baseline=\""middle\"" x=\""50\"" y=\""50\"" fill=lime transform=\""translate(26 -15)\"" class=\""bacs2\"">E</text>"",""</svg>""]","null","","","","","",""
"","html-keyboard-response","145","222152","0.0-2.0-1.10-1.10","jn8","[""r""]","","null","<svg viewBox=""0 0 100 100"" > <path d=""M 50 52 L 50 48"" stroke=""black"" stroke-width="".5""/> <path d=""M 52 50 L 48 50"" stroke=""black"" stroke-width="".5""/>","null","","","","","",""
"","html-keyboard-response","146","222254","0.0-2.0-1.10-2.10","jn8","[""r""]","","null","[""<svg viewBox=\""0 0 100 100\"" >"",""<path d=\""M 50 52 L 50 48\"" stroke=\""black\"" stroke-width=\"".5\""/>"",""<path d=\""M 52 50 L 48 50\"" stroke=\""black\"" stroke-width=\"".5\""/>"",""<text dominant-baseline=\""middle\"" text-anchor= \""middle\"" x=\""50\"" y=\""50\"" fill=\""black\"" transform=\""translate(0 30)\"">X</text><text dominant-baseline=\""middle\"" text-anchor= \""middle\"" x=\""50\"" y=\""50\"" fill=\""black\"" transform=\""translate(5 30)\"">X</text><text dominant-baseline=\""middle\"" text-anchor= \""middle\"" x=\""50\"" y=\""50\"" fill=\""black\"" transform=\""translate(-5 30)\"">X</text>"",""<text dominant-baseline=\""middle\"" text-anchor= \""middle\"" x=\""50\"" y=\""50\"" fill=\""black\"" transform=\""translate(-26 -15)\"">X</text><text dominant-baseline=\""middle\"" text-anchor= \""middle\"" x=\""50\"" y=\""50\"" fill=\""black\"" transform=\""translate(-21 -15)\"">X</text><text dominant-baseline=\""middle\"" text-anchor= \""middle\"" x=\""50\"" y=\""50\"" fill=\""black\"" transform=\""translate(-31 -15)\"">X</text>"",""<text dominant-baseline=\""middle\"" text-anchor= \""middle\"" x=\""50\"" y=\""50\"" fill=\""black\"" transform=\""translate(26 -15)\"">X</text><text dominant-baseline=\""middle\"" text-anchor= \""middle\"" x=\""50\"" y=\""50\"" fill=\""black\"" transform=\""translate(31 -15)\"">X</text><text dominant-baseline=\""middle\"" text-anchor= \""middle\"" x=\""50\"" y=\""50\"" fill=\""black\"" transform=\""translate(21 -15)\"">X</text>"",""</svg>""]","null","","","","","",""
"","html-keyboard-response","147","223256","0.0-2.0-1.10-3.10","jn8","[""r""]","","null","<svg viewBox=""0 0 100 100"" > <path d=""M 50 52 L 50 48"" stroke=""black"" stroke-width="".5""/> <path d=""M 52 50 L 48 50"" stroke=""black"" stroke-width="".5""/>","null","","","","","",""
"","html-keyboard-response","148","224878","0.0-2.0-1.10-4.10","jn8","[""r""]","","1620.5","<svg viewBox=""0 0 100 100""><text dominant-baseline=""middle"" x=""50"" y=""50"" class=""bacs2"">E</text></svg>","z","RSVPtest","g","2","2","true",""
"","html-keyboard-response","149","227382","0.0-2.0-2.10","jn8","[""r""]","","null","<p style=""font-size:300%;"">Correct!</p>","null","","","","","",""
"","html-keyboard-response","150","228812","0.0-2.0-0.11","jn8","[""r""]","","null","<svg viewBox=""0 0 100 100"" > <path d=""M 50 52 L 50 48"" stroke=""black"" stroke-width="".5""/> <path d=""M 52 50 L 48 50"" stroke=""black"" stroke-width="".5""/>","null","","","","","",""
"","html-keyboard-response","151","229564","0.0-2.0-1.11-0.11","jn8","[""r""]","","null","[""<svg viewBox=\""0 0 100 100\"" >"",""<path d=\""M 50 52 L 50 48\"" stroke=\""black\"" stroke-width=\"".5\""/>"",""<path d=\""M 52 50 L 48 50\"" stroke=\""black\"" stroke-width=\"".5\""/>"",""<text dominant-baseline=\""middle\"" x=\""50\"" y=\""50\"" fill=black transform=\""translate(26 15)\"" class=\""bacs1\"">L</text>"",""<text dominant-baseline=\""middle\"" x=\""50\"" y=\""50\"" fill=black transform=\""translate(-26 15)\"" class=\""bacs1\"">G</text>"",""<text dominant-baseline=\""middle\"" x=\""50\"" y=\""50\"" fill=black transform=\""translate(0 -30)\"" class=\""bacs2\"">e</text>"",""</svg>""]","null","","","","","",""
"","html-keyboard-response","152","229816","0.0-2.0-1.11-1.11","jn8","[""r""]","","null","<svg viewBox=""0 0 100 100"" > <path d=""M 50 52 L 50 48"" stroke=""black"" stroke-width="".5""/> <path d=""M 52 50 L 48 50"" stroke=""black"" stroke-width="".5""/>","null","","","","","",""
"","html-keyboard-response","153","229918","0.0-2.0-1.11-2.11","jn8","[""r""]","","null","[""<svg viewBox=\""0 0 100 100\"" >"",""<path d=\""M 50 52 L 50 48\"" stroke=\""black\"" stroke-width=\"".5\""/>"",""<path d=\""M 52 50 L 48 50\"" stroke=\""black\"" stroke-width=\"".5\""/>"",""<text dominant-baseline=\""middle\"" text-anchor= \""middle\"" x=\""50\"" y=\""50\"" fill=\""black\"" transform=\""translate(26 15)\"">X</text><text dominant-baseline=\""middle\"" text-anchor= \""middle\"" x=\""50\"" y=\""50\"" fill=\""black\"" transform=\""translate(31 15)\"">X</text><text dominant-baseline=\""middle\"" text-anchor= \""middle\"" x=\""50\"" y=\""50\"" fill=\""black\"" transform=\""translate(21 15)\"">X</text>"",""<text dominant-baseline=\""middle\"" text-anchor= \""middle\"" x=\""50\"" y=\""50\"" fill=\""black\"" transform=\""translate(-26 15)\"">X</text><text dominant-baseline=\""middle\"" text-anchor= \""middle\"" x=\""50\"" y=\""50\"" fill=\""black\"" transform=\""translate(-21 15)\"">X</text><text dominant-baseline=\""middle\"" text-anchor= \""middle\"" x=\""50\"" y=\""50\"" fill=\""black\"" transform=\""translate(-31 15)\"">X</text>"",""<text dominant-baseline=\""middle\"" text-anchor= \""middle\"" x=\""50\"" y=\""50\"" fill=\""black\"" transform=\""translate(0 -30)\"">X</text><text dominant-baseline=\""middle\"" text-anchor= \""middle\"" x=\""50\"" y=\""50\"" fill=\""black\"" transform=\""translate(5 -30)\"">X</text><text dominant-baseline=\""middle\"" text-anchor= \""middle\"" x=\""50\"" y=\""50\"" fill=\""black\"" transform=\""translate(-5 -30)\"">X</text>"",""</svg>""]","null","","","","","",""
"","html-keyboard-response","154","230919","0.0-2.0-1.11-3.11","jn8","[""r""]","","null","<svg viewBox=""0 0 100 100"" > <path d=""M 50 52 L 50 48"" stroke=""black"" stroke-width="".5""/> <path d=""M 52 50 L 48 50"" stroke=""black"" stroke-width="".5""/>","null","","","","","",""
"","html-keyboard-response","155","231782","0.0-2.0-1.11-4.11","jn8","[""r""]","","859.5999999046326","<svg viewBox=""0 0 100 100""><text dominant-baseline=""middle"" x=""50"" y=""50"" class=""bacs1"">D</text></svg>","m","RSVPtest","b","3","3","true",""
"","html-keyboard-response","156","234285","0.0-2.0-2.11","jn8","[""r""]","","null","<p style=""font-size:300%;"">Correct!</p>","null","","","","","",""
"","html-keyboard-response","157","235714","0.0-2.0-0.12","jn8","[""r""]","","null","<svg viewBox=""0 0 100 100"" > <path d=""M 50 52 L 50 48"" stroke=""black"" stroke-width="".5""/> <path d=""M 52 50 L 48 50"" stroke=""black"" stroke-width="".5""/>","null","","","","","",""
"","html-keyboard-response","158","236467","0.0-2.0-1.12-0.12","jn8","[""r""]","","null","[""<svg viewBox=\""0 0 100 100\"" >"",""<path d=\""M 50 52 L 50 48\"" stroke=\""black\"" stroke-width=\"".5\""/>"",""<path d=\""M 52 50 L 48 50\"" stroke=\""black\"" stroke-width=\"".5\""/>"",""<text dominant-baseline=\""middle\"" x=\""50\"" y=\""50\"" fill=red transform=\""translate(0 30)\"" class=\""bacs2\"">o</text>"",""<text dominant-baseline=\""middle\"" x=\""50\"" y=\""50\"" fill=black transform=\""translate(-26 -15)\"" class=\""bacs2\"">S</text>"",""<text dominant-baseline=\""middle\"" x=\""50\"" y=\""50\"" fill=black transform=\""translate(26 -15)\"" class=\""bacs1\"">E</text>"",""</svg>""]","null","","","","","",""
"","html-keyboard-response","159","236718","0.0-2.0-1.12-1.12","jn8","[""r""]","","null","<svg viewBox=""0 0 100 100"" > <path d=""M 50 52 L 50 48"" stroke=""black"" stroke-width="".5""/> <path d=""M 52 50 L 48 50"" stroke=""black"" stroke-width="".5""/>","null","","","","","",""
"","html-keyboard-response","160","236820","0.0-2.0-1.12-2.12","jn8","[""r""]","","null","[""<svg viewBox=\""0 0 100 100\"" >"",""<path d=\""M 50 52 L 50 48\"" stroke=\""black\"" stroke-width=\"".5\""/>"",""<path d=\""M 52 50 L 48 50\"" stroke=\""black\"" stroke-width=\"".5\""/>"",""<text dominant-baseline=\""middle\"" text-anchor= \""middle\"" x=\""50\"" y=\""50\"" fill=\""black\"" transform=\""translate(0 30)\"">X</text><text dominant-baseline=\""middle\"" text-anchor= \""middle\"" x=\""50\"" y=\""50\"" fill=\""black\"" transform=\""translate(5 30)\"">X</text><text dominant-baseline=\""middle\"" text-anchor= \""middle\"" x=\""50\"" y=\""50\"" fill=\""black\"" transform=\""translate(-5 30)\"">X</text>"",""<text dominant-baseline=\""middle\"" text-anchor= \""middle\"" x=\""50\"" y=\""50\"" fill=\""black\"" transform=\""translate(-26 -15)\"">X</text><text dominant-baseline=\""middle\"" text-anchor= \""middle\"" x=\""50\"" y=\""50\"" fill=\""black\"" transform=\""translate(-21 -15)\"">X</text><text dominant-baseline=\""middle\"" text-anchor= \""middle\"" x=\""50\"" y=\""50\"" fill=\""black\"" transform=\""translate(-31 -15)\"">X</text>"",""<text dominant-baseline=\""middle\"" text-anchor= \""middle\"" x=\""50\"" y=\""50\"" fill=\""black\"" transform=\""translate(26 -15)\"">X</text><text dominant-baseline=\""middle\"" text-anchor= \""middle\"" x=\""50\"" y=\""50\"" fill=\""black\"" transform=\""translate(31 -15)\"">X</text><text dominant-baseline=\""middle\"" text-anchor= \""middle\"" x=\""50\"" y=\""50\"" fill=\""black\"" transform=\""translate(21 -15)\"">X</text>"",""</svg>""]","null","","","","","",""
"","html-keyboard-response","161","237821","0.0-2.0-1.12-3.12","jn8","[""r""]","","null","<svg viewBox=""0 0 100 100"" > <path d=""M 50 52 L 50 48"" stroke=""black"" stroke-width="".5""/> <path d=""M 52 50 L 48 50"" stroke=""black"" stroke-width="".5""/>","null","","","","","",""
"","html-keyboard-response","162","238798","0.0-2.0-1.12-4.12","jn8","[""r""]","","974.2000000476837","<svg viewBox=""0 0 100 100""><text dominant-baseline=""middle"" x=""50"" y=""50"" class=""bacs1"">O</text></svg>","m","RSVPtest","r","0","3","true",""
"","html-keyboard-response","163","241301","0.0-2.0-2.12","jn8","[""r""]","","null","<p style=""font-size:300%;"">Correct!</p>","null","","","","","",""
"","html-keyboard-response","164","242730","0.0-2.0-0.13","jn8","[""r""]","","null","<svg viewBox=""0 0 100 100"" > <path d=""M 50 52 L 50 48"" stroke=""black"" stroke-width="".5""/> <path d=""M 52 50 L 48 50"" stroke=""black"" stroke-width="".5""/>","null","","","","","",""
"","html-keyboard-response","165","243484","0.0-2.0-1.13-0.13","jn8","[""r""]","","null","[""<svg viewBox=\""0 0 100 100\"" >"",""<path d=\""M 50 52 L 50 48\"" stroke=\""black\"" stroke-width=\"".5\""/>"",""<path d=\""M 52 50 L 48 50\"" stroke=\""black\"" stroke-width=\"".5\""/>"",""<text dominant-baseline=\""middle\"" x=\""50\"" y=\""50\"" fill=black transform=\""translate(26 15)\"" class=\""bacs2\"">S</text>"",""<text dominant-baseline=\""middle\"" x=\""50\"" y=\""50\"" fill=black transform=\""translate(-26 15)\"" class=\""bacs1\"">R</text>"",""<text dominant-baseline=\""middle\"" x=\""50\"" y=\""50\"" fill=black transform=\""translate(0 -30)\"" class=\""bacs2\"">E</text>"",""</svg>""]","null","","","","","",""
"","html-keyboard-response","166","243735","0.0-2.0-1.13-1.13","jn8","[""r""]","","null","<svg viewBox=""0 0 100 100"" > <path d=""M 50 52 L 50 48"" stroke=""black"" stroke-width="".5""/> <path d=""M 52 50 L 48 50"" stroke=""black"" stroke-width="".5""/>","null","","","","","",""
"","html-keyboard-response","167","243837","0.0-2.0-1.13-2.13","jn8","[""r""]","","null","[""<svg viewBox=\""0 0 100 100\"" >"",""<path d=\""M 50 52 L 50 48\"" stroke=\""black\"" stroke-width=\"".5\""/>"",""<path d=\""M 52 50 L 48 50\"" stroke=\""black\"" stroke-width=\"".5\""/>"",""<text dominant-baseline=\""middle\"" text-anchor= \""middle\"" x=\""50\"" y=\""50\"" fill=\""black\"" transform=\""translate(26 15)\"">X</text><text dominant-baseline=\""middle\"" text-anchor= \""middle\"" x=\""50\"" y=\""50\"" fill=\""black\"" transform=\""translate(31 15)\"">X</text><text dominant-baseline=\""middle\"" text-anchor= \""middle\"" x=\""50\"" y=\""50\"" fill=\""black\"" transform=\""translate(21 15)\"">X</text>"",""<text dominant-baseline=\""middle\"" text-anchor= \""middle\"" x=\""50\"" y=\""50\"" fill=\""black\"" transform=\""translate(-26 15)\"">X</text><text dominant-baseline=\""middle\"" text-anchor= \""middle\"" x=\""50\"" y=\""50\"" fill=\""black\"" transform=\""translate(-21 15)\"">X</text><text dominant-baseline=\""middle\"" text-anchor= \""middle\"" x=\""50\"" y=\""50\"" fill=\""black\"" transform=\""translate(-31 15)\"">X</text>"",""<text dominant-baseline=\""middle\"" text-anchor= \""middle\"" x=\""50\"" y=\""50\"" fill=\""black\"" transform=\""translate(0 -30)\"">X</text><text dominant-baseline=\""middle\"" text-anchor= \""middle\"" x=\""50\"" y=\""50\"" fill=\""black\"" transform=\""translate(5 -30)\"">X</text><text dominant-baseline=\""middle\"" text-anchor= \""middle\"" x=\""50\"" y=\""50\"" fill=\""black\"" transform=\""translate(-5 -30)\"">X</text>"",""</svg>""]","null","","","","","",""
"","html-keyboard-response","168","244839","0.0-2.0-1.13-3.13","jn8","[""r""]","","null","<svg viewBox=""0 0 100 100"" > <path d=""M 50 52 L 50 48"" stroke=""black"" stroke-width="".5""/> <path d=""M 52 50 L 48 50"" stroke=""black"" stroke-width="".5""/>","null","","","","","",""
"","html-keyboard-response","169","246238","0.0-2.0-1.13-4.13","jn8","[""r""]","","1396.6000001430511","<svg viewBox=""0 0 100 100""><text dominant-baseline=""middle"" x=""50"" y=""50"" class=""bacs1"">R</text></svg>","z","RSVPtest","b","3","1","true",""
"","html-keyboard-response","170","248740","0.0-2.0-2.13","jn8","[""r""]","","null","<p style=""font-size:300%;"">Correct!</p>","null","","","","","",""
"","html-keyboard-response","171","250169","0.0-2.0-0.14","jn8","[""r""]","","null","<svg viewBox=""0 0 100 100"" > <path d=""M 50 52 L 50 48"" stroke=""black"" stroke-width="".5""/> <path d=""M 52 50 L 48 50"" stroke=""black"" stroke-width="".5""/>","null","","","","","",""
"","html-keyboard-response","172","250923","0.0-2.0-1.14-0.14","jn8","[""r""]","","null","[""<svg viewBox=\""0 0 100 100\"" >"",""<path d=\""M 50 52 L 50 48\"" stroke=\""black\"" stroke-width=\"".5\""/>"",""<path d=\""M 52 50 L 48 50\"" stroke=\""black\"" stroke-width=\"".5\""/>"",""<text dominant-baseline=\""middle\"" x=\""50\"" y=\""50\"" fill=black transform=\""translate(0 30)\"" class=\""bacs2\"">Z</text>"",""<text dominant-baseline=\""middle\"" x=\""50\"" y=\""50\"" fill=red transform=\""translate(-26 -15)\"" class=\""bacs1\"">r</text>"",""<text dominant-baseline=\""middle\"" x=\""50\"" y=\""50\"" fill=black transform=\""translate(26 -15)\"" class=\""bacs2\"">q</text>"",""</svg>""]","null","","","","","",""
"","html-keyboard-response","173","251175","0.0-2.0-1.14-1.14","jn8","[""r""]","","null","<svg viewBox=""0 0 100 100"" > <path d=""M 50 52 L 50 48"" stroke=""black"" stroke-width="".5""/> <path d=""M 52 50 L 48 50"" stroke=""black"" stroke-width="".5""/>","null","","","","","",""
"","html-keyboard-response","174","251277","0.0-2.0-1.14-2.14","jn8","[""r""]","","null","[""<svg viewBox=\""0 0 100 100\"" >"",""<path d=\""M 50 52 L 50 48\"" stroke=\""black\"" stroke-width=\"".5\""/>"",""<path d=\""M 52 50 L 48 50\"" stroke=\""black\"" stroke-width=\"".5\""/>"",""<text dominant-baseline=\""middle\"" text-anchor= \""middle\"" x=\""50\"" y=\""50\"" fill=\""black\"" transform=\""translate(0 30)\"">X</text><text dominant-baseline=\""middle\"" text-anchor= \""middle\"" x=\""50\"" y=\""50\"" fill=\""black\"" transform=\""translate(5 30)\"">X</text><text dominant-baseline=\""middle\"" text-anchor= \""middle\"" x=\""50\"" y=\""50\"" fill=\""black\"" transform=\""translate(-5 30)\"">X</text>"",""<text dominant-baseline=\""middle\"" text-anchor= \""middle\"" x=\""50\"" y=\""50\"" fill=\""black\"" transform=\""translate(-26 -15)\"">X</text><text dominant-baseline=\""middle\"" text-anchor= \""middle\"" x=\""50\"" y=\""50\"" fill=\""black\"" transform=\""translate(-21 -15)\"">X</text><text dominant-baseline=\""middle\"" text-anchor= \""middle\"" x=\""50\"" y=\""50\"" fill=\""black\"" transform=\""translate(-31 -15)\"">X</text>"",""<text dominant-baseline=\""middle\"" text-anchor= \""middle\"" x=\""50\"" y=\""50\"" fill=\""black\"" transform=\""translate(26 -15)\"">X</text><text dominant-baseline=\""middle\"" text-anchor= \""middle\"" x=\""50\"" y=\""50\"" fill=\""black\"" transform=\""translate(31 -15)\"">X</text><text dominant-baseline=\""middle\"" text-anchor= \""middle\"" x=\""50\"" y=\""50\"" fill=\""black\"" transform=\""translate(21 -15)\"">X</text>"",""</svg>""]","null","","","","","",""
"","html-keyboard-response","175","252278","0.0-2.0-1.14-3.14","jn8","[""r""]","","null","<svg viewBox=""0 0 100 100"" > <path d=""M 50 52 L 50 48"" stroke=""black"" stroke-width="".5""/> <path d=""M 52 50 L 48 50"" stroke=""black"" stroke-width="".5""/>","null","","","","","",""
"","html-keyboard-response","176","253566","0.0-2.0-1.14-4.14","jn8","[""r""]","","1285.3000001907349","<svg viewBox=""0 0 100 100""><text dominant-baseline=""middle"" x=""50"" y=""50"" class=""bacs1"">r</text></svg>","z","RSVPtest","r","1","1","true",""
"","html-keyboard-response","177","256069","0.0-2.0-2.14","jn8","[""r""]","","null","<p style=""font-size:300%;"">Correct!</p>","null","","","","","",""
"","html-keyboard-response","178","257498","0.0-2.0-0.15","jn8","[""r""]","","null","<svg viewBox=""0 0 100 100"" > <path d=""M 50 52 L 50 48"" stroke=""black"" stroke-width="".5""/> <path d=""M 52 50 L 48 50"" stroke=""black"" stroke-width="".5""/>","null","","","","","",""
"","html-keyboard-response","179","258251","0.0-2.0-1.15-0.15","jn8","[""r""]","","null","[""<svg viewBox=\""0 0 100 100\"" >"",""<path d=\""M 50 52 L 50 48\"" stroke=\""black\"" stroke-width=\"".5\""/>"",""<path d=\""M 52 50 L 48 50\"" stroke=\""black\"" stroke-width=\"".5\""/>"",""<text dominant-baseline=\""middle\"" x=\""50\"" y=\""50\"" fill=black transform=\""translate(26 15)\"" class=\""bacs1\"">V</text>"",""<text dominant-baseline=\""middle\"" x=\""50\"" y=\""50\"" fill=black transform=\""translate(-26 15)\"" class=\""bacs1\"">N</text>"",""<text dominant-baseline=\""middle\"" x=\""50\"" y=\""50\"" fill=red transform=\""translate(0 -30)\"" class=\""bacs1\"">K</text>"",""</svg>""]","null","","","","","",""
"","html-keyboard-response","180","258504","0.0-2.0-1.15-1.15","jn8","[""r""]","","null","<svg viewBox=""0 0 100 100"" > <path d=""M 50 52 L 50 48"" stroke=""black"" stroke-width="".5""/> <path d=""M 52 50 L 48 50"" stroke=""black"" stroke-width="".5""/>","null","","","","","",""
"","html-keyboard-response","181","258606","0.0-2.0-1.15-2.15","jn8","[""r""]","","null","[""<svg viewBox=\""0 0 100 100\"" >"",""<path d=\""M 50 52 L 50 48\"" stroke=\""black\"" stroke-width=\"".5\""/>"",""<path d=\""M 52 50 L 48 50\"" stroke=\""black\"" stroke-width=\"".5\""/>"",""<text dominant-baseline=\""middle\"" text-anchor= \""middle\"" x=\""50\"" y=\""50\"" fill=\""black\"" transform=\""translate(26 15)\"">X</text><text dominant-baseline=\""middle\"" text-anchor= \""middle\"" x=\""50\"" y=\""50\"" fill=\""black\"" transform=\""translate(31 15)\"">X</text><text dominant-baseline=\""middle\"" text-anchor= \""middle\"" x=\""50\"" y=\""50\"" fill=\""black\"" transform=\""translate(21 15)\"">X</text>"",""<text dominant-baseline=\""middle\"" text-anchor= \""middle\"" x=\""50\"" y=\""50\"" fill=\""black\"" transform=\""translate(-26 15)\"">X</text><text dominant-baseline=\""middle\"" text-anchor= \""middle\"" x=\""50\"" y=\""50\"" fill=\""black\"" transform=\""translate(-21 15)\"">X</text><text dominant-baseline=\""middle\"" text-anchor= \""middle\"" x=\""50\"" y=\""50\"" fill=\""black\"" transform=\""translate(-31 15)\"">X</text>"",""<text dominant-baseline=\""middle\"" text-anchor= \""middle\"" x=\""50\"" y=\""50\"" fill=\""black\"" transform=\""translate(0 -30)\"">X</text><text dominant-baseline=\""middle\"" text-anchor= \""middle\"" x=\""50\"" y=\""50\"" fill=\""black\"" transform=\""translate(5 -30)\"">X</text><text dominant-baseline=\""middle\"" text-anchor= \""middle\"" x=\""50\"" y=\""50\"" fill=\""black\"" transform=\""translate(-5 -30)\"">X</text>"",""</svg>""]","null","","","","","",""
"","html-keyboard-response","182","259608","0.0-2.0-1.15-3.15","jn8","[""r""]","","null","<svg viewBox=""0 0 100 100"" > <path d=""M 50 52 L 50 48"" stroke=""black"" stroke-width="".5""/> <path d=""M 52 50 L 48 50"" stroke=""black"" stroke-width="".5""/>","null","","","","","",""
"","html-keyboard-response","183","260918","0.0-2.0-1.15-4.15","jn8","[""r""]","","1307.4000000953674","<svg viewBox=""0 0 100 100""><text dominant-baseline=""middle"" x=""50"" y=""50"" class=""bacs1"">V</text></svg>","z","RSVPtest","r","2","0","true",""
"","html-keyboard-response","184","263420","0.0-2.0-2.15","jn8","[""r""]","","null","<p style=""font-size:300%;"">Correct!</p>","null","","","","","",""
"","html-keyboard-response","185","264848","0.0-2.0-0.16","jn8","[""r""]","","null","<svg viewBox=""0 0 100 100"" > <path d=""M 50 52 L 50 48"" stroke=""black"" stroke-width="".5""/> <path d=""M 52 50 L 48 50"" stroke=""black"" stroke-width="".5""/>","null","","","","","",""
"","html-keyboard-response","186","265602","0.0-2.0-1.16-0.16","jn8","[""r""]","","null","[""<svg viewBox=\""0 0 100 100\"" >"",""<path d=\""M 50 52 L 50 48\"" stroke=\""black\"" stroke-width=\"".5\""/>"",""<path d=\""M 52 50 L 48 50\"" stroke=\""black\"" stroke-width=\"".5\""/>"",""<text dominant-baseline=\""middle\"" x=\""50\"" y=\""50\"" fill=black transform=\""translate(26 15)\"" class=\""bacs1\"">C</text>"",""<text dominant-baseline=\""middle\"" x=\""50\"" y=\""50\"" fill=lime transform=\""translate(-26 15)\"" class=\""bacs2\"">H</text>"",""<text dominant-baseline=\""middle\"" x=\""50\"" y=\""50\"" fill=black transform=\""translate(0 -30)\"" class=\""bacs1\"">c</text>"",""</svg>""]","null","","","","","",""
"","html-keyboard-response","187","265854","0.0-2.0-1.16-1.16","jn8","[""r""]","","null","<svg viewBox=""0 0 100 100"" > <path d=""M 50 52 L 50 48"" stroke=""black"" stroke-width="".5""/> <path d=""M 52 50 L 48 50"" stroke=""black"" stroke-width="".5""/>","null","","","","","",""
"","html-keyboard-response","188","265956","0.0-2.0-1.16-2.16","jn8","[""r""]","","null","[""<svg viewBox=\""0 0 100 100\"" >"",""<path d=\""M 50 52 L 50 48\"" stroke=\""black\"" stroke-width=\"".5\""/>"",""<path d=\""M 52 50 L 48 50\"" stroke=\""black\"" stroke-width=\"".5\""/>"",""<text dominant-baseline=\""middle\"" text-anchor= \""middle\"" x=\""50\"" y=\""50\"" fill=\""black\"" transform=\""translate(26 15)\"">X</text><text dominant-baseline=\""middle\"" text-anchor= \""middle\"" x=\""50\"" y=\""50\"" fill=\""black\"" transform=\""translate(31 15)\"">X</text><text dominant-baseline=\""middle\"" text-anchor= \""middle\"" x=\""50\"" y=\""50\"" fill=\""black\"" transform=\""translate(21 15)\"">X</text>"",""<text dominant-baseline=\""middle\"" text-anchor= \""middle\"" x=\""50\"" y=\""50\"" fill=\""black\"" transform=\""translate(-26 15)\"">X</text><text dominant-baseline=\""middle\"" text-anchor= \""middle\"" x=\""50\"" y=\""50\"" fill=\""black\"" transform=\""translate(-21 15)\"">X</text><text dominant-baseline=\""middle\"" text-anchor= \""middle\"" x=\""50\"" y=\""50\"" fill=\""black\"" transform=\""translate(-31 15)\"">X</text>"",""<text dominant-baseline=\""middle\"" text-anchor= \""middle\"" x=\""50\"" y=\""50\"" fill=\""black\"" transform=\""translate(0 -30)\"">X</text><text dominant-baseline=\""middle\"" text-anchor= \""middle\"" x=\""50\"" y=\""50\"" fill=\""black\"" transform=\""translate(5 -30)\"">X</text><text dominant-baseline=\""middle\"" text-anchor= \""middle\"" x=\""50\"" y=\""50\"" fill=\""black\"" transform=\""translate(-5 -30)\"">X</text>"",""</svg>""]","null","","","","","",""
"","html-keyboard-response","189","266959","0.0-2.0-1.16-3.16","jn8","[""r""]","","null","<svg viewBox=""0 0 100 100"" > <path d=""M 50 52 L 50 48"" stroke=""black"" stroke-width="".5""/> <path d=""M 52 50 L 48 50"" stroke=""black"" stroke-width="".5""/>","null","","","","","",""
"","html-keyboard-response","190","267966","0.0-2.0-1.16-4.16","jn8","[""r""]","","1005","<svg viewBox=""0 0 100 100""><text dominant-baseline=""middle"" x=""50"" y=""50"" class=""bacs2"">a</text></svg>","m","RSVPtest","g","1","3","true",""
"","html-keyboard-response","191","270468","0.0-2.0-2.16","jn8","[""r""]","","null","<p style=""font-size:300%;"">Correct!</p>","null","","","","","",""
"","html-keyboard-response","192","271897","0.0-2.0-0.17","jn8","[""r""]","","null","<svg viewBox=""0 0 100 100"" > <path d=""M 50 52 L 50 48"" stroke=""black"" stroke-width="".5""/> <path d=""M 52 50 L 48 50"" stroke=""black"" stroke-width="".5""/>","null","","","","","",""
