subID,trialType,trialNum,cntBalance,correct,rt,rwdType,tgtCol,tgtDir,tgtPos,colPos,colMatch,
w14,VDACtrain,0,r,null,null,1,g,v,2,,,
w14,VDACtrain,0,r,true,171.10000014305115,2,r,v,4,,,
w14,VDACtrain,0,r,true,612,1,g,v,5,,,
w14,VDACtrain,0,r,false,73.5,2,r,h,0,,,
w14,VDACtrain,0,r,null,null,2,r,v,3,,,
w14,VDACtrain,0,r,false,273.5,1,g,h,3,,,
w14,VDACtrain,0,r,true,285,2,r,h,1,,,
w14,VDACtrain,0,r,false,981.2000000476837,2,r,h,2,,,
w14,VDACtrain,0,r,true,518.2999999523163,1,g,h,5,,,
w14,VDACtrain,0,r,true,271.19999980926514,1,g,v,0,,,
w14,VDACtrain,0,r,null,null,2,r,v,3,,,
w14,VDACtrain,0,r,null,null,2,r,h,0,,,
w14,VDACtrain,0,r,false,165.70000004768372,1,g,h,3,,,
w14,VDACtrain,0,r,false,595.5,2,r,v,4,,,
w14,VDACtrain,0,r,true,212.89999985694885,1,g,v,5,,,
w14,VDACtrain,0,r,true,573.1000001430511,1,g,h,5,,,
w14,VDACtrain,0,r,false,526.5,1,g,v,0,,,
w14,VDACtrain,0,r,true,621.5,2,r,h,1,,,
w14,VDACtrain,0,r,true,909.6000001430511,2,r,h,2,,,
w14,VDACtrain,0,r,false,396.09999990463257,1,g,v,2,,,
w14,VDACtrain,0,r,true,767,1,g,v,2,,,
w14,VDACtrain,0,r,true,494,2,r,h,1,,,
w14,VDACtrain,0,r,false,322,2,r,h,0,,,
w14,VDACtrain,0,r,true,453.90000009536743,1,g,v,5,,,
w14,VDACtrain,0,r,true,804.7999999523163,1,g,v,0,,,
w14,VDACtrain,0,r,true,437.30000019073486,2,r,h,2,,,
w14,VDACtrain,0,r,null,null,2,r,v,4,,,
w14,VDACtrain,0,r,false,610.1000001430511,1,g,h,5,,,
w14,VDACtrain,0,r,false,733.5999999046326,2,r,v,3,,,
w14,VDACtrain,0,r,false,518.2000000476837,1,g,h,3,,,
w14,VDACtrain,0,r,true,990.6999998092651,2,r,h,1,,,
w14,VDACtrain,0,r,true,557.2999999523163,2,r,h,2,,,
w14,VDACtrain,0,r,false,438.30000019073486,1,g,h,5,,,
w14,VDACtrain,0,r,false,771.6999998092651,1,g,v,0,,,
w14,VDACtrain,0,r,true,540.7999999523163,1,g,v,5,,,
w14,VDACtrain,0,r,true,552.0999999046326,1,g,v,2,,,
w14,VDACtrain,0,r,false,604.4000000953674,1,g,h,3,,,
w14,VDACtrain,0,r,null,null,2,r,v,3,,,
w14,VDACtrain,0,r,null,null,2,r,v,4,,,
w14,VDACtrain,0,r,true,821.5,2,r,h,0,,,
w14,VDACtrain,0,r,true,703.4000000953674,2,r,h,0,,,
w14,VDACtrain,0,r,true,781.4000000953674,2,r,v,4,,,
w14,VDACtrain,0,r,true,685,2,r,v,3,,,
w14,VDACtrain,0,r,true,660.2000000476837,2,r,h,2,,,
w14,VDACtrain,0,r,false,565.2999999523163,1,g,h,5,,,
w14,VDACtrain,0,r,true,574.2000000476837,1,g,h,3,,,
w14,VDACtrain,0,r,true,547.7999999523163,1,g,v,0,,,
w14,VDACtrain,0,r,true,570.2999999523163,1,g,v,2,,,
w14,VDACtrain,0,r,true,460.5,1,g,v,5,,,
w14,VDACtrain,0,r,true,914.5999999046326,2,r,h,1,,,
w14,VDACtest,1,r,null,null,2,r,h,5,,,
w14,VDACtest,2,r,true,963.2000000476837,1,g,h,1,,,
w14,VDACtest,3,r,true,613.0999999046326,1,g,v,3,,,
w14,VDACtest,4,r,true,885.4000000953674,2,r,h,4,,,
w14,VDACtest,5,r,true,814.8999998569489,2,r,h,5,,,
w14,VDACtest,6,r,true,878.2000000476837,2,r,v,0,,,
w14,VDACtest,7,r,true,821.4000000953674,2,r,h,4,,,
w14,VDACtest,8,r,true,573.5,1,g,v,3,,,
w14,VDACtest,9,r,true,474.59999990463257,1,g,v,5,,,
w14,VDACtest,10,r,true,620.5999999046326,1,g,h,2,,,
w14,VDACtest,11,r,true,782.3999998569489,1,g,h,1,,,
w14,VDACtest,12,r,true,604.7999999523163,1,g,v,2,,,
w14,VDACtest,13,r,null,null,2,r,v,1,,,
w14,VDACtest,14,r,true,530,1,g,v,1,,,
w14,VDACtest,15,r,true,589.5999999046326,1,g,v,4,,,
w14,VDACtest,16,r,false,703,1,g,h,0,,,
w14,VDACtest,17,r,false,595.2999999523163,2,r,v,3,,,
w14,VDACtest,18,r,false,558.5999999046326,1,g,h,5,,,
w14,VDACtest,19,r,null,null,2,r,h,1,,,
w14,VDACtest,20,r,true,706.5999999046326,1,g,h,0,,,
w14,VDACtest,21,r,true,566.2000000476837,1,g,h,2,,,
w14,VDACtest,22,r,true,478.5,1,g,h,2,,,
w14,VDACtest,23,r,false,803,2,r,h,5,,,
w14,VDACtest,24,r,true,982.2000000476837,1,g,v,0,,,
w14,VDACtest,25,r,true,627.3999998569489,1,g,v,3,,,
w14,VDACtest,26,r,true,628.7999999523163,2,r,v,1,,,
w14,VDACtest,27,r,true,822.0999999046326,2,r,v,2,,,
w14,VDACtest,28,r,true,418.7000000476837,2,r,v,0,,,
w14,VDACtest,29,r,true,468.7000000476837,1,g,h,3,,,
w14,VDACtest,30,r,true,734.7000000476837,1,g,h,0,,,
w14,VDACtest,31,r,true,573,2,r,v,3,,,
w14,VDACtest,32,r,true,499.2999999523163,2,r,h,2,,,
w14,VDACtest,33,r,true,452.39999985694885,2,r,v,0,,,
w14,VDACtest,34,r,true,821.2999999523163,1,g,h,5,,,
w14,VDACtest,35,r,true,443.2999999523163,1,g,v,5,,,
w14,VDACtest,36,r,true,732.6000001430511,2,r,h,1,,,
w14,VDACtest,37,r,true,701.7999999523163,1,g,h,4,,,
w14,VDACtest,38,r,true,516.5,1,g,h,5,,,
w14,VDACtest,39,r,true,781.8999998569489,1,g,v,1,,,
w14,VDACtest,40,r,true,884.2000000476837,1,g,h,4,,,
w14,VDACtest,41,r,null,null,2,r,h,4,,,
w14,VDACtest,42,r,true,856.1000001430511,2,r,h,2,,,
w14,VDACtest,43,r,true,660.8000001907349,1,g,v,4,,,
w14,VDACtest,44,r,true,589.5999999046326,2,r,v,4,,,
w14,VDACtest,45,r,true,630,1,g,v,1,,,
w14,VDACtest,46,r,true,620.7999999523163,2,r,h,4,,,
w14,VDACtest,47,r,false,685.1000001430511,2,r,v,0,,,
w14,VDACtest,48,r,true,606.1000001430511,2,r,v,1,,,
w14,VDACtest,49,r,true,540,2,r,h,1,,,
w14,VDACtest,50,r,true,468.60000014305115,1,g,v,0,,,
brk,brk,brk,brk,brk,brk,brk,brk,brk,brk,brk,brk,
w14,VDACtest,51,r,true,773.8000001907349,2,r,v,2,,,
w14,VDACtest,52,r,true,500.2999999523163,1,g,h,2,,,
w14,VDACtest,53,r,true,691.4000000953674,2,r,h,5,,,
w14,VDACtest,54,r,true,523.7000000476837,1,g,v,2,,,
w14,VDACtest,55,r,false,861.1000001430511,1,g,v,0,,,
w14,VDACtest,56,r,true,397,1,g,v,0,,,
w14,VDACtest,57,r,true,516.6999998092651,2,r,v,5,,,
w14,VDACtest,58,r,true,644.2000000476837,2,r,h,1,,,
w14,VDACtest,59,r,true,531.1000001430511,2,r,v,3,,,
w14,VDACtest,60,r,true,653.5999999046326,1,g,h,1,,,
w14,VDACtest,61,r,true,388.60000014305115,1,g,v,5,,,
w14,VDACtest,62,r,true,480.2999999523163,2,r,h,5,,,
w14,VDACtest,63,r,false,669,2,r,v,2,,,
w14,VDACtest,64,r,true,804.5999999046326,2,r,h,1,,,
w14,VDACtest,65,r,true,684.2000000476837,2,r,h,2,,,
w14,VDACtest,66,r,true,508.59999990463257,1,g,v,3,,,
w14,VDACtest,67,r,true,475.7000000476837,1,g,v,1,,,
w14,VDACtest,68,r,false,811.2999999523163,1,g,h,4,,,
w14,VDACtest,69,r,true,662.5,2,r,h,1,,,
w14,VDACtest,70,r,true,484.5,1,g,v,4,,,
w14,VDACtest,71,r,true,523.6000001430511,1,g,v,1,,,
w14,VDACtest,72,r,true,508,1,g,v,1,,,
w14,VDACtest,73,r,true,605,1,g,h,0,,,
w14,VDACtest,74,r,true,826.2000000476837,2,r,h,3,,,
w14,VDACtest,75,r,true,475.89999985694885,1,g,h,1,,,
w14,VDACtest,76,r,true,499.09999990463257,2,r,v,2,,,
w14,VDACtest,77,r,true,899.5,2,r,h,4,,,
w14,VDACtest,78,r,true,621.7000000476837,1,g,v,2,,,
w14,VDACtest,79,r,true,564.4000000953674,2,r,h,0,,,
w14,VDACtest,80,r,true,524.5,2,r,h,2,,,
w14,VDACtest,81,r,true,532.1000001430511,2,r,h,3,,,
w14,VDACtest,82,r,true,500.7999999523163,2,r,v,4,,,
w14,VDACtest,83,r,true,427.09999990463257,1,g,h,4,,,
w14,VDACtest,84,r,true,515,1,g,h,2,,,
w14,VDACtest,85,r,false,444.60000014305115,1,g,v,2,,,
w14,VDACtest,86,r,true,428.7999999523163,1,g,v,4,,,
w14,VDACtest,87,r,true,876,2,r,h,1,,,
w14,VDACtest,88,r,false,523.2999999523163,2,r,v,2,,,
w14,VDACtest,89,r,true,476.40000009536743,1,g,v,5,,,
w14,VDACtest,90,r,true,602.6000001430511,2,r,h,5,,,
w14,VDACtest,91,r,true,684.1000001430511,2,r,v,4,,,
w14,VDACtest,92,r,true,884.5,2,r,v,1,,,
w14,VDACtest,93,r,true,482,1,g,h,4,,,
w14,VDACtest,94,r,true,420.2999999523163,2,r,v,4,,,
w14,VDACtest,95,r,false,610.9000000953674,2,r,h,0,,,
w14,VDACtest,96,r,true,540,2,r,h,5,,,
w14,VDACtest,97,r,true,930.7000000476837,2,r,v,5,,,
w14,VDACtest,98,r,true,516.2999999523163,1,g,v,5,,,
w14,VDACtest,99,r,false,612.2999999523163,2,r,v,3,,,
w14,VDACtest,100,r,true,595.5999999046326,2,r,v,4,,,
brk,brk,brk,brk,brk,brk,brk,brk,brk,brk,brk,brk,
w14,VDACtest,101,r,true,567.0999999046326,2,r,v,3,,,
w14,VDACtest,102,r,true,580,2,r,v,0,,,
w14,VDACtest,103,r,true,558.2000000476837,2,r,v,3,,,
w14,VDACtest,104,r,true,412.2999999523163,2,r,v,5,,,
w14,VDACtest,105,r,true,491.69999980926514,2,r,h,0,,,
w14,VDACtest,106,r,true,541.7999999523163,1,g,h,2,,,
w14,VDACtest,107,r,false,604.8999998569489,1,g,v,1,,,
w14,VDACtest,108,r,true,428.90000009536743,1,g,v,2,,,
w14,VDACtest,109,r,true,501.09999990463257,2,r,h,3,,,
w14,VDACtest,110,r,true,476.7000000476837,1,g,h,3,,,
w14,VDACtest,111,r,true,661.7000000476837,1,g,v,4,,,
w14,VDACtest,112,r,true,764.7999999523163,1,g,h,1,,,
w14,VDACtest,113,r,false,429,1,g,h,0,,,
w14,VDACtest,114,r,true,396.30000019073486,1,g,v,0,,,
w14,VDACtest,115,r,true,467.90000009536743,1,g,h,3,,,
w14,VDACtest,116,r,true,358.89999985694885,1,g,v,0,,,
w14,VDACtest,117,r,false,557.2999999523163,1,g,h,4,,,
w14,VDACtest,118,r,true,870.1000001430511,2,r,h,1,,,
w14,VDACtest,119,r,true,651.7999999523163,1,g,h,3,,,
w14,VDACtest,120,r,true,483.7999999523163,2,r,v,2,,,
w14,VDACtest,121,r,true,453.2999999523163,1,g,v,2,,,
w14,VDACtest,122,r,true,860.3999998569489,2,r,v,1,,,
w14,VDACtest,123,r,true,548.0999999046326,1,g,h,0,,,
w14,VDACtest,124,r,true,494.80000019073486,2,r,v,0,,,
w14,VDACtest,125,r,true,628,1,g,h,1,,,
w14,VDACtest,126,r,true,587.5,1,g,v,1,,,
w14,VDACtest,127,r,true,428.69999980926514,1,g,h,4,,,
w14,VDACtest,128,r,true,412.40000009536743,2,r,v,5,,,
w14,VDACtest,129,r,true,821.0999999046326,2,r,h,4,,,
w14,VDACtest,130,r,true,394.5,2,r,v,5,,,
w14,VDACtest,131,r,true,566,1,g,h,4,,,
w14,VDACtest,132,r,true,652.5999999046326,1,g,h,1,,,
w14,VDACtest,133,r,true,348.7000000476837,2,r,v,4,,,
w14,VDACtest,134,r,true,420.2000000476837,1,g,h,0,,,
w14,VDACtest,135,r,true,427.7000000476837,2,r,v,3,,,
w14,VDACtest,136,r,true,580.2000000476837,1,g,h,1,,,
w14,VDACtest,137,r,true,358.2000000476837,1,g,v,4,,,
w14,VDACtest,138,r,true,499.7999999523163,2,r,h,3,,,
w14,VDACtest,139,r,true,366.09999990463257,1,g,v,5,,,
w14,VDACtest,140,r,true,492.2999999523163,2,r,v,5,,,
w14,VDACtest,141,r,true,404.5,1,g,h,3,,,
w14,VDACtest,142,r,true,539.5999999046326,2,r,h,4,,,
w14,VDACtest,143,r,true,524.0999999046326,2,r,v,1,,,
w14,VDACtest,144,r,true,533.3999998569489,1,g,v,3,,,
w14,VDACtest,145,r,true,618.7999999523163,1,g,h,1,,,
w14,VDACtest,146,r,true,598.0999999046326,2,r,h,0,,,
w14,VDACtest,147,r,false,500.60000014305115,2,r,h,4,,,
w14,VDACtest,148,r,true,506.5,2,r,v,3,,,
w14,VDACtest,149,r,true,532.3000001907349,1,g,v,5,,,
w14,VDACtest,150,r,true,580.0999999046326,2,r,v,4,,,
brk,brk,brk,brk,brk,brk,brk,brk,brk,brk,brk,brk,
w14,VDACtest,151,r,true,507.7999999523163,1,g,h,3,,,
w14,VDACtest,152,r,true,625.7000000476837,2,r,v,1,,,
w14,VDACtest,153,r,true,565.0999999046326,2,r,h,2,,,
w14,VDACtest,154,r,true,348.7999999523163,1,g,v,5,,,
w14,VDACtest,155,r,true,516.5,1,g,v,0,,,
w14,VDACtest,156,r,true,820.6000001430511,2,r,v,1,,,
w14,VDACtest,157,r,true,715.2999999523163,2,r,v,2,,,
w14,VDACtest,158,r,true,515.6000001430511,1,g,h,5,,,
w14,VDACtest,159,r,true,490.09999990463257,1,g,v,3,,,
w14,VDACtest,160,r,true,540.2000000476837,1,g,h,4,,,
w14,VDACtest,161,r,true,859.4000000953674,2,r,v,4,,,
w14,VDACtest,162,r,true,778.7999999523163,2,r,h,0,,,
w14,VDACtest,163,r,true,506.7999999523163,2,r,v,0,,,
w14,VDACtest,164,r,false,492.89999985694885,1,g,v,4,,,
w14,VDACtest,165,r,null,null,2,r,h,5,,,
w14,VDACtest,166,r,true,480.2000000476837,1,g,v,4,,,
w14,VDACtest,167,r,true,459.2000000476837,2,r,v,5,,,
w14,VDACtest,168,r,true,634.8000001907349,2,r,h,0,,,
w14,VDACtest,169,r,true,571.5,1,g,v,1,,,
w14,VDACtest,170,r,true,555.5,2,r,h,3,,,
w14,VDACtest,171,r,true,404.30000019073486,1,g,v,4,,,
w14,VDACtest,172,r,true,500.59999990463257,2,r,v,1,,,
w14,VDACtest,173,r,true,476.2999999523163,2,r,h,3,,,
w14,VDACtest,174,r,true,576.9000000953674,2,r,v,2,,,
w14,VDACtest,175,r,true,532,1,g,v,0,,,
w14,VDACtest,176,r,true,549.2000000476837,2,r,h,0,,,
w14,VDACtest,177,r,true,756.2999999523163,2,r,h,2,,,
w14,VDACtest,178,r,null,null,2,r,h,4,,,
w14,VDACtest,179,r,true,455,2,r,v,4,,,
w14,VDACtest,180,r,true,603.7000000476837,1,g,h,5,,,
w14,VDACtest,181,r,true,499.09999990463257,1,g,h,3,,,
w14,VDACtest,182,r,true,780.8999998569489,1,g,h,0,,,
w14,VDACtest,183,r,true,453.2999999523163,1,g,h,3,,,
w14,VDACtest,184,r,false,473.10000014305115,1,g,v,2,,,
w14,VDACtest,185,r,true,715.4000000953674,2,r,h,3,,,
w14,VDACtest,186,r,true,451.90000009536743,2,r,v,5,,,
w14,VDACtest,187,r,true,661,2,r,h,2,,,
w14,VDACtest,188,r,true,595.9000000953674,1,g,v,3,,,
w14,VDACtest,189,r,true,513.9000000953674,1,g,v,2,,,
w14,VDACtest,190,r,true,563.2999999523163,1,g,h,5,,,
w14,VDACtest,191,r,true,636.2000000476837,2,r,v,0,,,
w14,VDACtest,192,r,true,659.2999999523163,2,r,h,0,,,
w14,VDACtest,193,r,true,694.3999998569489,1,g,h,2,,,
w14,VDACtest,194,r,true,572.3000001907349,2,r,h,2,,,
w14,VDACtest,195,r,true,899.4000000953674,2,r,h,1,,,
w14,VDACtest,196,r,true,556.0999999046326,1,g,h,2,,,
w14,VDACtest,197,r,false,692.0999999046326,1,g,h,5,,,
w14,VDACtest,198,r,true,529.2000000476837,1,g,h,5,,,
w14,VDACtest,199,r,true,539.5,2,r,h,3,,,
w14,VDACtest,200,r,true,547,1,g,v,3,,,
w14,RSVPtrain,0,r,null,null,2,r,,3,2,1,
w14,RSVPtrain,0,r,true,927.6000001430511,1,g,,2,2,2,
w14,RSVPtrain,0,r,false,863.3999998569489,2,r,,0,0,2,
w14,RSVPtrain,0,r,true,846.9000000953674,1,g,,3,1,1,
w14,RSVPtrain,0,r,true,1005.5,0,b,,1,3,0,
w14,RSVPtrain,0,r,true,735.8000001907349,0,b,,3,3,0,
w14,RSVPtrain,0,r,false,783.3999998569489,2,r,,1,1,2,
w14,RSVPtrain,0,r,true,678.3000001907349,1,g,,1,0,1,
w14,RSVPtrain,0,r,true,873.5,1,g,,3,0,1,
w14,RSVPtrain,0,r,true,942.9000000953674,0,b,,0,3,0,
w14,RSVPtest,1,r,true,665,2,r,,3,2,1,
w14,RSVPtest,2,r,false,1038.1000001430511,0,b,,2,3,0,
w14,RSVPtest,3,r,true,798.5,2,r,,3,1,1,
w14,RSVPtest,4,r,true,510.59999990463257,1,g,,0,2,1,
w14,RSVPtest,5,r,false,799.2999999523163,0,b,,0,3,0,
w14,RSVPtest,6,r,true,790.0999999046326,1,g,,3,1,1,
w14,RSVPtest,7,r,true,709.0999999046326,1,g,,3,2,1,
w14,RSVPtest,8,r,false,648.1000001430511,1,g,,1,1,2,
w14,RSVPtest,9,r,false,1479.2000000476837,1,g,,3,1,1,
w14,RSVPtest,10,r,true,1386.5999999046326,2,r,,0,0,2,
w14,RSVPtest,11,r,true,871.2999999523163,2,r,,3,0,1,
w14,RSVPtest,12,r,true,1382.4000000953674,2,r,,3,1,1,
w14,RSVPtest,13,r,false,703.1000001430511,2,r,,2,2,2,
w14,RSVPtest,14,r,true,603.7000000476837,0,b,,1,3,0,
w14,RSVPtest,15,r,true,837.1000001430511,1,g,,3,2,1,
w14,RSVPtest,16,r,true,685.2999999523163,1,g,,3,2,1,
w14,RSVPtest,17,r,true,693.1000001430511,0,b,,3,3,0,
w14,RSVPtest,18,r,true,1030.9000000953674,2,r,,2,0,1,
w14,RSVPtest,19,r,false,894.5999999046326,1,g,,0,0,2,
w14,RSVPtest,20,r,true,534.2000000476837,2,r,,3,0,1,
w14,RSVPtest,21,r,true,605.7999999523163,2,r,,0,1,1,
w14,RSVPtest,22,r,true,1037.7000000476837,1,g,,0,0,2,
w14,RSVPtest,23,r,true,732.2000000476837,2,r,,3,1,1,
w14,RSVPtest,24,r,false,801.6999998092651,0,b,,2,3,0,
w14,RSVPtest,25,r,true,480.30000019073486,0,b,,2,3,0,
w14,RSVPtest,26,r,true,726.5,2,r,,3,0,1,
w14,RSVPtest,27,r,true,766.7000000476837,1,g,,2,0,1,
w14,RSVPtest,28,r,false,779.7000000476837,0,b,,3,3,0,
w14,RSVPtest,29,r,true,605.9000000953674,2,r,,3,2,1,
w14,RSVPtest,30,r,true,812.9000000953674,0,b,,3,3,0,
w14,RSVPtest,31,r,true,434.60000014305115,2,r,,1,2,1,
w14,RSVPtest,32,r,false,788.3000001907349,1,g,,2,0,1,
w14,RSVPtest,33,r,true,739.5999999046326,1,g,,0,1,1,
w14,RSVPtest,34,r,true,605.6000001430511,1,g,,1,2,1,
w14,RSVPtest,35,r,true,580.5,1,g,,0,2,1,
w14,RSVPtest,36,r,true,596.7999999523163,0,b,,2,3,0,
w14,RSVPtest,37,r,true,678,0,b,,3,3,0,
w14,RSVPtest,38,r,true,644.6000001430511,2,r,,0,2,1,
w14,RSVPtest,39,r,true,821.6999998092651,2,r,,3,2,1,
w14,RSVPtest,40,r,true,616,0,b,,3,3,0,
w14,RSVPtest,41,r,true,366.5,1,g,,2,2,2,
w14,RSVPtest,42,r,false,672,0,b,,3,3,0,
w14,RSVPtest,43,r,false,367.89999985694885,0,b,,2,3,0,
w14,RSVPtest,44,r,true,407.7999999523163,0,b,,1,3,0,
w14,RSVPtest,45,r,true,647.9000000953674,2,r,,3,0,1,
w14,RSVPtest,46,r,true,376,1,g,,0,0,2,
w14,RSVPtest,47,r,true,615.7999999523163,0,b,,1,3,0,
w14,RSVPtest,48,r,false,989.7000000476837,2,r,,2,0,1,
w14,RSVPtest,49,r,true,759.5,2,r,,3,2,1,
w14,RSVPtest,50,r,true,488.39999985694885,1,g,,1,0,1,
w14,RSVPtest,51,r,false,696.5999999046326,2,r,,2,1,1,
w14,RSVPtest,52,r,true,669.7999999523163,2,r,,0,1,1,
w14,RSVPtest,53,r,true,488,2,r,,0,0,2,
w14,RSVPtest,54,r,true,853.2000000476837,2,r,,1,0,1,
w14,RSVPtest,55,r,true,766.2999999523163,0,b,,1,3,0,
w14,RSVPtest,56,r,false,406.7000000476837,0,b,,3,3,0,
w14,RSVPtest,57,r,true,740.5999999046326,2,r,,1,2,1,
w14,RSVPtest,58,r,true,959.1999998092651,2,r,,2,1,1,
w14,RSVPtest,59,r,true,414.09999990463257,1,g,,0,0,2,
w14,RSVPtest,60,r,true,429.59999990463257,2,r,,2,2,2,
brk,brk,brk,brk,brk,brk,brk,brk,brk,brk,brk,brk,
w14,RSVPtest,61,r,true,671.5,1,g,,3,1,1,
w14,RSVPtest,62,r,false,838.2999999523163,1,g,,1,0,1,
w14,RSVPtest,63,r,false,318.10000014305115,2,r,,3,1,1,
w14,RSVPtest,64,r,true,662.0999999046326,2,r,,3,0,1,
w14,RSVPtest,65,r,false,813.7999999523163,2,r,,0,1,1,
w14,RSVPtest,66,r,true,591.2999999523163,2,r,,3,0,1,
w14,RSVPtest,67,r,false,789.1000001430511,0,b,,2,3,0,
w14,RSVPtest,68,r,false,333.09999990463257,1,g,,3,0,1,
w14,RSVPtest,69,r,true,1047.8999998569489,2,r,,2,0,1,
w14,RSVPtest,70,r,true,749.0999999046326,0,b,,2,3,0,
w14,RSVPtest,71,r,true,781.7000000476837,1,g,,3,1,1,
w14,RSVPtest,72,r,true,957.4000000953674,2,r,,3,2,1,
w14,RSVPtest,73,r,true,541.2000000476837,2,r,,2,2,2,
w14,RSVPtest,74,r,true,595.6000001430511,0,b,,1,3,0,
w14,RSVPtest,75,r,true,661.5999999046326,1,g,,3,1,1,
w14,RSVPtest,76,r,true,502.69999980926514,1,g,,1,1,2,
w14,RSVPtest,77,r,true,586.8000001907349,1,g,,2,1,1,
w14,RSVPtest,78,r,true,436.69999980926514,0,b,,0,3,0,
w14,RSVPtest,79,r,false,509.89999985694885,1,g,,3,0,1,
w14,RSVPtest,80,r,true,639.6999998092651,2,r,,3,1,1,
w14,RSVPtest,81,r,true,436.60000014305115,1,g,,0,2,1,
w14,RSVPtest,82,r,true,650.7999999523163,1,g,,1,0,1,
w14,RSVPtest,83,r,true,795.5,0,b,,1,3,0,
w14,RSVPtest,84,r,true,833.6000001430511,1,g,,3,0,1,
w14,RSVPtest,85,r,true,740.7000000476837,0,b,,3,3,0,
w14,RSVPtest,86,r,true,541.0999999046326,0,b,,2,3,0,
w14,RSVPtest,87,r,true,677.0999999046326,1,g,,2,0,1,
w14,RSVPtest,88,r,true,355.10000014305115,2,r,,1,0,1,
w14,RSVPtest,89,r,true,452.5,0,b,,2,3,0,
w14,RSVPtest,90,r,false,602.7999999523163,0,b,,0,3,0,
w14,RSVPtest,91,r,true,1155.1000001430511,1,g,,3,0,1,
w14,RSVPtest,92,r,true,419.7000000476837,2,r,,0,0,2,
w14,RSVPtest,93,r,true,428.09999990463257,2,r,,2,1,1,
w14,RSVPtest,94,r,true,412.7999999523163,0,b,,0,3,0,
w14,RSVPtest,95,r,false,548.5,2,r,,1,1,2,
w14,RSVPtest,96,r,true,579.5999999046326,0,b,,3,3,0,
w14,RSVPtest,97,r,true,801.7999999523163,1,g,,0,0,2,
w14,RSVPtest,98,r,true,786.8000001907349,1,g,,3,2,1,
w14,RSVPtest,99,r,true,613.6999998092651,1,g,,3,2,1,
w14,RSVPtest,100,r,false,869.2999999523163,1,g,,3,0,1,
w14,RSVPtest,101,r,true,633.1000001430511,2,r,,2,2,2,
w14,RSVPtest,102,r,false,591.9000000953674,0,b,,3,3,0,
w14,RSVPtest,103,r,true,619.0999999046326,0,b,,3,3,0,
w14,RSVPtest,104,r,true,591,2,r,,3,1,1,
w14,RSVPtest,105,r,false,1213.3000001907349,1,g,,3,0,1,
w14,RSVPtest,106,r,true,924.2999999523163,0,b,,0,3,0,
w14,RSVPtest,107,r,true,974.3999998569489,1,g,,3,2,1,
w14,RSVPtest,108,r,true,733.7999999523163,2,r,,1,2,1,
w14,RSVPtest,109,r,true,834.5,1,g,,3,1,1,
w14,RSVPtest,110,r,true,573.4000000953674,1,g,,3,1,1,
w14,RSVPtest,111,r,true,518.2000000476837,2,r,,3,2,1,
w14,RSVPtest,112,r,false,692.2999999523163,1,g,,3,0,1,
w14,RSVPtest,113,r,true,847.5,2,r,,3,0,1,
w14,RSVPtest,114,r,true,692.5,2,r,,1,0,1,
w14,RSVPtest,115,r,true,639.2999999523163,1,g,,2,0,1,
w14,RSVPtest,116,r,true,702,1,g,,3,1,1,
w14,RSVPtest,117,r,true,570.7999999523163,1,g,,1,0,1,
w14,RSVPtest,118,r,true,612.7000000476837,2,r,,1,0,1,
w14,RSVPtest,119,r,false,627.8000001907349,0,b,,3,3,0,
w14,RSVPtest,120,r,true,402.90000009536743,2,r,,2,1,1,
brk,brk,brk,brk,brk,brk,brk,brk,brk,brk,brk,brk,
w14,RSVPtest,121,r,false,694.5999999046326,2,r,,1,2,1,
w14,RSVPtest,122,r,true,546.7000000476837,2,r,,3,2,1,
w14,RSVPtest,123,r,true,714.5999999046326,2,r,,3,2,1,
w14,RSVPtest,124,r,true,476.2000000476837,2,r,,1,0,1,
w14,RSVPtest,125,r,true,1003.7000000476837,1,g,,3,0,1,
w14,RSVPtest,126,r,true,621.2000000476837,2,r,,1,2,1,
w14,RSVPtest,127,r,true,645.2000000476837,1,g,,2,0,1,
w14,RSVPtest,128,r,true,642.4000000953674,2,r,,3,2,1,
w14,RSVPtest,129,r,true,747,1,g,,3,1,1,
w14,RSVPtest,130,r,true,688,2,r,,3,1,1,
w14,RSVPtest,131,r,true,740.4000000953674,2,r,,3,2,1,
w14,RSVPtest,132,r,false,1322.9000000953674,2,r,,0,2,1,
w14,RSVPtest,133,r,true,396.40000009536743,2,r,,0,1,1,
w14,RSVPtest,134,r,false,1365.9000000953674,1,g,,1,2,1,
w14,RSVPtest,135,r,true,673.4000000953674,2,r,,3,1,1,
w14,RSVPtest,136,r,true,611.9000000953674,0,b,,3,3,0,
w14,RSVPtest,137,r,true,453,1,g,,1,2,1,
w14,RSVPtest,138,r,true,379.2999999523163,1,g,,2,2,2,
w14,RSVPtest,139,r,true,594.3999998569489,2,r,,1,1,2,
w14,RSVPtest,140,r,true,715.1999998092651,1,g,,3,1,1,
w14,RSVPtest,141,r,true,1370.7000000476837,1,g,,0,1,1,
w14,RSVPtest,142,r,true,561.8999998569489,0,b,,3,3,0,
w14,RSVPtest,143,r,false,699.3000001907349,0,b,,1,3,0,
w14,RSVPtest,144,r,true,682.0999999046326,2,r,,3,1,1,
w14,RSVPtest,145,r,true,446.30000019073486,1,g,,1,0,1,
w14,RSVPtest,146,r,false,659.2000000476837,2,r,,0,1,1,
w14,RSVPtest,147,r,true,762,0,b,,2,3,0,
w14,RSVPtest,148,r,false,936.7999999523163,1,g,,0,2,1,
w14,RSVPtest,149,r,true,564.5,2,r,,0,0,2,
w14,RSVPtest,150,r,true,393.40000009536743,2,r,,0,0,2,
w14,RSVPtest,151,r,true,517.8999998569489,0,b,,3,3,0,
w14,RSVPtest,152,r,true,737,2,r,,1,2,1,
w14,RSVPtest,153,r,true,1361.8999998569489,2,r,,0,2,1,
w14,RSVPtest,154,r,false,544.6000001430511,2,r,,1,1,2,
w14,RSVPtest,155,r,true,703.0999999046326,0,b,,3,3,0,
w14,RSVPtest,156,r,true,1121.5,2,r,,0,1,1,
w14,RSVPtest,157,r,true,1027.8000001907349,0,b,,3,3,0,
w14,RSVPtest,158,r,true,659,0,b,,3,3,0,
w14,RSVPtest,159,r,true,542.7999999523163,2,r,,2,1,1,
w14,RSVPtest,160,r,true,668.4000000953674,2,r,,3,0,1,
w14,RSVPtest,161,r,true,676.7999999523163,2,r,,0,2,1,
w14,RSVPtest,162,r,true,1598.1000001430511,1,g,,0,2,1,
w14,RSVPtest,163,r,true,636.2000000476837,0,b,,3,3,0,
w14,RSVPtest,164,r,false,1548.7999999523163,1,g,,0,0,2,
w14,RSVPtest,165,r,true,437.59999990463257,1,g,,2,2,2,
w14,RSVPtest,166,r,true,602,0,b,,3,3,0,
w14,RSVPtest,167,r,true,562.8999998569489,1,g,,2,0,1,
w14,RSVPtest,168,r,true,489.90000009536743,1,g,,1,0,1,
w14,RSVPtest,169,r,true,571.7000000476837,0,b,,0,3,0,
w14,RSVPtest,170,r,true,458.90000009536743,2,r,,2,0,1,
w14,RSVPtest,171,r,true,408.90000009536743,0,b,,2,3,0,
w14,RSVPtest,172,r,true,986.7999999523163,1,g,,3,2,1,
w14,RSVPtest,173,r,true,594.5,2,r,,1,1,2,
w14,RSVPtest,174,r,false,397.40000009536743,1,g,,3,0,1,
w14,RSVPtest,175,r,false,546,1,g,,2,2,2,
w14,RSVPtest,176,r,true,674.7000000476837,1,g,,3,0,1,
w14,RSVPtest,177,r,true,659.7999999523163,1,g,,1,1,2,
w14,RSVPtest,178,r,true,650.9000000953674,1,g,,3,0,1,
w14,RSVPtest,179,r,true,1237.6999998092651,1,g,,3,1,1,
w14,RSVPtest,180,r,true,787.5999999046326,1,g,,3,2,1,
brk,brk,brk,brk,brk,brk,brk,brk,brk,brk,brk,brk,
w14,RSVPtest,181,r,true,597.7000000476837,0,b,,0,3,0,
w14,RSVPtest,182,r,true,426.10000014305115,0,b,,0,3,0,
w14,RSVPtest,183,r,true,657.3999998569489,2,r,,2,1,1,
w14,RSVPtest,184,r,true,572.4000000953674,2,r,,2,0,1,
w14,RSVPtest,185,r,true,389.39999985694885,1,g,,0,1,1,
w14,RSVPtest,186,r,false,746.5999999046326,0,b,,1,3,0,
w14,RSVPtest,187,r,true,402.2999999523163,0,b,,1,3,0,
w14,RSVPtest,188,r,true,482.60000014305115,0,b,,0,3,0,
w14,RSVPtest,189,r,true,517.7000000476837,2,r,,1,1,2,
w14,RSVPtest,190,r,true,377.5,1,g,,2,1,1,
w14,RSVPtest,191,r,true,601.8999998569489,0,b,,3,3,0,
w14,RSVPtest,192,r,true,625.7999999523163,2,r,,3,1,1,
w14,RSVPtest,193,r,true,747.4000000953674,2,r,,3,0,1,
w14,RSVPtest,194,r,true,344.90000009536743,1,g,,2,2,2,
w14,RSVPtest,195,r,false,1067.2999999523163,2,r,,3,0,1,
w14,RSVPtest,196,r,true,634.2000000476837,0,b,,3,3,0,
w14,RSVPtest,197,r,false,427.10000014305115,2,r,,0,0,2,
w14,RSVPtest,198,r,true,760.7000000476837,1,g,,0,2,1,
w14,RSVPtest,199,r,true,682.0999999046326,1,g,,3,2,1,
w14,RSVPtest,200,r,false,627.5,2,r,,1,1,2,
w14,RSVPtest,201,r,true,316.19999980926514,0,b,,0,3,0,
w14,RSVPtest,202,r,true,618.2999999523163,1,g,,0,1,1,
w14,RSVPtest,203,r,false,552.7000000476837,1,g,,2,2,2,
w14,RSVPtest,204,r,false,633.7000000476837,1,g,,0,1,1,
w14,RSVPtest,205,r,true,633.9000000953674,2,r,,3,1,1,
w14,RSVPtest,206,r,false,520.7000000476837,1,g,,2,1,1,
w14,RSVPtest,207,r,true,923.1000001430511,1,g,,1,2,1,
w14,RSVPtest,208,r,true,600.1999998092651,0,b,,2,3,0,
w14,RSVPtest,209,r,true,563.2000000476837,2,r,,3,1,1,
w14,RSVPtest,210,r,true,496,0,b,,1,3,0,
w14,RSVPtest,211,r,true,682,1,g,,2,1,1,
w14,RSVPtest,212,r,false,736.1000001430511,1,g,,1,2,1,
w14,RSVPtest,213,r,true,761,1,g,,3,0,1,
w14,RSVPtest,214,r,true,1049.8999998569489,2,r,,2,2,2,
w14,RSVPtest,215,r,false,572.3999998569489,1,g,,1,1,2,
w14,RSVPtest,216,r,true,947.5999999046326,1,g,,1,2,1,
w14,RSVPtest,217,r,true,667.9000000953674,2,r,,2,0,1,
w14,RSVPtest,218,r,true,657.3999998569489,0,b,,0,3,0,
w14,RSVPtest,219,r,true,756.5,0,b,,3,3,0,
w14,RSVPtest,220,r,true,547,1,g,,0,1,1,
w14,RSVPtest,221,r,true,643.7000000476837,1,g,,1,1,2,
w14,RSVPtest,222,r,true,516.2999999523163,1,g,,3,2,1,
w14,RSVPtest,223,r,true,791.7999999523163,1,g,,1,1,2,
w14,RSVPtest,224,r,true,412.40000009536743,1,g,,2,1,1,
w14,RSVPtest,225,r,true,438,2,r,,3,2,1,
w14,RSVPtest,226,r,true,684,2,r,,3,2,1,
w14,RSVPtest,227,r,true,619.9000000953674,0,b,,1,3,0,
w14,RSVPtest,228,r,true,409.7000000476837,2,r,,2,2,2,
w14,RSVPtest,229,r,true,411,0,b,,0,3,0,
w14,RSVPtest,230,r,true,691.7999999523163,2,r,,3,0,1,
w14,RSVPtest,231,r,false,1314,0,b,,3,3,0,
w14,RSVPtest,232,r,true,498.7999999523163,2,r,,1,0,1,
w14,RSVPtest,233,r,true,402.5,0,b,,1,3,0,
w14,RSVPtest,234,r,true,505.39999985694885,1,g,,2,1,1,
w14,RSVPtest,235,r,true,690.7000000476837,1,g,,3,2,1,
w14,RSVPtest,236,r,true,872.5999999046326,2,r,,0,2,1,
w14,RSVPtest,237,r,true,564,1,g,,3,2,1,
w14,RSVPtest,238,r,true,673.5999999046326,2,r,,3,0,1,
w14,RSVPtest,239,r,true,545.7999999523163,2,r,,0,2,1,
w14,RSVPtest,240,r,false,663.5999999046326,1,g,,3,1,1,
