subID,trialType,trialNum,cntBalance,correct,rt,rwdType,tgtCol,tgtDir,tgtPos,colPos,colMatch,
bvu,VDACtrain,0,r,true,945.8999996185303,1,g,v,0,,,
bvu,VDACtrain,0,r,true,836.5,2,r,h,1,,,
bvu,VDACtrain,0,r,null,null,1,g,v,5,,,
bvu,VDACtrain,0,r,true,737.8999996185303,1,g,h,3,,,
bvu,VDACtrain,0,r,true,917.8000001907349,2,r,h,0,,,
bvu,VDACtrain,0,r,false,670,2,r,v,4,,,
bvu,VDACtrain,0,r,true,684,1,g,h,5,,,
bvu,VDACtrain,0,r,true,679.3999996185303,2,r,v,3,,,
bvu,VDACtrain,0,r,true,805.6999998092651,2,r,h,2,,,
bvu,VDACtrain,0,r,true,597.4000005722046,1,g,v,2,,,
bvu,VDACtest,1,r,true,691.8000001907349,2,r,h,4,,,
bvu,VDACtest,2,r,true,940,2,r,v,4,,,
bvu,VDACtest,3,r,true,548.3999996185303,2,r,v,1,,,
bvu,VDACtest,4,r,true,964.1999998092651,2,r,h,5,,,
bvu,VDACtest,5,r,true,845.5,1,g,h,3,,,
bvu,VDACtest,6,r,true,819.3000001907349,1,g,v,3,,,
bvu,VDACtest,7,r,true,773.7999992370605,2,r,h,3,,,
bvu,VDACtest,8,r,true,645.1000003814697,1,g,v,1,,,
bvu,VDACtest,9,r,true,756.6999998092651,1,g,v,2,,,
bvu,VDACtest,10,r,null,null,2,r,v,1,,,
bvu,VDACtest,11,r,true,681.9000005722046,2,r,v,0,,,
bvu,VDACtest,12,r,true,646.1999998092651,2,r,h,3,,,
bvu,VDACtest,13,r,false,629.6999998092651,2,r,v,5,,,
bvu,VDACtest,14,r,true,765.4000005722046,2,r,h,2,,,
bvu,VDACtest,15,r,true,405.0999994277954,2,r,v,5,,,
bvu,VDACtest,16,r,true,502.1000003814697,2,r,h,5,,,
bvu,VDACtest,17,r,false,612.1999998092651,1,g,h,3,,,
bvu,VDACtest,18,r,true,652.8000001907349,1,g,v,3,,,
bvu,VDACtest,19,r,true,805.3000001907349,2,r,h,2,,,
bvu,VDACtest,20,r,true,637.3000001907349,2,r,v,3,,,
bvu,VDACtest,21,r,true,798.5,1,g,v,1,,,
bvu,VDACtest,22,r,true,775,2,r,h,4,,,
bvu,VDACtest,23,r,true,578.1000003814697,1,g,h,1,,,
bvu,VDACtest,24,r,true,669.5,1,g,h,0,,,
bvu,VDACtest,25,r,true,654.0999994277954,2,r,h,1,,,
bvu,VDACtest,26,r,true,701.8999996185303,1,g,h,4,,,
bvu,VDACtest,27,r,true,501.9000005722046,1,g,v,0,,,
bvu,VDACtest,28,r,true,518.4000005722046,1,g,v,4,,,
bvu,VDACtest,29,r,true,588.7000007629395,1,g,h,1,,,
bvu,VDACtest,30,r,true,757.1999998092651,2,r,h,1,,,
bvu,VDACtest,31,r,false,526,1,g,h,3,,,
bvu,VDACtest,32,r,true,653.4000005722046,1,g,h,2,,,
bvu,VDACtest,33,r,true,571.3000001907349,1,g,h,3,,,
bvu,VDACtest,34,r,true,483.80000019073486,2,r,v,4,,,
bvu,VDACtest,35,r,true,539.8000001907349,2,r,v,4,,,
bvu,VDACtest,36,r,true,596.6999998092651,1,g,h,0,,,
bvu,VDACtest,37,r,true,501.3999996185303,2,r,v,5,,,
bvu,VDACtest,38,r,true,654,1,g,h,0,,,
bvu,VDACtest,39,r,true,660.8999996185303,2,r,h,4,,,
bvu,VDACtest,40,r,true,517.2000007629395,1,g,v,0,,,
bvu,VDACtest,41,r,true,683.9000005722046,2,r,h,1,,,
bvu,VDACtest,42,r,true,637,1,g,v,1,,,
bvu,VDACtest,43,r,true,877.1000003814697,2,r,v,1,,,
bvu,VDACtest,44,r,true,509.9000005722046,2,r,v,0,,,
bvu,VDACtest,45,r,true,613.8999996185303,2,r,v,2,,,
bvu,VDACtest,46,r,true,573.4000005722046,2,r,h,2,,,
bvu,VDACtest,47,r,false,526.5999994277954,2,r,h,5,,,
bvu,VDACtest,48,r,false,590.0999994277954,2,r,h,4,,,
bvu,VDACtest,49,r,true,726.0999994277954,1,g,v,3,,,
bvu,VDACtest,50,r,true,661.6999998092651,1,g,v,5,,,
brk,brk,brk,brk,brk,brk,brk,brk,brk,brk,brk,brk,
bvu,VDACtest,51,r,true,817.1999998092651,1,g,v,2,,,
bvu,VDACtest,52,r,true,709.2999992370605,1,g,h,1,,,
bvu,VDACtest,53,r,true,645.6999998092651,1,g,v,2,,,
bvu,VDACtest,54,r,true,581.9000005722046,1,g,h,2,,,
bvu,VDACtest,55,r,true,581.5,2,r,v,2,,,
bvu,VDACtest,56,r,true,531.7999992370605,2,r,v,2,,,
bvu,VDACtest,57,r,true,772.3999996185303,2,r,h,0,,,
bvu,VDACtest,58,r,true,693.3999996185303,2,r,v,2,,,
bvu,VDACtest,59,r,true,595.1999998092651,2,r,h,1,,,
bvu,VDACtest,60,r,true,615.3000001907349,1,g,h,0,,,
bvu,VDACtest,61,r,true,637.2999992370605,1,g,v,3,,,
bvu,VDACtest,62,r,true,629.8000001907349,1,g,v,4,,,
bvu,VDACtest,63,r,true,548.7000007629395,2,r,h,0,,,
bvu,VDACtest,64,r,true,597.6000003814697,1,g,v,5,,,
bvu,VDACtest,65,r,true,533.5,2,r,v,0,,,
bvu,VDACtest,66,r,true,639.2999992370605,1,g,v,3,,,
bvu,VDACtest,67,r,true,733,1,g,h,1,,,
bvu,VDACtest,68,r,true,478.20000076293945,2,r,v,0,,,
bvu,VDACtest,69,r,true,574.9000005722046,1,g,h,1,,,
bvu,VDACtest,70,r,true,822.1000003814697,1,g,h,0,,,
bvu,VDACtest,71,r,true,803.8000001907349,1,g,v,3,,,
bvu,VDACtest,72,r,true,613.1000003814697,2,r,h,3,,,
bvu,VDACtest,73,r,true,565.0999994277954,1,g,v,0,,,
bvu,VDACtest,74,r,true,621,2,r,v,1,,,
bvu,VDACtest,75,r,true,653.5,2,r,h,2,,,
bvu,VDACtest,76,r,true,542.1999998092651,2,r,v,5,,,
bvu,VDACtest,77,r,true,597.1999998092651,2,r,v,3,,,
bvu,VDACtest,78,r,true,549.6000003814697,2,r,h,3,,,
bvu,VDACtest,79,r,true,638.6999998092651,1,g,h,2,,,
bvu,VDACtest,80,r,true,460.69999980926514,2,r,v,4,,,
bvu,VDACtest,81,r,true,621.2000007629395,2,r,h,5,,,
bvu,VDACtest,82,r,true,614.1000003814697,2,r,h,2,,,
bvu,VDACtest,83,r,true,524.3999996185303,2,r,v,3,,,
bvu,VDACtest,84,r,true,548.3999996185303,1,g,h,5,,,
bvu,VDACtest,85,r,true,619.3999996185303,1,g,h,2,,,
bvu,VDACtest,86,r,true,494.5999994277954,1,g,v,0,,,
bvu,VDACtest,87,r,true,557.1999998092651,1,g,h,5,,,
bvu,VDACtest,88,r,true,699.5,1,g,v,0,,,
bvu,VDACtest,89,r,true,693.7000007629395,2,r,v,1,,,
bvu,VDACtest,90,r,true,549.7999992370605,2,r,v,2,,,
bvu,VDACtest,91,r,true,509.8999996185303,1,g,v,5,,,
bvu,VDACtest,92,r,true,533.7000007629395,2,r,v,0,,,
bvu,VDACtest,93,r,true,582.8999996185303,1,g,h,4,,,
bvu,VDACtest,94,r,true,533,2,r,v,3,,,
bvu,VDACtest,95,r,true,636.3999996185303,2,r,h,1,,,
bvu,VDACtest,96,r,true,734.1999998092651,1,g,v,2,,,
bvu,VDACtest,97,r,true,643.3999996185303,2,r,h,4,,,
bvu,VDACtest,98,r,true,500.69999980926514,2,r,h,0,,,
bvu,VDACtest,99,r,true,534.5999994277954,1,g,v,4,,,
bvu,VDACtest,100,r,true,568.6000003814697,2,r,h,5,,,
brk,brk,brk,brk,brk,brk,brk,brk,brk,brk,brk,brk,
bvu,VDACtest,101,r,true,747.3999996185303,1,g,h,4,,,
bvu,VDACtest,102,r,true,493.6000003814697,1,g,v,1,,,
bvu,VDACtest,103,r,true,791,1,g,h,3,,,
bvu,VDACtest,104,r,true,525.1999998092651,1,g,h,5,,,
bvu,VDACtest,105,r,false,460.69999980926514,1,g,v,1,,,
bvu,VDACtest,106,r,true,636.3999996185303,2,r,h,5,,,
bvu,VDACtest,107,r,true,647.3000001907349,2,r,h,3,,,
bvu,VDACtest,108,r,true,525.6999998092651,1,g,v,0,,,
bvu,VDACtest,109,r,true,533.7999992370605,1,g,h,4,,,
bvu,VDACtest,110,r,true,485.3999996185303,1,g,v,4,,,
bvu,VDACtest,111,r,true,541.1000003814697,2,r,v,1,,,
bvu,VDACtest,112,r,true,557.8000001907349,1,g,h,4,,,
bvu,VDACtest,113,r,true,535,1,g,h,4,,,
bvu,VDACtest,114,r,true,525.8999996185303,2,r,h,4,,,
bvu,VDACtest,115,r,true,526.8999996185303,1,g,v,5,,,
bvu,VDACtest,116,r,true,597.3000001907349,1,g,h,3,,,
bvu,VDACtest,117,r,true,612.6000003814697,1,g,v,3,,,
bvu,VDACtest,118,r,true,477.5999994277954,2,r,v,1,,,
bvu,VDACtest,119,r,true,468.9000005722046,2,r,v,5,,,
bvu,VDACtest,120,r,true,451.80000019073486,1,g,v,4,,,
bvu,VDACtest,121,r,true,637.1000003814697,2,r,v,3,,,
bvu,VDACtest,122,r,true,653.5999994277954,1,g,h,2,,,
bvu,VDACtest,123,r,true,604.1000003814697,2,r,h,4,,,
bvu,VDACtest,124,r,true,523.6999998092651,2,r,v,5,,,
bvu,VDACtest,125,r,true,549.0999994277954,2,r,v,3,,,
bvu,VDACtest,126,r,true,541.6000003814697,1,g,v,1,,,
bvu,VDACtest,127,r,false,548,2,r,v,2,,,
bvu,VDACtest,128,r,true,502.5,1,g,v,0,,,
bvu,VDACtest,129,r,true,574.1999998092651,1,g,v,3,,,
bvu,VDACtest,130,r,true,596,1,g,h,3,,,
bvu,VDACtest,131,r,false,627.9000005722046,2,r,h,4,,,
bvu,VDACtest,132,r,true,566.1999998092651,2,r,v,4,,,
bvu,VDACtest,133,r,true,606.5999994277954,1,g,h,1,,,
bvu,VDACtest,134,r,true,510.5,2,r,v,3,,,
bvu,VDACtest,135,r,true,531.4000005722046,2,r,h,5,,,
bvu,VDACtest,136,r,true,622.0999994277954,2,r,h,1,,,
bvu,VDACtest,137,r,true,541.3999996185303,1,g,h,1,,,
bvu,VDACtest,138,r,true,628.6999998092651,2,r,h,3,,,
bvu,VDACtest,139,r,true,509.69999980926514,2,r,h,4,,,
bvu,VDACtest,140,r,true,654.1999998092651,1,g,v,2,,,
bvu,VDACtest,141,r,true,579.6000003814697,1,g,h,0,,,
bvu,VDACtest,142,r,true,603.8000001907349,1,g,h,5,,,
bvu,VDACtest,143,r,true,508.5,2,r,v,4,,,
bvu,VDACtest,144,r,true,659.6999998092651,1,g,v,0,,,
bvu,VDACtest,145,r,true,533.3999996185303,1,g,h,4,,,
bvu,VDACtest,146,r,true,517.3999996185303,2,r,v,4,,,
bvu,VDACtest,147,r,true,636,1,g,h,5,,,
bvu,VDACtest,148,r,true,637.0999994277954,1,g,h,1,,,
bvu,VDACtest,149,r,true,557,1,g,v,2,,,
bvu,VDACtest,150,r,true,525.6999998092651,1,g,v,1,,,
brk,brk,brk,brk,brk,brk,brk,brk,brk,brk,brk,brk,
bvu,VDACtest,151,r,true,631,1,g,v,2,,,
bvu,VDACtest,152,r,true,669.3000001907349,2,r,h,0,,,
bvu,VDACtest,153,r,true,541.8000001907349,2,r,h,0,,,
bvu,VDACtest,154,r,true,582.1000003814697,1,g,h,2,,,
bvu,VDACtest,155,r,true,396.1000003814697,2,r,v,0,,,
bvu,VDACtest,156,r,true,538.7000007629395,1,g,h,1,,,
bvu,VDACtest,157,r,true,525.4000005722046,2,r,h,1,,,
bvu,VDACtest,158,r,true,524.6000003814697,2,r,h,1,,,
bvu,VDACtest,159,r,true,612.6000003814697,2,r,v,3,,,
bvu,VDACtest,160,r,true,565.0999994277954,2,r,h,2,,,
bvu,VDACtest,161,r,true,733.1000003814697,2,r,h,5,,,
bvu,VDACtest,162,r,true,612.1000003814697,1,g,h,0,,,
bvu,VDACtest,163,r,true,517.4000005722046,2,r,h,2,,,
bvu,VDACtest,164,r,true,549.1999998092651,2,r,v,5,,,
bvu,VDACtest,165,r,true,525.6000003814697,2,r,v,0,,,
bvu,VDACtest,166,r,true,668.8000001907349,1,g,h,4,,,
bvu,VDACtest,167,r,true,557.1999998092651,2,r,v,5,,,
bvu,VDACtest,168,r,true,572,2,r,v,1,,,
bvu,VDACtest,169,r,true,531.6999998092651,2,r,h,0,,,
bvu,VDACtest,170,r,true,580.5,2,r,v,2,,,
bvu,VDACtest,171,r,true,661.7000007629395,1,g,v,5,,,
bvu,VDACtest,172,r,true,549.9000005722046,1,g,v,1,,,
bvu,VDACtest,173,r,true,546.9000005722046,1,g,h,5,,,
bvu,VDACtest,174,r,true,629.6999998092651,1,g,v,5,,,
bvu,VDACtest,175,r,true,580.1999998092651,1,g,v,1,,,
bvu,VDACtest,176,r,true,620.7000007629395,2,r,h,1,,,
bvu,VDACtest,177,r,true,692.3999996185303,1,g,h,2,,,
bvu,VDACtest,178,r,true,542,1,g,v,2,,,
bvu,VDACtest,179,r,true,668.5,2,r,v,4,,,
bvu,VDACtest,180,r,true,629.5,2,r,h,3,,,
bvu,VDACtest,181,r,true,589.3000001907349,1,g,h,2,,,
bvu,VDACtest,182,r,true,566.2999992370605,1,g,h,4,,,
bvu,VDACtest,183,r,true,541.3999996185303,2,r,v,0,,,
bvu,VDACtest,184,r,true,501.6000003814697,1,g,v,5,,,
bvu,VDACtest,185,r,true,604.6999998092651,2,r,h,3,,,
bvu,VDACtest,186,r,true,564.6000003814697,2,r,h,2,,,
bvu,VDACtest,187,r,true,567.7999992370605,1,g,v,4,,,
bvu,VDACtest,188,r,true,542.1999998092651,2,r,h,0,,,
bvu,VDACtest,189,r,true,550,1,g,h,0,,,
bvu,VDACtest,190,r,true,650.9000005722046,2,r,v,1,,,
bvu,VDACtest,191,r,true,613.3000001907349,1,g,v,4,,,
bvu,VDACtest,192,r,true,501.5,2,r,h,0,,,
bvu,VDACtest,193,r,true,508.80000019073486,1,g,v,4,,,
bvu,VDACtest,194,r,true,612.3000001907349,1,g,v,5,,,
bvu,VDACtest,195,r,true,636.6999998092651,1,g,h,5,,,
bvu,VDACtest,196,r,true,486.80000019073486,1,g,v,4,,,
bvu,VDACtest,197,r,true,517.1000003814697,1,g,h,3,,,
bvu,VDACtest,198,r,true,534,1,g,h,5,,,
bvu,VDACtest,199,r,true,566,2,r,v,2,,,
bvu,VDACtest,200,r,true,474.8999996185303,2,r,v,4,,,
bvu,RSVPtrain,0,r,null,null,2,r,,1,1,2,
bvu,RSVPtrain,0,r,false,2457.5,0,b,,0,3,0,
bvu,RSVPtrain,0,r,true,1318.7999992370605,1,g,,1,0,1,
bvu,RSVPtrain,0,r,true,1190.1999998092651,0,b,,3,3,0,
bvu,RSVPtrain,0,r,false,749.1000003814697,1,g,,3,1,1,
bvu,RSVPtrain,0,r,true,1096.1999998092651,2,r,,3,2,1,
bvu,RSVPtrain,0,r,true,1254.6000003814697,1,g,,3,0,1,
bvu,RSVPtrain,0,r,true,1128.5,0,b,,1,3,0,
bvu,RSVPtrain,0,r,false,878.0999994277954,2,r,,0,0,2,
bvu,RSVPtrain,0,r,false,728.1999998092651,1,g,,2,2,2,
bvu,RSVPtest,1,r,true,807.7999992370605,2,r,,3,0,1,
bvu,RSVPtest,2,r,true,1064.3999996185303,2,r,,3,0,1,
bvu,RSVPtest,3,r,true,1204.8000001907349,0,b,,1,3,0,
bvu,RSVPtest,4,r,true,1269.9000005722046,1,g,,0,1,1,
bvu,RSVPtest,5,r,false,871.8999996185303,0,b,,1,3,0,
bvu,RSVPtest,6,r,true,1239.4000005722046,2,r,,2,2,2,
bvu,RSVPtest,7,r,true,1066.6999998092651,1,g,,3,1,1,
bvu,RSVPtest,8,r,true,1007.6999998092651,2,r,,0,0,2,
bvu,RSVPtest,9,r,true,793.3999996185303,1,g,,3,0,1,
bvu,RSVPtest,10,r,true,1064.5,1,g,,2,2,2,
bvu,RSVPtest,11,r,true,1262.1999998092651,1,g,,0,2,1,
bvu,RSVPtest,12,r,false,1094.7000007629395,2,r,,3,1,1,
bvu,RSVPtest,13,r,true,1055.4000005722046,2,r,,0,0,2,
bvu,RSVPtest,14,r,true,1320.8999996185303,2,r,,0,2,1,
bvu,RSVPtest,15,r,true,895.1999998092651,2,r,,1,2,1,
bvu,RSVPtest,16,r,true,767.5999994277954,1,g,,2,2,2,
bvu,RSVPtest,17,r,true,1200.0999994277954,2,r,,3,1,1,
bvu,RSVPtest,18,r,false,846.3999996185303,2,r,,3,0,1,
bvu,RSVPtest,19,r,true,1111.5999994277954,2,r,,3,2,1,
bvu,RSVPtest,20,r,true,1358,1,g,,1,2,1,
bvu,RSVPtest,21,r,true,1029.1999998092651,1,g,,1,1,2,
bvu,RSVPtest,22,r,true,1176.8000001907349,1,g,,3,1,1,
bvu,RSVPtest,23,r,true,1478.8000001907349,2,r,,1,1,2,
bvu,RSVPtest,24,r,true,1149.5999994277954,2,r,,0,2,1,
bvu,RSVPtest,25,r,true,1094.2999992370605,0,b,,0,3,0,
bvu,RSVPtest,26,r,true,911.2000007629395,2,r,,0,1,1,
bvu,RSVPtest,27,r,true,815.3999996185303,0,b,,0,3,0,
bvu,RSVPtest,28,r,true,1076.6000003814697,1,g,,3,2,1,
bvu,RSVPtest,29,r,true,1119.1999998092651,2,r,,1,1,2,
bvu,RSVPtest,30,r,false,1220.6999998092651,0,b,,0,3,0,
bvu,RSVPtest,31,r,true,1079.0999994277954,0,b,,2,3,0,
bvu,RSVPtest,32,r,true,1015,2,r,,3,0,1,
bvu,RSVPtest,33,r,true,1109.3000001907349,2,r,,0,0,2,
bvu,RSVPtest,34,r,false,1294.6000003814697,2,r,,2,0,1,
bvu,RSVPtest,35,r,true,1992.3000001907349,2,r,,3,1,1,
bvu,RSVPtest,36,r,false,1590.1999998092651,0,b,,2,3,0,
bvu,RSVPtest,37,r,true,1092.6000003814697,1,g,,3,0,1,
bvu,RSVPtest,38,r,true,1093.1000003814697,1,g,,1,0,1,
bvu,RSVPtest,39,r,true,831,1,g,,3,1,1,
bvu,RSVPtest,40,r,true,1520.3000001907349,0,b,,2,3,0,
bvu,RSVPtest,41,r,true,1503.6000003814697,0,b,,2,3,0,
bvu,RSVPtest,42,r,true,1328.1999998092651,1,g,,0,0,2,
bvu,RSVPtest,43,r,false,1495.9000005722046,0,b,,1,3,0,
bvu,RSVPtest,44,r,true,1382.7999992370605,0,b,,1,3,0,
bvu,RSVPtest,45,r,true,1061.7000007629395,2,r,,3,2,1,
bvu,RSVPtest,46,r,true,1727,2,r,,2,2,2,
bvu,RSVPtest,47,r,true,1359.1000003814697,0,b,,1,3,0,
bvu,RSVPtest,48,r,true,1325.3000001907349,1,g,,2,1,1,
bvu,RSVPtest,49,r,true,1183.8999996185303,1,g,,3,1,1,
bvu,RSVPtest,50,r,false,1086.0999994277954,2,r,,3,1,1,
bvu,RSVPtest,51,r,true,1823.8999996185303,0,b,,2,3,0,
bvu,RSVPtest,52,r,true,1869.3000001907349,1,g,,3,2,1,
bvu,RSVPtest,53,r,false,1366.9000005722046,2,r,,3,2,1,
bvu,RSVPtest,54,r,true,1286.9000005722046,2,r,,0,2,1,
bvu,RSVPtest,55,r,true,1324.8000001907349,2,r,,1,2,1,
bvu,RSVPtest,56,r,true,1182.3999996185303,2,r,,3,1,1,
bvu,RSVPtest,57,r,false,1398,2,r,,2,1,1,
bvu,RSVPtest,58,r,true,1081.7999992370605,2,r,,1,0,1,
bvu,RSVPtest,59,r,true,1049.7000007629395,2,r,,3,1,1,
bvu,RSVPtest,60,r,true,907.9000005722046,0,b,,3,3,0,
brk,brk,brk,brk,brk,brk,brk,brk,brk,brk,brk,brk,
bvu,RSVPtest,61,r,false,1054.4000005722046,1,g,,2,2,2,
bvu,RSVPtest,62,r,true,1471.5,1,g,,1,2,1,
bvu,RSVPtest,63,r,true,1222.6000003814697,2,r,,0,1,1,
bvu,RSVPtest,64,r,false,972,1,g,,2,2,2,
bvu,RSVPtest,65,r,true,1229.5,0,b,,3,3,0,
bvu,RSVPtest,66,r,true,1399.6999998092651,2,r,,2,0,1,
bvu,RSVPtest,67,r,true,1110.8000001907349,2,r,,1,1,2,
bvu,RSVPtest,68,r,false,1164.5,0,b,,0,3,0,
bvu,RSVPtest,69,r,true,1653.3999996185303,1,g,,0,1,1,
bvu,RSVPtest,70,r,true,1417.2000007629395,1,g,,1,1,2,
bvu,RSVPtest,71,r,true,1440.5,2,r,,3,0,1,
bvu,RSVPtest,72,r,true,1277.8999996185303,2,r,,0,0,2,
bvu,RSVPtest,73,r,true,1181.5,1,g,,1,2,1,
bvu,RSVPtest,74,r,true,1455.3999996185303,0,b,,2,3,0,
bvu,RSVPtest,75,r,true,1463.4000005722046,2,r,,0,2,1,
bvu,RSVPtest,76,r,true,1485.1999998092651,0,b,,3,3,0,
bvu,RSVPtest,77,r,true,1199.5,2,r,,1,1,2,
bvu,RSVPtest,78,r,true,854,0,b,,0,3,0,
bvu,RSVPtest,79,r,true,903.8000001907349,2,r,,2,2,2,
bvu,RSVPtest,80,r,true,1181.5999994277954,0,b,,2,3,0,
bvu,RSVPtest,81,r,true,956.5999994277954,2,r,,1,2,1,
bvu,RSVPtest,82,r,true,1623,2,r,,3,0,1,
bvu,RSVPtest,83,r,false,1830.3999996185303,0,b,,3,3,0,
bvu,RSVPtest,84,r,true,1299,2,r,,2,0,1,
bvu,RSVPtest,85,r,false,1062.4000005722046,1,g,,3,2,1,
bvu,RSVPtest,86,r,true,1886.3999996185303,1,g,,1,1,2,
bvu,RSVPtest,87,r,true,1456,1,g,,0,0,2,
bvu,RSVPtest,88,r,false,869.6999998092651,0,b,,0,3,0,
bvu,RSVPtest,89,r,true,1477.1999998092651,1,g,,0,2,1,
bvu,RSVPtest,90,r,true,1702.6000003814697,1,g,,2,1,1,
bvu,RSVPtest,91,r,true,1879.8000001907349,2,r,,3,1,1,
bvu,RSVPtest,92,r,true,1702.2000007629395,1,g,,0,0,2,
bvu,RSVPtest,93,r,true,1103,0,b,,3,3,0,
bvu,RSVPtest,94,r,true,1293.8000001907349,0,b,,3,3,0,
bvu,RSVPtest,95,r,true,1085.1000003814697,1,g,,0,1,1,
bvu,RSVPtest,96,r,true,1006.1000003814697,0,b,,3,3,0,
bvu,RSVPtest,97,r,true,1357,1,g,,3,1,1,
bvu,RSVPtest,98,r,true,1037.5999994277954,0,b,,0,3,0,
bvu,RSVPtest,99,r,true,1188.5,2,r,,0,1,1,
bvu,RSVPtest,100,r,true,979.2999992370605,0,b,,1,3,0,
bvu,RSVPtest,101,r,false,1894.1999998092651,2,r,,1,0,1,
bvu,RSVPtest,102,r,true,998.5,1,g,,2,0,1,
bvu,RSVPtest,103,r,false,1351.6999998092651,0,b,,0,3,0,
bvu,RSVPtest,104,r,true,1678.5,2,r,,0,1,1,
bvu,RSVPtest,105,r,true,1109.1999998092651,0,b,,0,3,0,
bvu,RSVPtest,106,r,true,918.6000003814697,1,g,,3,2,1,
bvu,RSVPtest,107,r,false,2399.699999809265,2,r,,3,1,1,
bvu,RSVPtest,108,r,true,1116.1000003814697,1,g,,0,1,1,
bvu,RSVPtest,109,r,false,1316,0,b,,3,3,0,
bvu,RSVPtest,110,r,true,1021.3999996185303,1,g,,2,0,1,
bvu,RSVPtest,111,r,true,983.8000001907349,0,b,,3,3,0,
bvu,RSVPtest,112,r,true,1084.5,2,r,,3,2,1,
bvu,RSVPtest,113,r,true,1211.3000001907349,1,g,,2,2,2,
bvu,RSVPtest,114,r,true,1564.5999994277954,2,r,,0,0,2,
bvu,RSVPtest,115,r,false,1926,2,r,,3,1,1,
bvu,RSVPtest,116,r,false,1149.5,1,g,,2,2,2,
bvu,RSVPtest,117,r,true,1335.2000007629395,2,r,,1,0,1,
bvu,RSVPtest,118,r,true,2355.300000190735,2,r,,2,0,1,
bvu,RSVPtest,119,r,true,2294.2999992370605,0,b,,3,3,0,
bvu,RSVPtest,120,r,true,939.9000005722046,1,g,,3,1,1,
brk,brk,brk,brk,brk,brk,brk,brk,brk,brk,brk,brk,
bvu,RSVPtest,121,r,false,1234.1999998092651,1,g,,3,2,1,
bvu,RSVPtest,122,r,true,877.5,2,r,,3,2,1,
bvu,RSVPtest,123,r,true,1438.7000007629395,2,r,,3,2,1,
bvu,RSVPtest,124,r,true,972.3000001907349,0,b,,3,3,0,
bvu,RSVPtest,125,r,false,1214.1000003814697,0,b,,3,3,0,
bvu,RSVPtest,126,r,null,null,2,r,,3,0,1,
bvu,RSVPtest,127,r,true,946.6999998092651,1,g,,3,2,1,
bvu,RSVPtest,128,r,true,1075.3999996185303,0,b,,3,3,0,
bvu,RSVPtest,129,r,false,1560.5,0,b,,3,3,0,
bvu,RSVPtest,130,r,false,1347.5,0,b,,3,3,0,
bvu,RSVPtest,131,r,false,1035.6000003814697,0,b,,2,3,0,
bvu,RSVPtest,132,r,true,877.6999998092651,1,g,,3,1,1,
bvu,RSVPtest,133,r,true,1206.7000007629395,1,g,,1,2,1,
bvu,RSVPtest,134,r,true,1085.8999996185303,2,r,,3,0,1,
bvu,RSVPtest,135,r,true,996.6999998092651,1,g,,0,0,2,
bvu,RSVPtest,136,r,true,1293.3000001907349,0,b,,1,3,0,
bvu,RSVPtest,137,r,true,1221.1000003814697,2,r,,3,0,1,
bvu,RSVPtest,138,r,true,1645.1999998092651,2,r,,1,2,1,
bvu,RSVPtest,139,r,true,875.8999996185303,1,g,,3,0,1,
bvu,RSVPtest,140,r,true,1467,1,g,,3,2,1,
bvu,RSVPtest,141,r,true,1925.5,2,r,,2,2,2,
bvu,RSVPtest,142,r,true,859.6999998092651,1,g,,3,2,1,
bvu,RSVPtest,143,r,false,1510.8000001907349,0,b,,3,3,0,
bvu,RSVPtest,144,r,true,1669.4000005722046,1,g,,0,2,1,
bvu,RSVPtest,145,r,true,995.8000001907349,1,g,,0,2,1,
bvu,RSVPtest,146,r,false,1021.5,0,b,,1,3,0,
bvu,RSVPtest,147,r,true,1469.9000005722046,2,r,,1,1,2,
bvu,RSVPtest,148,r,false,1492.6999998092651,0,b,,1,3,0,
bvu,RSVPtest,149,r,true,1276.3999996185303,0,b,,0,3,0,
bvu,RSVPtest,150,r,true,1005.6000003814697,0,b,,3,3,0,
bvu,RSVPtest,151,r,true,1427.5,1,g,,1,2,1,
bvu,RSVPtest,152,r,false,1987.3000001907349,0,b,,1,3,0,
bvu,RSVPtest,153,r,true,1805.0999994277954,2,r,,2,2,2,
bvu,RSVPtest,154,r,false,1371.6000003814697,1,g,,2,0,1,
bvu,RSVPtest,155,r,true,963.1999998092651,0,b,,3,3,0,
bvu,RSVPtest,156,r,true,987.3999996185303,1,g,,0,0,2,
bvu,RSVPtest,157,r,true,1395.6999998092651,1,g,,2,1,1,
bvu,RSVPtest,158,r,true,1038.2999992370605,0,b,,2,3,0,
bvu,RSVPtest,159,r,false,1051.1000003814697,1,g,,1,0,1,
bvu,RSVPtest,160,r,true,1440,0,b,,2,3,0,
bvu,RSVPtest,161,r,true,1254.1000003814697,1,g,,3,1,1,
bvu,RSVPtest,162,r,true,914.6000003814697,1,g,,3,0,1,
bvu,RSVPtest,163,r,true,1611,1,g,,2,1,1,
bvu,RSVPtest,164,r,true,1236.2999992370605,2,r,,3,0,1,
bvu,RSVPtest,165,r,true,1570.5,1,g,,3,0,1,
bvu,RSVPtest,166,r,true,1515.8000001907349,1,g,,1,1,2,
bvu,RSVPtest,167,r,true,1117.8999996185303,0,b,,3,3,0,
bvu,RSVPtest,168,r,true,1334,2,r,,1,0,1,
bvu,RSVPtest,169,r,true,946,1,g,,3,0,1,
bvu,RSVPtest,170,r,true,1237.1999998092651,1,g,,3,0,1,
bvu,RSVPtest,171,r,false,1124.9000005722046,2,r,,2,1,1,
bvu,RSVPtest,172,r,true,1939.6000003814697,1,g,,3,0,1,
bvu,RSVPtest,173,r,true,882.8000001907349,2,r,,3,2,1,
bvu,RSVPtest,174,r,true,1418.1999998092651,2,r,,3,2,1,
bvu,RSVPtest,175,r,true,1291.5,1,g,,0,2,1,
bvu,RSVPtest,176,r,true,1036,1,g,,2,0,1,
bvu,RSVPtest,177,r,false,1796.6000003814697,1,g,,3,1,1,
bvu,RSVPtest,178,r,true,1162.7000007629395,2,r,,3,1,1,
bvu,RSVPtest,179,r,false,1746.5999994277954,1,g,,3,0,1,
bvu,RSVPtest,180,r,true,1580.2000007629395,1,g,,3,2,1,
brk,brk,brk,brk,brk,brk,brk,brk,brk,brk,brk,brk,
bvu,RSVPtest,181,r,false,990.8000001907349,2,r,,2,0,1,
bvu,RSVPtest,182,r,true,1571.8999996185303,0,b,,3,3,0,
bvu,RSVPtest,183,r,true,1123.1000003814697,0,b,,1,3,0,
bvu,RSVPtest,184,r,true,916.0999994277954,1,g,,0,0,2,
bvu,RSVPtest,185,r,true,1715.6999998092651,1,g,,1,0,1,
bvu,RSVPtest,186,r,true,1371.6999998092651,1,g,,1,0,1,
bvu,RSVPtest,187,r,true,1866.6999998092651,1,g,,3,1,1,
bvu,RSVPtest,188,r,true,1619.5,2,r,,0,1,1,
bvu,RSVPtest,189,r,true,1658.5999994277954,1,g,,1,1,2,
bvu,RSVPtest,190,r,true,1819.2999992370605,2,r,,3,0,1,
bvu,RSVPtest,191,r,true,1906.3999996185303,2,r,,3,2,1,
bvu,RSVPtest,192,r,true,961.2999992370605,1,g,,1,0,1,
bvu,RSVPtest,193,r,true,1330.1000003814697,1,g,,0,1,1,
bvu,RSVPtest,194,r,false,1304.3999996185303,1,g,,3,0,1,
bvu,RSVPtest,195,r,true,986.6000003814697,1,g,,3,2,1,
bvu,RSVPtest,196,r,true,892.7000007629395,1,g,,0,1,1,
bvu,RSVPtest,197,r,true,859.3000001907349,2,r,,3,1,1,
bvu,RSVPtest,198,r,true,1082.6999998092651,2,r,,1,2,1,
bvu,RSVPtest,199,r,true,1668.8999996185303,2,r,,1,2,1,
bvu,RSVPtest,200,r,true,744.1000003814697,1,g,,1,0,1,
bvu,RSVPtest,201,r,false,1075.6999998092651,2,r,,2,1,1,
bvu,RSVPtest,202,r,true,1042.6000003814697,1,g,,2,1,1,
bvu,RSVPtest,203,r,false,1466.8000001907349,0,b,,3,3,0,
bvu,RSVPtest,204,r,true,932.5,0,b,,3,3,0,
bvu,RSVPtest,205,r,true,1170.7000007629395,0,b,,2,3,0,
bvu,RSVPtest,206,r,true,1548.6999998092651,2,r,,3,1,1,
bvu,RSVPtest,207,r,true,1230.1000003814697,2,r,,2,1,1,
bvu,RSVPtest,208,r,true,1091,1,g,,3,1,1,
bvu,RSVPtest,209,r,false,1227.4000005722046,0,b,,1,3,0,
bvu,RSVPtest,210,r,true,882,2,r,,0,2,1,
bvu,RSVPtest,211,r,true,1484.0999994277954,2,r,,1,0,1,
bvu,RSVPtest,212,r,false,1513,2,r,,3,2,1,
bvu,RSVPtest,213,r,true,962.3999996185303,1,g,,3,2,1,
bvu,RSVPtest,214,r,true,896.8999996185303,0,b,,3,3,0,
bvu,RSVPtest,215,r,true,1308,0,b,,0,3,0,
bvu,RSVPtest,216,r,true,850.6999998092651,1,g,,1,2,1,
bvu,RSVPtest,217,r,true,986.3999996185303,2,r,,3,2,1,
bvu,RSVPtest,218,r,true,1156.9000005722046,1,g,,2,1,1,
bvu,RSVPtest,219,r,true,899,1,g,,2,0,1,
bvu,RSVPtest,220,r,true,1320.6999998092651,2,r,,3,0,1,
bvu,RSVPtest,221,r,true,818,2,r,,0,0,2,
bvu,RSVPtest,222,r,true,1064.5,1,g,,2,0,1,
bvu,RSVPtest,223,r,false,1227.3000001907349,0,b,,0,3,0,
bvu,RSVPtest,224,r,true,1769.7000007629395,2,r,,2,2,2,
bvu,RSVPtest,225,r,true,1705.8000001907349,1,g,,1,1,2,
bvu,RSVPtest,226,r,false,1041.5,2,r,,0,1,1,
bvu,RSVPtest,227,r,true,1555.6000003814697,0,b,,2,3,0,
bvu,RSVPtest,228,r,true,1095.8999996185303,2,r,,0,2,1,
bvu,RSVPtest,229,r,true,1508.6999998092651,2,r,,2,0,1,
bvu,RSVPtest,230,r,false,1530.5,1,g,,0,2,1,
bvu,RSVPtest,231,r,true,994.1999998092651,2,r,,1,1,2,
bvu,RSVPtest,232,r,true,1099.1000003814697,1,g,,3,1,1,
bvu,RSVPtest,233,r,false,1107.0999994277954,1,g,,3,0,1,
bvu,RSVPtest,234,r,true,1274.6999998092651,2,r,,2,1,1,
bvu,RSVPtest,235,r,true,877.1999998092651,0,b,,3,3,0,
bvu,RSVPtest,236,r,true,1474.8000001907349,2,r,,2,1,1,
bvu,RSVPtest,237,r,true,938.5,2,r,,1,0,1,
bvu,RSVPtest,238,r,true,1154.3999996185303,2,r,,3,2,1,
bvu,RSVPtest,239,r,true,1276.4000005722046,1,g,,3,0,1,
bvu,RSVPtest,240,r,false,1009.3000001907349,1,g,,3,2,1,
