subID,trialType,trialNum,cntBalance,correct,rt,rwdType,tgtCol,tgtDir,tgtPos,colPos,colMatch,
gol,VDACtrain,0,g,true,797.7000007629395,2,g,v,0,,,
gol,VDACtrain,0,g,false,939.6000003814697,2,g,h,5,,,
gol,VDACtrain,0,g,true,963.2999992370605,1,r,v,4,,,
gol,VDACtrain,0,g,true,571.5999984741211,2,g,v,5,,,
gol,VDACtrain,0,g,true,844.2000007629395,1,r,h,0,,,
gol,VDACtrain,0,g,true,837.3999996185303,1,r,h,1,,,
gol,VDACtrain,0,g,true,942.5,2,g,h,3,,,
gol,VDACtrain,0,g,true,790.2000007629395,1,r,h,2,,,
gol,VDACtrain,0,g,true,741.3000011444092,1,r,v,3,,,
gol,VDACtrain,0,g,null,null,2,g,v,2,,,
gol,VDACtest,1,g,true,715.1000003814697,2,g,v,4,,,
gol,VDACtest,2,g,true,795.5,1,r,v,3,,,
gol,VDACtest,3,g,true,612.3000011444092,2,g,v,5,,,
gol,VDACtest,4,g,null,null,1,r,v,5,,,
gol,VDACtest,5,g,true,624.3999996185303,2,g,v,3,,,
gol,VDACtest,6,g,true,596.2999992370605,1,r,v,1,,,
gol,VDACtest,7,g,true,587.3999996185303,2,g,v,1,,,
gol,VDACtest,8,g,true,533.0999984741211,2,g,v,2,,,
gol,VDACtest,9,g,true,733.3999996185303,2,g,h,4,,,
gol,VDACtest,10,g,true,539.6000003814697,1,r,v,4,,,
gol,VDACtest,11,g,true,678.1000003814697,2,g,h,1,,,
gol,VDACtest,12,g,false,741.3999996185303,2,g,v,3,,,
gol,VDACtest,13,g,true,637,1,r,v,0,,,
gol,VDACtest,14,g,true,525.3000011444092,2,g,v,5,,,
gol,VDACtest,15,g,true,723.0999984741211,1,r,h,3,,,
gol,VDACtest,16,g,true,819.8000011444092,2,g,h,1,,,
gol,VDACtest,17,g,true,813.5,2,g,v,3,,,
gol,VDACtest,18,g,true,859.8999996185303,2,g,h,1,,,
gol,VDACtest,19,g,true,700.1000003814697,2,g,h,0,,,
gol,VDACtest,20,g,true,677.3999996185303,1,r,h,3,,,
gol,VDACtest,21,g,true,772.2000007629395,1,r,h,2,,,
gol,VDACtest,22,g,true,756.8999996185303,1,r,h,4,,,
gol,VDACtest,23,g,true,725.3999996185303,1,r,v,5,,,
gol,VDACtest,24,g,true,676.3999996185303,2,g,v,4,,,
gol,VDACtest,25,g,true,723.8999996185303,2,g,v,0,,,
gol,VDACtest,26,g,true,653.2000007629395,1,r,h,1,,,
gol,VDACtest,27,g,true,741.6000003814697,1,r,h,4,,,
gol,VDACtest,28,g,true,661,1,r,h,0,,,
gol,VDACtest,29,g,true,669.2999992370605,1,r,v,5,,,
gol,VDACtest,30,g,true,733.1000003814697,2,g,v,4,,,
gol,VDACtest,31,g,true,667.5,2,g,h,3,,,
gol,VDACtest,32,g,true,805.8999996185303,2,g,v,1,,,
gol,VDACtest,33,g,true,604.2999992370605,2,g,h,1,,,
gol,VDACtest,34,g,true,484.20000076293945,2,g,v,5,,,
gol,VDACtest,35,g,true,589.5999984741211,1,r,v,4,,,
gol,VDACtest,36,g,true,557.5,2,g,v,0,,,
gol,VDACtest,37,g,true,893.6000003814697,1,r,h,4,,,
gol,VDACtest,38,g,true,755.6000003814697,2,g,h,3,,,
gol,VDACtest,39,g,true,693.3999996185303,2,g,h,1,,,
gol,VDACtest,40,g,true,546.8999996185303,1,r,v,1,,,
gol,VDACtest,41,g,true,660.8999996185303,2,g,v,5,,,
gol,VDACtest,42,g,true,523.3999996185303,2,g,v,1,,,
gol,VDACtest,43,g,true,588.6999988555908,2,g,v,1,,,
gol,VDACtest,44,g,true,694.5,1,r,v,5,,,
gol,VDACtest,45,g,true,588,2,g,h,0,,,
gol,VDACtest,46,g,true,620.5,1,r,h,3,,,
gol,VDACtest,47,g,true,539.6000003814697,2,g,v,0,,,
gol,VDACtest,48,g,true,652.5,1,r,h,5,,,
gol,VDACtest,49,g,true,548.0999984741211,1,r,h,1,,,
gol,VDACtest,50,g,false,548.6000003814697,1,r,v,2,,,
brk,brk,brk,brk,brk,brk,brk,brk,brk,brk,brk,brk,
gol,VDACtest,51,g,true,734.5,1,r,h,4,,,
gol,VDACtest,52,g,true,468.1000003814697,1,r,v,4,,,
gol,VDACtest,53,g,null,null,2,g,h,1,,,
gol,VDACtest,54,g,true,694.9000015258789,1,r,v,0,,,
gol,VDACtest,55,g,true,836.8999996185303,1,r,v,0,,,
gol,VDACtest,56,g,true,691.6999988555908,2,g,v,4,,,
gol,VDACtest,57,g,true,660.8999996185303,1,r,v,2,,,
gol,VDACtest,58,g,true,587.1999988555908,2,g,v,1,,,
gol,VDACtest,59,g,true,765,2,g,h,5,,,
gol,VDACtest,60,g,true,629.8000011444092,2,g,v,2,,,
gol,VDACtest,61,g,true,660.7000007629395,1,r,h,0,,,
gol,VDACtest,62,g,false,732.4000015258789,1,r,v,4,,,
gol,VDACtest,63,g,true,542.2000007629395,1,r,v,3,,,
gol,VDACtest,64,g,true,645.2000007629395,2,g,h,5,,,
gol,VDACtest,65,g,true,611.6999988555908,2,g,v,2,,,
gol,VDACtest,66,g,true,596.7000007629395,2,g,h,1,,,
gol,VDACtest,67,g,true,444,2,g,v,5,,,
gol,VDACtest,68,g,true,699.8000011444092,1,r,v,0,,,
gol,VDACtest,69,g,true,812.3000011444092,1,r,h,1,,,
gol,VDACtest,70,g,true,694.1000003814697,2,g,v,4,,,
gol,VDACtest,71,g,true,638.2999992370605,2,g,v,3,,,
gol,VDACtest,72,g,true,533.7999992370605,1,r,v,1,,,
gol,VDACtest,73,g,true,564.7999992370605,2,g,h,0,,,
gol,VDACtest,74,g,true,524.5,1,r,v,5,,,
gol,VDACtest,75,g,true,692.1000003814697,2,g,h,4,,,
gol,VDACtest,76,g,true,750,2,g,v,2,,,
gol,VDACtest,77,g,true,709.6999988555908,1,r,v,0,,,
gol,VDACtest,78,g,true,685.2000007629395,2,g,h,2,,,
gol,VDACtest,79,g,false,556,1,r,h,1,,,
gol,VDACtest,80,g,true,654.1999988555908,2,g,h,4,,,
gol,VDACtest,81,g,true,571.5,1,r,v,0,,,
gol,VDACtest,82,g,true,573.7000007629395,2,g,v,2,,,
gol,VDACtest,83,g,true,571.9000015258789,1,r,h,4,,,
gol,VDACtest,84,g,true,677.3999996185303,1,r,h,2,,,
gol,VDACtest,85,g,true,515.3999996185303,1,r,v,5,,,
gol,VDACtest,86,g,true,595.8999996185303,2,g,v,0,,,
gol,VDACtest,87,g,true,548.6000003814697,2,g,h,3,,,
gol,VDACtest,88,g,true,659.7999992370605,1,r,h,5,,,
gol,VDACtest,89,g,true,571.7000007629395,2,g,h,2,,,
gol,VDACtest,90,g,true,540,1,r,v,2,,,
gol,VDACtest,91,g,true,453.9000015258789,1,r,h,2,,,
gol,VDACtest,92,g,true,540.2999992370605,2,g,h,4,,,
gol,VDACtest,93,g,true,410.8000011444092,1,r,v,4,,,
gol,VDACtest,94,g,true,661.5,2,g,h,5,,,
gol,VDACtest,95,g,true,828.8999996185303,1,r,v,3,,,
gol,VDACtest,96,g,true,525.2000007629395,1,r,v,3,,,
gol,VDACtest,97,g,true,684.7000007629395,1,r,h,1,,,
gol,VDACtest,98,g,true,468.6999988555908,1,r,h,5,,,
gol,VDACtest,99,g,true,466.20000076293945,1,r,v,3,,,
gol,VDACtest,100,g,true,572.3999996185303,1,r,v,1,,,
brk,brk,brk,brk,brk,brk,brk,brk,brk,brk,brk,brk,
gol,VDACtest,101,g,true,697.3000011444092,1,r,h,5,,,
gol,VDACtest,102,g,true,436.0999984741211,2,g,v,4,,,
gol,VDACtest,103,g,true,645.8999996185303,2,g,h,1,,,
gol,VDACtest,104,g,true,668,1,r,h,2,,,
gol,VDACtest,105,g,true,675.3999996185303,1,r,h,5,,,
gol,VDACtest,106,g,true,562.9000015258789,1,r,h,1,,,
gol,VDACtest,107,g,true,469.5,1,r,h,0,,,
gol,VDACtest,108,g,true,563,2,g,v,4,,,
gol,VDACtest,109,g,true,548.4000015258789,1,r,v,4,,,
gol,VDACtest,110,g,true,524.6000003814697,2,g,v,0,,,
gol,VDACtest,111,g,true,539.8999996185303,1,r,h,4,,,
gol,VDACtest,112,g,true,635.2000007629395,2,g,h,5,,,
gol,VDACtest,113,g,true,708.8999996185303,2,g,v,2,,,
gol,VDACtest,114,g,true,572.5,2,g,v,3,,,
gol,VDACtest,115,g,true,633.2000007629395,2,g,h,5,,,
gol,VDACtest,116,g,true,765.1999988555908,2,g,v,3,,,
gol,VDACtest,117,g,true,514.7000007629395,2,g,v,0,,,
gol,VDACtest,118,g,true,507.3000011444092,1,r,v,2,,,
gol,VDACtest,119,g,true,428.6999988555908,1,r,v,0,,,
gol,VDACtest,120,g,true,635.3999996185303,1,r,h,3,,,
gol,VDACtest,121,g,true,579.7000007629395,2,g,h,0,,,
gol,VDACtest,122,g,true,515.9000015258789,2,g,v,1,,,
gol,VDACtest,123,g,true,533.3000011444092,2,g,v,3,,,
gol,VDACtest,124,g,true,652.5,1,r,v,3,,,
gol,VDACtest,125,g,true,637.8000011444092,2,g,h,0,,,
gol,VDACtest,126,g,true,572.5,1,r,v,2,,,
gol,VDACtest,127,g,true,690.7000007629395,1,r,v,3,,,
gol,VDACtest,128,g,true,555,2,g,h,5,,,
gol,VDACtest,129,g,true,676.8999996185303,2,g,h,1,,,
gol,VDACtest,130,g,true,596.8999996185303,2,g,v,5,,,
gol,VDACtest,131,g,true,549.7000007629395,1,r,h,2,,,
gol,VDACtest,132,g,true,564.5,1,r,h,3,,,
gol,VDACtest,133,g,true,579.3999996185303,1,r,h,5,,,
gol,VDACtest,134,g,true,547.8999996185303,2,g,v,1,,,
gol,VDACtest,135,g,true,572.3999996185303,1,r,h,1,,,
gol,VDACtest,136,g,true,492.6999988555908,2,g,v,4,,,
gol,VDACtest,137,g,true,603.7000007629395,2,g,h,4,,,
gol,VDACtest,138,g,true,540.8000011444092,2,g,h,0,,,
gol,VDACtest,139,g,true,611.8000011444092,1,r,h,0,,,
gol,VDACtest,140,g,true,540.1000003814697,2,g,h,3,,,
gol,VDACtest,141,g,true,651.3000011444092,1,r,h,5,,,
gol,VDACtest,142,g,true,445.3000011444092,1,r,h,3,,,
gol,VDACtest,143,g,true,532.6000003814697,2,g,h,2,,,
gol,VDACtest,144,g,true,676.1000003814697,1,r,v,2,,,
gol,VDACtest,145,g,true,571.2999992370605,2,g,v,1,,,
gol,VDACtest,146,g,true,605.2999992370605,1,r,h,5,,,
gol,VDACtest,147,g,true,627.9000015258789,2,g,h,5,,,
gol,VDACtest,148,g,true,565.1000003814697,1,r,h,1,,,
gol,VDACtest,149,g,true,596.3999996185303,1,r,v,2,,,
gol,VDACtest,150,g,true,539.8999996185303,1,r,v,5,,,
brk,brk,brk,brk,brk,brk,brk,brk,brk,brk,brk,brk,
gol,VDACtest,151,g,true,594.2000007629395,1,r,h,4,,,
gol,VDACtest,152,g,true,650.5,2,g,h,2,,,
gol,VDACtest,153,g,true,646.7000007629395,1,r,v,4,,,
gol,VDACtest,154,g,true,468.3999996185303,1,r,v,4,,,
gol,VDACtest,155,g,true,659.7000007629395,1,r,h,3,,,
gol,VDACtest,156,g,true,572.8000011444092,1,r,h,4,,,
gol,VDACtest,157,g,true,485.5,1,r,h,4,,,
gol,VDACtest,158,g,true,516.8999996185303,2,g,v,5,,,
gol,VDACtest,159,g,true,493.1000003814697,2,g,h,4,,,
gol,VDACtest,160,g,true,845.2999992370605,1,r,h,1,,,
gol,VDACtest,161,g,true,531.8999996185303,2,g,v,2,,,
gol,VDACtest,162,g,true,595.6000003814697,2,g,h,0,,,
gol,VDACtest,163,g,true,589.3999996185303,2,g,h,3,,,
gol,VDACtest,164,g,true,515.2999992370605,1,r,v,3,,,
gol,VDACtest,165,g,true,666.7999992370605,1,r,v,1,,,
gol,VDACtest,166,g,true,475.70000076293945,2,g,h,2,,,
gol,VDACtest,167,g,true,556.2000007629395,1,r,h,2,,,
gol,VDACtest,168,g,true,893,1,r,v,5,,,
gol,VDACtest,169,g,true,492.70000076293945,2,g,v,3,,,
gol,VDACtest,170,g,true,604.1999988555908,2,g,h,4,,,
gol,VDACtest,171,g,true,617.1999988555908,1,r,h,2,,,
gol,VDACtest,172,g,true,453.3000011444092,1,r,v,1,,,
gol,VDACtest,173,g,true,459.6999988555908,1,r,v,4,,,
gol,VDACtest,174,g,true,541.1999988555908,2,g,h,4,,,
gol,VDACtest,175,g,true,444,1,r,h,2,,,
gol,VDACtest,176,g,true,507.6999988555908,1,r,v,1,,,
gol,VDACtest,177,g,true,436.1999988555908,2,g,h,2,,,
gol,VDACtest,178,g,true,684.8999996185303,2,g,h,3,,,
gol,VDACtest,179,g,true,434.5,2,g,v,2,,,
gol,VDACtest,180,g,true,444,2,g,v,0,,,
gol,VDACtest,181,g,true,508.5,2,g,v,0,,,
gol,VDACtest,182,g,true,483.20000076293945,2,g,h,3,,,
gol,VDACtest,183,g,true,516.5,2,g,v,1,,,
gol,VDACtest,184,g,true,506.5,1,r,h,0,,,
gol,VDACtest,185,g,true,553.1000003814697,2,g,h,3,,,
gol,VDACtest,186,g,true,572.6000003814697,2,g,h,4,,,
gol,VDACtest,187,g,true,532.5,2,g,h,5,,,
gol,VDACtest,188,g,false,437,2,g,v,4,,,
gol,VDACtest,189,g,true,698.3000011444092,1,r,v,1,,,
gol,VDACtest,190,g,true,524.6999988555908,2,g,v,5,,,
gol,VDACtest,191,g,true,466.8999996185303,1,r,v,0,,,
gol,VDACtest,192,g,true,610.5999984741211,1,r,v,1,,,
gol,VDACtest,193,g,true,540.5,2,g,h,2,,,
gol,VDACtest,194,g,true,539.7999992370605,1,r,h,0,,,
gol,VDACtest,195,g,true,521.8999996185303,1,r,h,3,,,
gol,VDACtest,196,g,true,540.7000007629395,2,g,h,0,,,
gol,VDACtest,197,g,true,541.6000003814697,1,r,h,0,,,
gol,VDACtest,198,g,true,628,1,r,v,2,,,
gol,VDACtest,199,g,true,548.6000003814697,2,g,h,2,,,
gol,VDACtest,200,g,true,587.2999992370605,1,r,h,0,,,
gol,RSVPtrain,0,g,true,1395.1000003814697,1,r,,3,2,1,
gol,RSVPtrain,0,g,false,691.3999996185303,2,g,,2,2,2,
gol,RSVPtrain,0,g,true,853.5,0,b,,0,3,0,
gol,RSVPtrain,0,g,true,1741.6000003814697,1,r,,0,0,2,
gol,RSVPtrain,0,g,true,1469.5,2,g,,3,0,1,
gol,RSVPtrain,0,g,false,1206.3999996185303,0,b,,1,3,0,
gol,RSVPtrain,0,g,true,1709.7999992370605,1,r,,1,1,2,
gol,RSVPtrain,0,g,true,1566.8000011444092,2,g,,1,0,1,
gol,RSVPtrain,0,g,true,1826.5,2,g,,3,1,1,
gol,RSVPtrain,0,g,true,1320.400001525879,0,b,,3,3,0,
gol,RSVPtest,1,g,true,1064.1000003814697,1,r,,3,1,1,
gol,RSVPtest,2,g,true,1495.5,2,g,,1,1,2,
gol,RSVPtest,3,g,true,1372.6999988555908,2,g,,2,0,1,
gol,RSVPtest,4,g,false,1699.7000007629395,1,r,,1,0,1,
gol,RSVPtest,5,g,true,1663.8999996185303,1,r,,3,0,1,
gol,RSVPtest,6,g,true,1349.7999992370605,0,b,,3,3,0,
gol,RSVPtest,7,g,true,958.1999988555908,1,r,,0,1,1,
gol,RSVPtest,8,g,true,917.5,2,g,,0,1,1,
gol,RSVPtest,9,g,true,1430.7999992370605,1,r,,3,2,1,
gol,RSVPtest,10,g,true,1403.6000003814697,0,b,,3,3,0,
gol,RSVPtest,11,g,true,1411.6000003814697,1,r,,3,1,1,
gol,RSVPtest,12,g,false,1215.1000003814697,0,b,,1,3,0,
gol,RSVPtest,13,g,true,1477.6000003814697,1,r,,0,0,2,
gol,RSVPtest,14,g,true,1531.7999992370605,1,r,,3,0,1,
gol,RSVPtest,15,g,false,1253.2999992370605,1,r,,1,1,2,
gol,RSVPtest,16,g,false,963,2,g,,1,1,2,
gol,RSVPtest,17,g,true,1141.5,2,g,,0,2,1,
gol,RSVPtest,18,g,true,1291.8999996185303,0,b,,0,3,0,
gol,RSVPtest,19,g,true,532.5,1,r,,1,2,1,
gol,RSVPtest,20,g,true,1372.6999988555908,1,r,,3,0,1,
gol,RSVPtest,21,g,true,1380.900001525879,2,g,,1,2,1,
gol,RSVPtest,22,g,true,1293.6000003814697,2,g,,3,0,1,
gol,RSVPtest,23,g,true,1237.2000007629395,1,r,,2,1,1,
gol,RSVPtest,24,g,true,1158.6000003814697,0,b,,1,3,0,
gol,RSVPtest,25,g,true,837.2999992370605,2,g,,0,1,1,
gol,RSVPtest,26,g,true,1012.2999992370605,1,r,,1,2,1,
gol,RSVPtest,27,g,true,1438.099998474121,1,r,,3,0,1,
gol,RSVPtest,28,g,true,1252.8000011444092,2,g,,2,2,2,
gol,RSVPtest,29,g,true,1142.6000003814697,2,g,,0,2,1,
gol,RSVPtest,30,g,false,1046,1,r,,1,2,1,
gol,RSVPtest,31,g,false,1211.3000011444092,1,r,,1,2,1,
gol,RSVPtest,32,g,true,1267,2,g,,2,1,1,
gol,RSVPtest,33,g,true,1559.1000003814697,2,g,,3,0,1,
gol,RSVPtest,34,g,true,1276.3999996185303,0,b,,0,3,0,
gol,RSVPtest,35,g,true,1148.8000011444092,1,r,,3,2,1,
gol,RSVPtest,36,g,true,1245.599998474121,1,r,,3,2,1,
gol,RSVPtest,37,g,true,1517.2999992370605,2,g,,2,0,1,
gol,RSVPtest,38,g,true,1252.3999996185303,2,g,,1,1,2,
gol,RSVPtest,39,g,true,1644.7999992370605,1,r,,1,1,2,
gol,RSVPtest,40,g,null,null,1,r,,3,1,1,
gol,RSVPtest,41,g,true,554,1,r,,1,0,1,
gol,RSVPtest,42,g,true,470.5,0,b,,2,3,0,
gol,RSVPtest,43,g,true,1101.5,1,r,,2,2,2,
gol,RSVPtest,44,g,true,982.6000003814697,1,r,,3,0,1,
gol,RSVPtest,45,g,true,1236.5,2,g,,3,1,1,
gol,RSVPtest,46,g,false,1406.6000003814697,1,r,,3,0,1,
gol,RSVPtest,47,g,false,887.5,0,b,,2,3,0,
gol,RSVPtest,48,g,true,1340.2000007629395,2,g,,3,2,1,
gol,RSVPtest,49,g,true,884.1000003814697,1,r,,2,0,1,
gol,RSVPtest,50,g,true,958.7999992370605,0,b,,2,3,0,
gol,RSVPtest,51,g,true,894,2,g,,1,0,1,
gol,RSVPtest,52,g,true,798.1999988555908,0,b,,3,3,0,
gol,RSVPtest,53,g,true,605.6999988555908,1,r,,1,0,1,
gol,RSVPtest,54,g,true,926.3999996185303,2,g,,3,2,1,
gol,RSVPtest,55,g,true,556.6000003814697,1,r,,3,0,1,
gol,RSVPtest,56,g,true,876.5999984741211,1,r,,2,0,1,
gol,RSVPtest,57,g,true,1045.2000007629395,2,g,,3,1,1,
gol,RSVPtest,58,g,true,851.3999996185303,2,g,,1,0,1,
gol,RSVPtest,59,g,true,1187.2000007629395,0,b,,2,3,0,
gol,RSVPtest,60,g,true,1110,2,g,,1,1,2,
brk,brk,brk,brk,brk,brk,brk,brk,brk,brk,brk,brk,
gol,RSVPtest,61,g,true,722.6999988555908,2,g,,1,2,1,
gol,RSVPtest,62,g,false,522.2999992370605,2,g,,0,0,2,
gol,RSVPtest,63,g,true,677.6999988555908,1,r,,0,0,2,
gol,RSVPtest,64,g,true,573.1000003814697,2,g,,0,1,1,
gol,RSVPtest,65,g,true,1021.2000007629395,1,r,,3,2,1,
gol,RSVPtest,66,g,false,763.0999984741211,2,g,,3,0,1,
gol,RSVPtest,67,g,true,1099.8000011444092,2,g,,3,0,1,
gol,RSVPtest,68,g,false,1085.1000003814697,0,b,,3,3,0,
gol,RSVPtest,69,g,true,1107.1999988555908,2,g,,3,0,1,
gol,RSVPtest,70,g,true,872.6999988555908,1,r,,3,1,1,
gol,RSVPtest,71,g,true,772.3999996185303,2,g,,1,2,1,
gol,RSVPtest,72,g,true,723.5999984741211,2,g,,2,1,1,
gol,RSVPtest,73,g,true,1203.6999988555908,2,g,,3,1,1,
gol,RSVPtest,74,g,false,1419.8999996185303,1,r,,1,1,2,
gol,RSVPtest,75,g,true,937.6000003814697,0,b,,3,3,0,
gol,RSVPtest,76,g,true,725.6000003814697,1,r,,2,2,2,
gol,RSVPtest,77,g,true,867.7000007629395,0,b,,3,3,0,
gol,RSVPtest,78,g,false,1070,1,r,,0,2,1,
gol,RSVPtest,79,g,true,653.8999996185303,2,g,,2,2,2,
gol,RSVPtest,80,g,true,1101.8999996185303,1,r,,1,2,1,
gol,RSVPtest,81,g,true,1115,0,b,,1,3,0,
gol,RSVPtest,82,g,true,1074.2000007629395,1,r,,0,2,1,
gol,RSVPtest,83,g,true,922,1,r,,2,2,2,
gol,RSVPtest,84,g,true,965.1000003814697,0,b,,1,3,0,
gol,RSVPtest,85,g,false,1252,2,g,,3,2,1,
gol,RSVPtest,86,g,true,1024.1000003814697,0,b,,2,3,0,
gol,RSVPtest,87,g,true,629,1,r,,2,1,1,
gol,RSVPtest,88,g,true,867.6000003814697,1,r,,0,2,1,
gol,RSVPtest,89,g,true,829.5999984741211,1,r,,0,2,1,
gol,RSVPtest,90,g,false,548.8999996185303,2,g,,0,1,1,
gol,RSVPtest,91,g,true,637.5,1,r,,3,1,1,
gol,RSVPtest,92,g,false,957.8999996185303,0,b,,3,3,0,
gol,RSVPtest,93,g,false,669.6000003814697,0,b,,0,3,0,
gol,RSVPtest,94,g,false,572.5,0,b,,3,3,0,
gol,RSVPtest,95,g,true,902,0,b,,1,3,0,
gol,RSVPtest,96,g,true,891.5999984741211,1,r,,3,0,1,
gol,RSVPtest,97,g,true,1012.7000007629395,2,g,,0,2,1,
gol,RSVPtest,98,g,false,872.2999992370605,1,r,,3,1,1,
gol,RSVPtest,99,g,true,1276.5,1,r,,1,2,1,
gol,RSVPtest,100,g,true,570.8999996185303,1,r,,2,0,1,
gol,RSVPtest,101,g,null,null,2,g,,1,0,1,
gol,RSVPtest,102,g,true,865.5999984741211,1,r,,2,1,1,
gol,RSVPtest,103,g,true,569.7000007629395,2,g,,3,0,1,
gol,RSVPtest,104,g,true,1114.8000011444092,0,b,,3,3,0,
gol,RSVPtest,105,g,true,514.6000003814697,2,g,,2,0,1,
gol,RSVPtest,106,g,true,730.7000007629395,1,r,,2,1,1,
gol,RSVPtest,107,g,true,569.9000015258789,1,r,,0,0,2,
gol,RSVPtest,108,g,true,925.2000007629395,1,r,,3,1,1,
gol,RSVPtest,109,g,true,756.1999988555908,0,b,,3,3,0,
gol,RSVPtest,110,g,true,1331.1000003814697,1,r,,0,2,1,
gol,RSVPtest,111,g,true,1171.8000011444092,2,g,,1,2,1,
gol,RSVPtest,112,g,true,347.6999988555908,1,r,,0,0,2,
gol,RSVPtest,113,g,true,515.5,2,g,,3,1,1,
gol,RSVPtest,114,g,true,802.7999992370605,0,b,,3,3,0,
gol,RSVPtest,115,g,true,988.1000003814697,1,r,,3,0,1,
gol,RSVPtest,116,g,true,922.8999996185303,0,b,,3,3,0,
gol,RSVPtest,117,g,true,834.7999992370605,2,g,,1,0,1,
gol,RSVPtest,118,g,true,699.8000011444092,0,b,,3,3,0,
gol,RSVPtest,119,g,true,827.2999992370605,2,g,,3,1,1,
gol,RSVPtest,120,g,false,1099.6999988555908,2,g,,3,0,1,
brk,brk,brk,brk,brk,brk,brk,brk,brk,brk,brk,brk,
gol,RSVPtest,121,g,true,633.3000011444092,2,g,,2,0,1,
gol,RSVPtest,122,g,true,633.3000011444092,1,r,,2,2,2,
gol,RSVPtest,123,g,true,652.5,0,b,,0,3,0,
gol,RSVPtest,124,g,true,1060.5,1,r,,3,0,1,
gol,RSVPtest,125,g,true,747.8999996185303,1,r,,3,2,1,
gol,RSVPtest,126,g,true,763.7000007629395,2,g,,3,2,1,
gol,RSVPtest,127,g,true,1412.3999996185303,0,b,,0,3,0,
gol,RSVPtest,128,g,true,1123.2999992370605,1,r,,0,1,1,
gol,RSVPtest,129,g,true,835.2999992370605,2,g,,0,0,2,
gol,RSVPtest,130,g,true,920.3999996185303,0,b,,3,3,0,
gol,RSVPtest,131,g,true,538.3000011444092,2,g,,3,1,1,
gol,RSVPtest,132,g,true,920.7999992370605,2,g,,1,0,1,
gol,RSVPtest,133,g,true,579.6000003814697,1,r,,3,2,1,
gol,RSVPtest,134,g,true,921.7000007629395,2,g,,0,2,1,
gol,RSVPtest,135,g,false,486.3000011444092,2,g,,3,0,1,
gol,RSVPtest,136,g,true,803.8999996185303,1,r,,3,2,1,
gol,RSVPtest,137,g,true,370.29999923706055,2,g,,0,2,1,
gol,RSVPtest,138,g,true,752.5999984741211,2,g,,1,1,2,
gol,RSVPtest,139,g,false,657.6000003814697,2,g,,3,0,1,
gol,RSVPtest,140,g,true,786,1,r,,3,1,1,
gol,RSVPtest,141,g,false,938.7999992370605,2,g,,1,2,1,
gol,RSVPtest,142,g,true,710.9000015258789,2,g,,3,1,1,
gol,RSVPtest,143,g,false,811.7999992370605,0,b,,3,3,0,
gol,RSVPtest,144,g,true,603,1,r,,3,2,1,
gol,RSVPtest,145,g,false,945.8999996185303,1,r,,1,1,2,
gol,RSVPtest,146,g,true,1018,0,b,,3,3,0,
gol,RSVPtest,147,g,true,634,2,g,,2,1,1,
gol,RSVPtest,148,g,true,626.5,2,g,,1,1,2,
gol,RSVPtest,149,g,true,1207.8999996185303,2,g,,3,0,1,
gol,RSVPtest,150,g,true,1162.6000003814697,2,g,,3,2,1,
gol,RSVPtest,151,g,false,955.6000003814697,0,b,,1,3,0,
gol,RSVPtest,152,g,true,1074.2000007629395,1,r,,3,1,1,
gol,RSVPtest,153,g,true,707.6000003814697,1,r,,0,2,1,
gol,RSVPtest,154,g,true,961.7999992370605,1,r,,1,1,2,
gol,RSVPtest,155,g,true,715,1,r,,0,0,2,
gol,RSVPtest,156,g,false,819,1,r,,2,0,1,
gol,RSVPtest,157,g,null,null,2,g,,3,1,1,
gol,RSVPtest,158,g,true,569.6000003814697,2,g,,1,0,1,
gol,RSVPtest,159,g,false,531.2000007629395,1,r,,0,1,1,
gol,RSVPtest,160,g,true,474.70000076293945,1,r,,1,0,1,
gol,RSVPtest,161,g,true,818.2000007629395,1,r,,3,0,1,
gol,RSVPtest,162,g,true,844.1999988555908,2,g,,2,1,1,
gol,RSVPtest,163,g,true,601.6000003814697,0,b,,0,3,0,
gol,RSVPtest,164,g,true,1139,2,g,,3,2,1,
gol,RSVPtest,165,g,true,1009.2999992370605,2,g,,3,0,1,
gol,RSVPtest,166,g,true,764.2999992370605,0,b,,3,3,0,
gol,RSVPtest,167,g,true,1539.2999992370605,2,g,,0,0,2,
gol,RSVPtest,168,g,false,794.6000003814697,2,g,,2,1,1,
gol,RSVPtest,169,g,false,914.0999984741211,2,g,,3,2,1,
gol,RSVPtest,170,g,true,795.7000007629395,0,b,,3,3,0,
gol,RSVPtest,171,g,true,669.7999992370605,2,g,,1,2,1,
gol,RSVPtest,172,g,true,650.5,1,r,,3,0,1,
gol,RSVPtest,173,g,true,584.1999988555908,2,g,,3,2,1,
gol,RSVPtest,174,g,true,700.0999984741211,0,b,,2,3,0,
gol,RSVPtest,175,g,true,712.7999992370605,0,b,,3,3,0,
gol,RSVPtest,176,g,true,706.6000003814697,0,b,,0,3,0,
gol,RSVPtest,177,g,true,1264,0,b,,3,3,0,
gol,RSVPtest,178,g,true,639.8999996185303,0,b,,0,3,0,
gol,RSVPtest,179,g,false,788.5,2,g,,0,1,1,
gol,RSVPtest,180,g,true,810.7999992370605,2,g,,0,1,1,
brk,brk,brk,brk,brk,brk,brk,brk,brk,brk,brk,brk,
gol,RSVPtest,181,g,true,1116.5,0,b,,2,3,0,
gol,RSVPtest,182,g,true,656.5,0,b,,3,3,0,
gol,RSVPtest,183,g,true,1177.3000011444092,0,b,,0,3,0,
gol,RSVPtest,184,g,null,null,1,r,,3,2,1,
gol,RSVPtest,185,g,true,562.8999996185303,0,b,,1,3,0,
gol,RSVPtest,186,g,false,939.5999984741211,0,b,,2,3,0,
gol,RSVPtest,187,g,true,920.8999996185303,2,g,,0,0,2,
gol,RSVPtest,188,g,true,569.8000011444092,2,g,,0,0,2,
gol,RSVPtest,189,g,null,null,0,b,,0,3,0,
gol,RSVPtest,190,g,true,702.1000003814697,1,r,,2,0,1,
gol,RSVPtest,191,g,true,618.1000003814697,0,b,,0,3,0,
gol,RSVPtest,192,g,true,722.1000003814697,1,r,,2,2,2,
gol,RSVPtest,193,g,true,724.5,2,g,,2,2,2,
gol,RSVPtest,194,g,true,675.9000015258789,2,g,,0,0,2,
gol,RSVPtest,195,g,true,1371.2000007629395,2,g,,2,2,2,
gol,RSVPtest,196,g,true,969.1000003814697,1,r,,3,2,1,
gol,RSVPtest,197,g,true,794.5,1,r,,3,1,1,
gol,RSVPtest,198,g,null,null,2,g,,3,0,1,
gol,RSVPtest,199,g,null,null,1,r,,2,1,1,
gol,RSVPtest,200,g,true,818,0,b,,1,3,0,
gol,RSVPtest,201,g,true,714.8999996185303,0,b,,3,3,0,
gol,RSVPtest,202,g,true,988.7000007629395,1,r,,3,2,1,
gol,RSVPtest,203,g,true,1106.900001525879,0,b,,0,3,0,
gol,RSVPtest,204,g,true,627.1999988555908,2,g,,3,2,1,
gol,RSVPtest,205,g,true,657.8999996185303,0,b,,2,3,0,
gol,RSVPtest,206,g,true,649.6000003814697,2,g,,3,1,1,
gol,RSVPtest,207,g,true,610.3999996185303,1,r,,1,0,1,
gol,RSVPtest,208,g,true,506.3999996185303,1,r,,3,1,1,
gol,RSVPtest,209,g,true,741,1,r,,0,1,1,
gol,RSVPtest,210,g,false,979,1,r,,2,2,2,
gol,RSVPtest,211,g,true,554.8999996185303,1,r,,2,0,1,
gol,RSVPtest,212,g,false,763.6000003814697,0,b,,3,3,0,
gol,RSVPtest,213,g,true,515.7999992370605,2,g,,2,1,1,
gol,RSVPtest,214,g,true,530.5,0,b,,2,3,0,
gol,RSVPtest,215,g,false,649.6999988555908,2,g,,3,1,1,
gol,RSVPtest,216,g,false,754,2,g,,0,2,1,
gol,RSVPtest,217,g,true,752.1000003814697,1,r,,0,1,1,
gol,RSVPtest,218,g,true,819.8999996185303,1,r,,0,0,2,
gol,RSVPtest,219,g,true,602.1000003814697,2,g,,2,2,2,
gol,RSVPtest,220,g,false,1458.5,2,g,,3,1,1,
gol,RSVPtest,221,g,true,673.5,0,b,,1,3,0,
gol,RSVPtest,222,g,true,1049.5,2,g,,2,0,1,
gol,RSVPtest,223,g,true,1138,1,r,,1,0,1,
gol,RSVPtest,224,g,true,433,1,r,,2,1,1,
gol,RSVPtest,225,g,true,927.1000003814697,2,g,,2,0,1,
gol,RSVPtest,226,g,false,1008.6999988555908,2,g,,3,2,1,
gol,RSVPtest,227,g,true,871.3999996185303,0,b,,2,3,0,
gol,RSVPtest,228,g,false,848.7000007629395,0,b,,3,3,0,
gol,RSVPtest,229,g,true,1104.7000007629395,1,r,,0,1,1,
gol,RSVPtest,230,g,false,765.8999996185303,2,g,,3,1,1,
gol,RSVPtest,231,g,true,1256.2000007629395,2,g,,3,2,1,
gol,RSVPtest,232,g,true,750.8000011444092,2,g,,2,2,2,
gol,RSVPtest,233,g,true,731.1000003814697,0,b,,1,3,0,
gol,RSVPtest,234,g,false,1536.8000011444092,1,r,,3,1,1,
gol,RSVPtest,235,g,true,688.6999988555908,1,r,,3,2,1,
gol,RSVPtest,236,g,true,501.8999996185303,0,b,,2,3,0,
gol,RSVPtest,237,g,true,497.1999988555908,0,b,,1,3,0,
gol,RSVPtest,238,g,true,704.7999992370605,1,r,,1,1,2,
gol,RSVPtest,239,g,false,595.3000011444092,2,g,,3,2,1,
gol,RSVPtest,240,g,true,464.3999996185303,0,b,,1,3,0,
