subID,trialType,trialNum,cntBalance,correct,rt,rwdType,tgtCol,tgtDir,tgtPos,colPos,colMatch,
wtj,VDACtrain,0,g,true,692.7000007629395,2,g,h,3,,,
wtj,VDACtrain,0,g,null,null,1,r,h,1,,,
wtj,VDACtrain,0,g,null,null,1,r,h,0,,,
wtj,VDACtrain,0,g,true,522.5,1,r,v,4,,,
wtj,VDACtrain,0,g,null,null,2,g,h,5,,,
wtj,VDACtrain,0,g,true,680.6000003814697,1,r,v,3,,,
wtj,VDACtrain,0,g,true,569.7999992370605,1,r,h,2,,,
wtj,VDACtrain,0,g,true,987.3999996185303,2,g,v,0,,,
wtj,VDACtrain,0,g,true,764,2,g,v,5,,,
wtj,VDACtrain,0,g,false,938.0999984741211,2,g,v,2,,,
wtj,VDACtest,1,g,true,651.7999992370605,1,r,v,2,,,
wtj,VDACtest,2,g,false,490.3000011444092,2,g,v,3,,,
wtj,VDACtest,3,g,null,null,1,r,h,3,,,
wtj,VDACtest,4,g,true,765.3999996185303,1,r,v,1,,,
wtj,VDACtest,5,g,true,762.8999996185303,1,r,v,5,,,
wtj,VDACtest,6,g,true,777.6999988555908,2,g,h,5,,,
wtj,VDACtest,7,g,null,null,2,g,h,0,,,
wtj,VDACtest,8,g,true,746.8000011444092,2,g,h,1,,,
wtj,VDACtest,9,g,true,619,2,g,h,1,,,
wtj,VDACtest,10,g,true,763.8999996185303,1,r,h,0,,,
wtj,VDACtest,11,g,true,665.8999996185303,2,g,v,2,,,
wtj,VDACtest,12,g,true,523.2999992370605,2,g,h,3,,,
wtj,VDACtest,13,g,true,651.5999984741211,1,r,h,4,,,
wtj,VDACtest,14,g,true,633.2000007629395,1,r,v,1,,,
wtj,VDACtest,15,g,true,700.1000003814697,1,r,v,0,,,
wtj,VDACtest,16,g,true,636,2,g,h,0,,,
wtj,VDACtest,17,g,true,634.8999996185303,1,r,h,1,,,
wtj,VDACtest,18,g,true,521.8000011444092,2,g,v,1,,,
wtj,VDACtest,19,g,true,826.7999992370605,2,g,h,0,,,
wtj,VDACtest,20,g,true,794,1,r,h,1,,,
wtj,VDACtest,21,g,true,586.2000007629395,2,g,v,1,,,
wtj,VDACtest,22,g,null,null,1,r,h,5,,,
wtj,VDACtest,23,g,true,492.8999996185303,1,r,h,5,,,
wtj,VDACtest,24,g,true,681.6999988555908,2,g,h,1,,,
wtj,VDACtest,25,g,true,746.7000007629395,2,g,v,0,,,
wtj,VDACtest,26,g,true,603,2,g,v,4,,,
wtj,VDACtest,27,g,true,602.7000007629395,1,r,h,5,,,
wtj,VDACtest,28,g,true,556.6000003814697,2,g,h,5,,,
wtj,VDACtest,29,g,true,571,2,g,v,0,,,
wtj,VDACtest,30,g,true,905.7999992370605,1,r,v,0,,,
wtj,VDACtest,31,g,true,843,1,r,h,4,,,
wtj,VDACtest,32,g,true,731.2999992370605,2,g,v,2,,,
wtj,VDACtest,33,g,true,730.8999996185303,2,g,h,0,,,
wtj,VDACtest,34,g,true,571.1999988555908,1,r,v,3,,,
wtj,VDACtest,35,g,true,602.4000015258789,2,g,v,5,,,
wtj,VDACtest,36,g,true,553.7000007629395,1,r,v,3,,,
wtj,VDACtest,37,g,true,618.5,2,g,v,1,,,
wtj,VDACtest,38,g,true,667.3999996185303,2,g,h,2,,,
wtj,VDACtest,39,g,true,873.5,1,r,h,1,,,
wtj,VDACtest,40,g,true,730.7999992370605,2,g,h,5,,,
wtj,VDACtest,41,g,true,618.6999988555908,2,g,h,1,,,
wtj,VDACtest,42,g,true,778.8000011444092,1,r,v,2,,,
wtj,VDACtest,43,g,true,555.8999996185303,1,r,v,4,,,
wtj,VDACtest,44,g,true,698.7000007629395,2,g,v,1,,,
wtj,VDACtest,45,g,true,618.1000003814697,2,g,v,5,,,
wtj,VDACtest,46,g,true,539.3999996185303,2,g,v,5,,,
wtj,VDACtest,47,g,true,667.2000007629395,2,g,h,1,,,
wtj,VDACtest,48,g,true,538.5,1,r,v,5,,,
wtj,VDACtest,49,g,true,570.2999992370605,2,g,h,3,,,
wtj,VDACtest,50,g,true,681.3999996185303,2,g,h,1,,,
brk,brk,brk,brk,brk,brk,brk,brk,brk,brk,brk,brk,
wtj,VDACtest,51,g,true,589.8999996185303,1,r,v,0,,,
wtj,VDACtest,52,g,true,715.1999988555908,1,r,h,1,,,
wtj,VDACtest,53,g,true,679.7999992370605,1,r,h,3,,,
wtj,VDACtest,54,g,true,440.8999996185303,1,r,h,3,,,
wtj,VDACtest,55,g,true,490.1999988555908,2,g,h,3,,,
wtj,VDACtest,56,g,true,491.79999923706055,1,r,v,4,,,
wtj,VDACtest,57,g,true,585.7999992370605,2,g,v,3,,,
wtj,VDACtest,58,g,null,null,2,g,h,3,,,
wtj,VDACtest,59,g,true,603.4000015258789,1,r,h,3,,,
wtj,VDACtest,60,g,true,777.8999996185303,1,r,h,1,,,
wtj,VDACtest,61,g,true,507.1000003814697,1,r,v,4,,,
wtj,VDACtest,62,g,false,538.3000011444092,2,g,h,4,,,
wtj,VDACtest,63,g,true,618.3999996185303,2,g,h,2,,,
wtj,VDACtest,64,g,true,489.8000011444092,2,g,v,3,,,
wtj,VDACtest,65,g,true,475.1000003814697,1,r,h,2,,,
wtj,VDACtest,66,g,true,651.2000007629395,1,r,h,4,,,
wtj,VDACtest,67,g,true,570.2999992370605,1,r,h,5,,,
wtj,VDACtest,68,g,true,538.7000007629395,2,g,h,2,,,
wtj,VDACtest,69,g,true,490.29999923706055,1,r,h,3,,,
wtj,VDACtest,70,g,true,522.8000011444092,1,r,h,4,,,
wtj,VDACtest,71,g,true,745,1,r,v,0,,,
wtj,VDACtest,72,g,true,569.6000003814697,2,g,v,4,,,
wtj,VDACtest,73,g,true,745,1,r,v,0,,,
wtj,VDACtest,74,g,true,729.3999996185303,2,g,h,1,,,
wtj,VDACtest,75,g,true,697.0999984741211,1,r,h,5,,,
wtj,VDACtest,76,g,true,523.3000011444092,1,r,h,3,,,
wtj,VDACtest,77,g,true,683.5,1,r,v,2,,,
wtj,VDACtest,78,g,true,667.8999996185303,2,g,v,4,,,
wtj,VDACtest,79,g,true,714,2,g,h,2,,,
wtj,VDACtest,80,g,true,586.6000003814697,1,r,v,1,,,
wtj,VDACtest,81,g,true,636.1000003814697,2,g,v,4,,,
wtj,VDACtest,82,g,true,857.7999992370605,2,g,v,0,,,
wtj,VDACtest,83,g,true,697.5,1,r,h,1,,,
wtj,VDACtest,84,g,true,715.3999996185303,1,r,v,3,,,
wtj,VDACtest,85,g,true,552.2999992370605,1,r,v,2,,,
wtj,VDACtest,86,g,true,858.3999996185303,2,g,h,0,,,
wtj,VDACtest,87,g,true,538,1,r,v,4,,,
wtj,VDACtest,88,g,true,809.8999996185303,2,g,v,1,,,
wtj,VDACtest,89,g,true,667.3999996185303,1,r,v,2,,,
wtj,VDACtest,90,g,true,794.5,2,g,v,0,,,
wtj,VDACtest,91,g,true,603.7000007629395,2,g,v,5,,,
wtj,VDACtest,92,g,true,602.5999984741211,1,r,h,1,,,
wtj,VDACtest,93,g,null,null,2,g,v,2,,,
wtj,VDACtest,94,g,true,636.1999988555908,1,r,h,3,,,
wtj,VDACtest,95,g,true,570.5,2,g,v,3,,,
wtj,VDACtest,96,g,true,603.6000003814697,2,g,h,4,,,
wtj,VDACtest,97,g,true,824.8000011444092,1,r,h,5,,,
wtj,VDACtest,98,g,true,602.1000003814697,2,g,v,1,,,
wtj,VDACtest,99,g,true,650.8999996185303,1,r,h,0,,,
wtj,VDACtest,100,g,true,649.7000007629395,2,g,h,4,,,
brk,brk,brk,brk,brk,brk,brk,brk,brk,brk,brk,brk,
wtj,VDACtest,101,g,true,623.3999996185303,2,g,v,1,,,
wtj,VDACtest,102,g,true,587.3000011444092,2,g,v,0,,,
wtj,VDACtest,103,g,true,683.2000007629395,1,r,v,2,,,
wtj,VDACtest,104,g,true,539.5999984741211,1,r,h,4,,,
wtj,VDACtest,105,g,true,633.8999996185303,2,g,h,5,,,
wtj,VDACtest,106,g,true,522.8999996185303,2,g,h,4,,,
wtj,VDACtest,107,g,true,570.3999996185303,1,r,v,4,,,
wtj,VDACtest,108,g,true,698.2000007629395,1,r,v,5,,,
wtj,VDACtest,109,g,true,588.2999992370605,2,g,v,0,,,
wtj,VDACtest,110,g,true,522.5,1,r,v,3,,,
wtj,VDACtest,111,g,true,585.1000003814697,2,g,v,3,,,
wtj,VDACtest,112,g,true,553.0999984741211,1,r,v,4,,,
wtj,VDACtest,113,g,true,618,1,r,h,0,,,
wtj,VDACtest,114,g,true,712.9000015258789,2,g,h,5,,,
wtj,VDACtest,115,g,true,681.7000007629395,1,r,h,5,,,
wtj,VDACtest,116,g,true,650,1,r,v,3,,,
wtj,VDACtest,117,g,true,586.8999996185303,1,r,h,4,,,
wtj,VDACtest,118,g,true,713.7999992370605,2,g,h,3,,,
wtj,VDACtest,119,g,true,730.6000003814697,2,g,v,5,,,
wtj,VDACtest,120,g,true,859,2,g,h,2,,,
wtj,VDACtest,121,g,true,585.6000003814697,2,g,h,5,,,
wtj,VDACtest,122,g,true,650,1,r,v,2,,,
wtj,VDACtest,123,g,false,759.5,2,g,h,2,,,
wtj,VDACtest,124,g,true,713.6000003814697,1,r,v,2,,,
wtj,VDACtest,125,g,true,827.7999992370605,2,g,v,0,,,
wtj,VDACtest,126,g,true,682.3999996185303,1,r,v,5,,,
wtj,VDACtest,127,g,true,698.1000003814697,2,g,h,4,,,
wtj,VDACtest,128,g,true,715.2999992370605,1,r,h,0,,,
wtj,VDACtest,129,g,true,599.2999992370605,1,r,h,0,,,
wtj,VDACtest,130,g,true,522.3000011444092,1,r,h,2,,,
wtj,VDACtest,131,g,true,713.9000015258789,2,g,v,4,,,
wtj,VDACtest,132,g,null,null,2,g,h,2,,,
wtj,VDACtest,133,g,true,538.8999996185303,2,g,h,4,,,
wtj,VDACtest,134,g,true,521.5999984741211,2,g,v,0,,,
wtj,VDACtest,135,g,true,489.6000003814697,1,r,h,4,,,
wtj,VDACtest,136,g,true,697.6000003814697,1,r,v,1,,,
wtj,VDACtest,137,g,true,729.9000015258789,1,r,h,2,,,
wtj,VDACtest,138,g,true,489.3999996185303,1,r,h,4,,,
wtj,VDACtest,139,g,true,586.1000003814697,1,r,v,1,,,
wtj,VDACtest,140,g,true,554.1000003814697,1,r,h,1,,,
wtj,VDACtest,141,g,true,791.7999992370605,2,g,h,0,,,
wtj,VDACtest,142,g,true,617.8999996185303,2,g,v,2,,,
wtj,VDACtest,143,g,true,556.3000011444092,1,r,h,2,,,
wtj,VDACtest,144,g,true,504.6000003814697,1,r,h,2,,,
wtj,VDACtest,145,g,true,537.7999992370605,2,g,v,3,,,
wtj,VDACtest,146,g,true,698.8999996185303,1,r,v,0,,,
wtj,VDACtest,147,g,true,586.4000015258789,2,g,v,4,,,
wtj,VDACtest,148,g,true,633.8999996185303,2,g,h,4,,,
wtj,VDACtest,149,g,true,858.7000007629395,2,g,v,5,,,
wtj,VDACtest,150,g,true,601.2000007629395,2,g,h,3,,,
brk,brk,brk,brk,brk,brk,brk,brk,brk,brk,brk,brk,
wtj,VDACtest,151,g,true,574.7999992370605,1,r,v,4,,,
wtj,VDACtest,152,g,true,553.7000007629395,2,g,h,4,,,
wtj,VDACtest,153,g,true,649.8999996185303,1,r,h,2,,,
wtj,VDACtest,154,g,true,586.1000003814697,2,g,v,2,,,
wtj,VDACtest,155,g,true,601.8999996185303,2,g,h,5,,,
wtj,VDACtest,156,g,true,474.20000076293945,1,r,v,5,,,
wtj,VDACtest,157,g,true,649.1000003814697,2,g,v,2,,,
wtj,VDACtest,158,g,true,617.2000007629395,1,r,h,2,,,
wtj,VDACtest,159,g,true,522.3999996185303,1,r,h,4,,,
wtj,VDACtest,160,g,true,552,1,r,v,5,,,
wtj,VDACtest,161,g,true,617.6999988555908,1,r,h,1,,,
wtj,VDACtest,162,g,true,506.0999984741211,2,g,h,1,,,
wtj,VDACtest,163,g,true,425.3999996185303,2,g,v,4,,,
wtj,VDACtest,164,g,true,873.6000003814697,1,r,v,0,,,
wtj,VDACtest,165,g,true,553.1999988555908,1,r,v,1,,,
wtj,VDACtest,166,g,true,507.3000011444092,2,g,v,2,,,
wtj,VDACtest,167,g,true,650,2,g,h,0,,,
wtj,VDACtest,168,g,true,507,1,r,v,3,,,
wtj,VDACtest,169,g,true,714.7000007629395,2,g,h,0,,,
wtj,VDACtest,170,g,true,505.1000003814697,1,r,v,3,,,
wtj,VDACtest,171,g,true,586.5,1,r,v,0,,,
wtj,VDACtest,172,g,true,507.5,1,r,v,4,,,
wtj,VDACtest,173,g,true,537,2,g,h,5,,,
wtj,VDACtest,174,g,true,521.9000015258789,1,r,v,1,,,
wtj,VDACtest,175,g,true,587.2000007629395,2,g,h,2,,,
wtj,VDACtest,176,g,true,458.29999923706055,1,r,v,3,,,
wtj,VDACtest,177,g,true,459.8000011444092,2,g,h,3,,,
wtj,VDACtest,178,g,true,459.1000003814697,2,g,h,3,,,
wtj,VDACtest,179,g,true,790.7000007629395,1,r,h,0,,,
wtj,VDACtest,180,g,true,602.2000007629395,2,g,h,4,,,
wtj,VDACtest,181,g,true,538.6000003814697,2,g,h,1,,,
wtj,VDACtest,182,g,true,714.6000003814697,1,r,v,5,,,
wtj,VDACtest,183,g,true,554.4000015258789,1,r,h,0,,,
wtj,VDACtest,184,g,true,523.2000007629395,1,r,v,1,,,
wtj,VDACtest,185,g,true,584.8999996185303,2,g,v,4,,,
wtj,VDACtest,186,g,true,538.3999996185303,2,g,v,2,,,
wtj,VDACtest,187,g,true,474.29999923706055,2,g,v,5,,,
wtj,VDACtest,188,g,true,554.5,2,g,v,4,,,
wtj,VDACtest,189,g,true,522,2,g,v,1,,,
wtj,VDACtest,190,g,true,538.6000003814697,2,g,v,1,,,
wtj,VDACtest,191,g,true,536.3999996185303,1,r,v,1,,,
wtj,VDACtest,192,g,true,619.2999992370605,1,r,h,2,,,
wtj,VDACtest,193,g,true,520.8000011444092,2,g,v,5,,,
wtj,VDACtest,194,g,true,539,1,r,h,3,,,
wtj,VDACtest,195,g,true,538.8999996185303,2,g,v,3,,,
wtj,VDACtest,196,g,true,603.8999996185303,1,r,v,5,,,
wtj,VDACtest,197,g,true,506.6000003814697,2,g,v,3,,,
wtj,VDACtest,198,g,true,586.6999988555908,1,r,v,4,,,
wtj,VDACtest,199,g,true,602.7000007629395,1,r,h,5,,,
wtj,VDACtest,200,g,true,585.9000015258789,1,r,h,0,,,
wtj,RSVPtrain,0,g,false,1961.1000003814697,0,b,,1,3,0,
wtj,RSVPtrain,0,g,true,1196.5,0,b,,3,3,0,
wtj,RSVPtrain,0,g,true,1101.2000007629395,0,b,,0,3,0,
wtj,RSVPtrain,0,g,true,1741.3999996185303,2,g,,2,2,2,
wtj,RSVPtrain,0,g,true,1230.7999992370605,2,g,,3,1,1,
wtj,RSVPtrain,0,g,true,1309.8999996185303,1,r,,0,0,2,
wtj,RSVPtrain,0,g,false,1261.1000003814697,1,r,,3,2,1,
wtj,RSVPtrain,0,g,true,1052.6999988555908,1,r,,1,1,2,
wtj,RSVPtrain,0,g,true,922.7999992370605,2,g,,3,0,1,
wtj,RSVPtrain,0,g,true,1164.599998474121,2,g,,1,0,1,
wtj,RSVPtest,1,g,true,640.3000011444092,2,g,,3,2,1,
wtj,RSVPtest,2,g,false,735.5,1,r,,2,1,1,
wtj,RSVPtest,3,g,true,1054.6000003814697,1,r,,0,0,2,
wtj,RSVPtest,4,g,true,812.6999988555908,0,b,,1,3,0,
wtj,RSVPtest,5,g,true,827.3999996185303,0,b,,2,3,0,
wtj,RSVPtest,6,g,false,908.8999996185303,1,r,,3,1,1,
wtj,RSVPtest,7,g,true,813.3000011444092,2,g,,3,1,1,
wtj,RSVPtest,8,g,false,843.6999988555908,1,r,,3,2,1,
wtj,RSVPtest,9,g,true,987.6000003814697,0,b,,3,3,0,
wtj,RSVPtest,10,g,true,731.3000011444092,0,b,,3,3,0,
wtj,RSVPtest,11,g,true,492.20000076293945,0,b,,1,3,0,
wtj,RSVPtest,12,g,true,781.8999996185303,2,g,,2,1,1,
wtj,RSVPtest,13,g,true,588.6999988555908,2,g,,3,2,1,
wtj,RSVPtest,14,g,true,700.5,2,g,,0,2,1,
wtj,RSVPtest,15,g,false,812.5,1,r,,2,2,2,
wtj,RSVPtest,16,g,true,587.6000003814697,1,r,,2,0,1,
wtj,RSVPtest,17,g,true,893.5999984741211,2,g,,3,1,1,
wtj,RSVPtest,18,g,true,492.20000076293945,2,g,,0,2,1,
wtj,RSVPtest,19,g,true,876.6000003814697,1,r,,3,0,1,
wtj,RSVPtest,20,g,true,733.8999996185303,2,g,,2,2,2,
wtj,RSVPtest,21,g,true,638.2000007629395,0,b,,3,3,0,
wtj,RSVPtest,22,g,true,908.2999992370605,2,g,,0,2,1,
wtj,RSVPtest,23,g,true,731.3999996185303,1,r,,2,1,1,
wtj,RSVPtest,24,g,true,701.3999996185303,2,g,,1,0,1,
wtj,RSVPtest,25,g,true,572.7999992370605,1,r,,0,2,1,
wtj,RSVPtest,26,g,true,683.7999992370605,2,g,,3,1,1,
wtj,RSVPtest,27,g,true,812.7999992370605,1,r,,1,1,2,
wtj,RSVPtest,28,g,true,523.4000015258789,1,r,,3,2,1,
wtj,RSVPtest,29,g,true,992.2999992370605,1,r,,3,1,1,
wtj,RSVPtest,30,g,true,476.20000076293945,1,r,,2,1,1,
wtj,RSVPtest,31,g,true,621.2999992370605,1,r,,3,0,1,
wtj,RSVPtest,32,g,true,527.4000015258789,1,r,,3,2,1,
wtj,RSVPtest,33,g,true,603.6000003814697,2,g,,3,2,1,
wtj,RSVPtest,34,g,true,1117.2000007629395,1,r,,2,1,1,
wtj,RSVPtest,35,g,true,476.5,1,r,,2,0,1,
wtj,RSVPtest,36,g,true,716.6000003814697,1,r,,0,2,1,
wtj,RSVPtest,37,g,true,622,0,b,,1,3,0,
wtj,RSVPtest,38,g,true,701.6000003814697,2,g,,3,1,1,
wtj,RSVPtest,39,g,true,940.5,2,g,,3,0,1,
wtj,RSVPtest,40,g,true,845,1,r,,0,2,1,
wtj,RSVPtest,41,g,true,605.3999996185303,1,r,,1,0,1,
wtj,RSVPtest,42,g,true,605,1,r,,3,1,1,
wtj,RSVPtest,43,g,true,684.3000011444092,2,g,,3,1,1,
wtj,RSVPtest,44,g,true,649.6000003814697,1,r,,3,0,1,
wtj,RSVPtest,45,g,true,910.6000003814697,1,r,,3,0,1,
wtj,RSVPtest,46,g,true,827.1999988555908,2,g,,0,0,2,
wtj,RSVPtest,47,g,true,926.3999996185303,0,b,,0,3,0,
wtj,RSVPtest,48,g,true,652.3999996185303,2,g,,1,0,1,
wtj,RSVPtest,49,g,true,539.5,0,b,,1,3,0,
wtj,RSVPtest,50,g,true,780,2,g,,3,2,1,
wtj,RSVPtest,51,g,true,861.3999996185303,1,r,,0,1,1,
wtj,RSVPtest,52,g,true,698.3000011444092,0,b,,0,3,0,
wtj,RSVPtest,53,g,true,845.1000003814697,2,g,,3,1,1,
wtj,RSVPtest,54,g,false,682.5,2,g,,3,2,1,
wtj,RSVPtest,55,g,true,589.2999992370605,1,r,,1,0,1,
wtj,RSVPtest,56,g,false,603,1,r,,3,1,1,
wtj,RSVPtest,57,g,true,842.6000003814697,1,r,,3,1,1,
wtj,RSVPtest,58,g,true,525.6000003814697,2,g,,1,2,1,
wtj,RSVPtest,59,g,true,685.8999996185303,0,b,,3,3,0,
wtj,RSVPtest,60,g,true,509,2,g,,2,2,2,
brk,brk,brk,brk,brk,brk,brk,brk,brk,brk,brk,brk,
wtj,RSVPtest,61,g,true,686,0,b,,1,3,0,
wtj,RSVPtest,62,g,true,556.2000007629395,1,r,,3,1,1,
wtj,RSVPtest,63,g,true,846.7000007629395,2,g,,3,0,1,
wtj,RSVPtest,64,g,true,683.2999992370605,1,r,,2,0,1,
wtj,RSVPtest,65,g,true,557.2000007629395,1,r,,3,2,1,
wtj,RSVPtest,66,g,false,619.5,0,b,,0,3,0,
wtj,RSVPtest,67,g,true,558.3999996185303,0,b,,0,3,0,
wtj,RSVPtest,68,g,true,826.1000003814697,2,g,,3,2,1,
wtj,RSVPtest,69,g,false,781.1999988555908,1,r,,3,1,1,
wtj,RSVPtest,70,g,true,619.3999996185303,0,b,,2,3,0,
wtj,RSVPtest,71,g,true,587.7000007629395,2,g,,1,0,1,
wtj,RSVPtest,72,g,true,442.8999996185303,2,g,,2,1,1,
wtj,RSVPtest,73,g,true,1163.5,2,g,,3,0,1,
wtj,RSVPtest,74,g,true,685.4000015258789,2,g,,1,2,1,
wtj,RSVPtest,75,g,true,475.20000076293945,1,r,,1,0,1,
wtj,RSVPtest,76,g,true,747.2000007629395,2,g,,3,1,1,
wtj,RSVPtest,77,g,true,524,0,b,,3,3,0,
wtj,RSVPtest,78,g,true,859.6000003814697,1,r,,0,2,1,
wtj,RSVPtest,79,g,true,921.4000015258789,2,g,,0,1,1,
wtj,RSVPtest,80,g,true,506.8999996185303,2,g,,0,2,1,
wtj,RSVPtest,81,g,true,860.4000015258789,2,g,,2,2,2,
wtj,RSVPtest,82,g,true,1178.7999992370605,1,r,,2,2,2,
wtj,RSVPtest,83,g,true,683.8000011444092,1,r,,2,0,1,
wtj,RSVPtest,84,g,true,746,2,g,,0,2,1,
wtj,RSVPtest,85,g,true,733.2000007629395,2,g,,3,0,1,
wtj,RSVPtest,86,g,false,1337.5,2,g,,0,0,2,
wtj,RSVPtest,87,g,true,585.7000007629395,0,b,,1,3,0,
wtj,RSVPtest,88,g,true,572.1000003814697,2,g,,2,2,2,
wtj,RSVPtest,89,g,true,778.6000003814697,2,g,,3,2,1,
wtj,RSVPtest,90,g,true,620.0999984741211,2,g,,1,0,1,
wtj,RSVPtest,91,g,true,745.8000011444092,1,r,,3,2,1,
wtj,RSVPtest,92,g,true,587.6999988555908,1,r,,2,0,1,
wtj,RSVPtest,93,g,false,667.7999992370605,2,g,,3,1,1,
wtj,RSVPtest,94,g,true,1052.3000011444092,1,r,,3,0,1,
wtj,RSVPtest,95,g,true,570.2999992370605,0,b,,3,3,0,
wtj,RSVPtest,96,g,true,844.2000007629395,2,g,,0,1,1,
wtj,RSVPtest,97,g,false,924.7999992370605,0,b,,3,3,0,
wtj,RSVPtest,98,g,true,619.8999996185303,2,g,,0,0,2,
wtj,RSVPtest,99,g,true,634.8999996185303,1,r,,3,0,1,
wtj,RSVPtest,100,g,true,619.2999992370605,0,b,,3,3,0,
wtj,RSVPtest,101,g,false,683.5999984741211,1,r,,3,2,1,
wtj,RSVPtest,102,g,true,505.70000076293945,1,r,,1,1,2,
wtj,RSVPtest,103,g,true,860.3999996185303,0,b,,0,3,0,
wtj,RSVPtest,104,g,true,491.6999988555908,1,r,,1,1,2,
wtj,RSVPtest,105,g,true,730.6000003814697,2,g,,0,0,2,
wtj,RSVPtest,106,g,true,475.8000011444092,0,b,,1,3,0,
wtj,RSVPtest,107,g,true,765.2000007629395,0,b,,3,3,0,
wtj,RSVPtest,108,g,true,825.3999996185303,2,g,,0,2,1,
wtj,RSVPtest,109,g,true,651.6000003814697,1,r,,1,2,1,
wtj,RSVPtest,110,g,true,1389.1999988555908,1,r,,3,0,1,
wtj,RSVPtest,111,g,true,684.5,1,r,,3,0,1,
wtj,RSVPtest,112,g,true,826.5,1,r,,1,1,2,
wtj,RSVPtest,113,g,true,666.8999996185303,2,g,,3,0,1,
wtj,RSVPtest,114,g,true,603.1999988555908,1,r,,3,1,1,
wtj,RSVPtest,115,g,true,603.5,1,r,,0,1,1,
wtj,RSVPtest,116,g,true,794.5,0,b,,2,3,0,
wtj,RSVPtest,117,g,true,1083.1000003814697,0,b,,3,3,0,
wtj,RSVPtest,118,g,true,619.5,1,r,,0,2,1,
wtj,RSVPtest,119,g,true,1132.6999988555908,0,b,,1,3,0,
wtj,RSVPtest,120,g,true,777.7000007629395,1,r,,1,1,2,
brk,brk,brk,brk,brk,brk,brk,brk,brk,brk,brk,brk,
wtj,RSVPtest,121,g,true,630.2000007629395,2,g,,3,0,1,
wtj,RSVPtest,122,g,true,569.3999996185303,0,b,,2,3,0,
wtj,RSVPtest,123,g,true,795.8999996185303,1,r,,0,1,1,
wtj,RSVPtest,124,g,true,1146.3999996185303,1,r,,1,2,1,
wtj,RSVPtest,125,g,false,938.7999992370605,1,r,,0,0,2,
wtj,RSVPtest,126,g,true,747.1999988555908,0,b,,2,3,0,
wtj,RSVPtest,127,g,true,649.3999996185303,1,r,,2,2,2,
wtj,RSVPtest,128,g,true,537.7999992370605,2,g,,0,1,1,
wtj,RSVPtest,129,g,true,826.6999988555908,2,g,,3,0,1,
wtj,RSVPtest,130,g,true,521.7000007629395,2,g,,2,1,1,
wtj,RSVPtest,131,g,null,null,0,b,,3,3,0,
wtj,RSVPtest,132,g,true,605.5,2,g,,0,0,2,
wtj,RSVPtest,133,g,true,1161.2999992370605,0,b,,2,3,0,
wtj,RSVPtest,134,g,true,922.3000011444092,2,g,,2,0,1,
wtj,RSVPtest,135,g,false,1113.5,1,r,,1,2,1,
wtj,RSVPtest,136,g,true,1034.1000003814697,1,r,,3,2,1,
wtj,RSVPtest,137,g,true,1050.6000003814697,0,b,,0,3,0,
wtj,RSVPtest,138,g,true,1115.7999992370605,2,g,,2,2,2,
wtj,RSVPtest,139,g,true,1130.7999992370605,1,r,,0,1,1,
wtj,RSVPtest,140,g,true,1337.8999996185303,1,r,,0,0,2,
wtj,RSVPtest,141,g,true,1210.7999992370605,0,b,,3,3,0,
wtj,RSVPtest,142,g,true,1210.3000011444092,2,g,,1,2,1,
wtj,RSVPtest,143,g,false,1226.5,2,g,,2,0,1,
wtj,RSVPtest,144,g,true,1245.3000011444092,2,g,,3,0,1,
wtj,RSVPtest,145,g,true,1273.2999992370605,1,r,,2,1,1,
wtj,RSVPtest,146,g,true,1162.1000003814697,1,r,,3,1,1,
wtj,RSVPtest,147,g,true,1418.1000003814697,0,b,,2,3,0,
wtj,RSVPtest,148,g,true,956.5,2,g,,2,1,1,
wtj,RSVPtest,149,g,true,1306.400001525879,1,r,,3,2,1,
wtj,RSVPtest,150,g,true,1194.3999996185303,2,g,,3,2,1,
wtj,RSVPtest,151,g,true,1129,1,r,,2,0,1,
wtj,RSVPtest,152,g,true,1163,2,g,,1,0,1,
wtj,RSVPtest,153,g,true,1946.7000007629395,0,b,,2,3,0,
wtj,RSVPtest,154,g,true,1035.2999992370605,2,g,,3,2,1,
wtj,RSVPtest,155,g,true,1194,2,g,,0,1,1,
wtj,RSVPtest,156,g,true,1209.7000007629395,2,g,,3,2,1,
wtj,RSVPtest,157,g,true,1050.3000011444092,2,g,,3,0,1,
wtj,RSVPtest,158,g,false,907.6999988555908,0,b,,2,3,0,
wtj,RSVPtest,159,g,true,1145.7999992370605,2,g,,0,1,1,
wtj,RSVPtest,160,g,true,1164.3999996185303,0,b,,1,3,0,
wtj,RSVPtest,161,g,true,1175.7999992370605,1,r,,0,0,2,
wtj,RSVPtest,162,g,true,1019.3999996185303,2,g,,0,1,1,
wtj,RSVPtest,163,g,true,1194.099998474121,2,g,,2,2,2,
wtj,RSVPtest,164,g,false,1738.7000007629395,1,r,,1,2,1,
wtj,RSVPtest,165,g,true,985.7999992370605,0,b,,0,3,0,
wtj,RSVPtest,166,g,true,715.3000011444092,0,b,,1,3,0,
wtj,RSVPtest,167,g,false,1112.6999988555908,1,r,,0,2,1,
wtj,RSVPtest,168,g,true,1018.4000015258789,0,b,,3,3,0,
wtj,RSVPtest,169,g,true,728.4000015258789,2,g,,1,2,1,
wtj,RSVPtest,170,g,true,1080.7999992370605,1,r,,0,1,1,
wtj,RSVPtest,171,g,false,1402.2000007629395,2,g,,3,1,1,
wtj,RSVPtest,172,g,true,1226.5,2,g,,3,2,1,
wtj,RSVPtest,173,g,true,1159.7000007629395,1,r,,1,0,1,
wtj,RSVPtest,174,g,true,1208.6000003814697,2,g,,1,1,2,
wtj,RSVPtest,175,g,true,1195.3000011444092,0,b,,3,3,0,
wtj,RSVPtest,176,g,true,1161.5,1,r,,1,0,1,
wtj,RSVPtest,177,g,true,1034.5,1,r,,2,1,1,
wtj,RSVPtest,178,g,true,1034.3000011444092,2,g,,1,1,2,
wtj,RSVPtest,179,g,true,1001.7999992370605,2,g,,2,0,1,
wtj,RSVPtest,180,g,true,1196,2,g,,3,1,1,
brk,brk,brk,brk,brk,brk,brk,brk,brk,brk,brk,brk,
wtj,RSVPtest,181,g,true,543.6000003814697,0,b,,3,3,0,
wtj,RSVPtest,182,g,true,665.3999996185303,0,b,,0,3,0,
wtj,RSVPtest,183,g,true,794.1000003814697,0,b,,3,3,0,
wtj,RSVPtest,184,g,true,587.6999988555908,0,b,,3,3,0,
wtj,RSVPtest,185,g,true,1272.099998474121,1,r,,2,2,2,
wtj,RSVPtest,186,g,true,826.8000011444092,1,r,,3,0,1,
wtj,RSVPtest,187,g,false,682.8999996185303,2,g,,1,0,1,
wtj,RSVPtest,188,g,true,778.2999992370605,1,r,,3,2,1,
wtj,RSVPtest,189,g,true,664.2999992370605,1,r,,2,2,2,
wtj,RSVPtest,190,g,true,859.7999992370605,0,b,,3,3,0,
wtj,RSVPtest,191,g,false,874.6999988555908,1,r,,1,2,1,
wtj,RSVPtest,192,g,true,633.6000003814697,1,r,,3,1,1,
wtj,RSVPtest,193,g,true,745.8999996185303,0,b,,3,3,0,
wtj,RSVPtest,194,g,false,602.2000007629395,0,b,,0,3,0,
wtj,RSVPtest,195,g,false,582.5999984741211,2,g,,1,2,1,
wtj,RSVPtest,196,g,true,634.7000007629395,0,b,,1,3,0,
wtj,RSVPtest,197,g,false,1306,2,g,,2,0,1,
wtj,RSVPtest,198,g,false,506.3999996185303,1,r,,3,2,1,
wtj,RSVPtest,199,g,true,555.2000007629395,0,b,,1,3,0,
wtj,RSVPtest,200,g,true,619.1000003814697,1,r,,0,0,2,
wtj,RSVPtest,201,g,true,664.6000003814697,0,b,,3,3,0,
wtj,RSVPtest,202,g,true,953.6000003814697,1,r,,1,1,2,
wtj,RSVPtest,203,g,true,1113.2000007629395,2,g,,1,1,2,
wtj,RSVPtest,204,g,false,1017.6000003814697,1,r,,1,0,1,
wtj,RSVPtest,205,g,false,600.2999992370605,2,g,,3,0,1,
wtj,RSVPtest,206,g,true,1032,1,r,,3,2,1,
wtj,RSVPtest,207,g,true,887.6000003814697,0,b,,3,3,0,
wtj,RSVPtest,208,g,false,601.4000015258789,0,b,,2,3,0,
wtj,RSVPtest,209,g,true,1447.7999992370605,2,g,,3,0,1,
wtj,RSVPtest,210,g,true,1177.599998474121,1,r,,0,0,2,
wtj,RSVPtest,211,g,true,1240.5,1,r,,3,1,1,
wtj,RSVPtest,212,g,true,1319,0,b,,3,3,0,
wtj,RSVPtest,213,g,true,1225.8000011444092,0,b,,3,3,0,
wtj,RSVPtest,214,g,true,1241.5,1,r,,3,0,1,
wtj,RSVPtest,215,g,false,1129.8999996185303,1,r,,3,0,1,
wtj,RSVPtest,216,g,true,1353.1000003814697,2,g,,3,1,1,
wtj,RSVPtest,217,g,true,1080.7000007629395,0,b,,0,3,0,
wtj,RSVPtest,218,g,true,1224.2999992370605,2,g,,2,1,1,
wtj,RSVPtest,219,g,true,952.7000007629395,0,b,,2,3,0,
wtj,RSVPtest,220,g,true,1082.3999996185303,1,r,,0,1,1,
wtj,RSVPtest,221,g,true,1211,0,b,,0,3,0,
wtj,RSVPtest,222,g,true,1418.1999988555908,1,r,,3,2,1,
wtj,RSVPtest,223,g,true,937.8999996185303,2,g,,1,2,1,
wtj,RSVPtest,224,g,true,1064.5,1,r,,1,2,1,
wtj,RSVPtest,225,g,true,956.2000007629395,2,g,,1,1,2,
wtj,RSVPtest,226,g,true,1382.7999992370605,1,r,,3,0,1,
wtj,RSVPtest,227,g,true,1352.5,0,b,,2,3,0,
wtj,RSVPtest,228,g,true,971.0999984741211,2,g,,1,1,2,
wtj,RSVPtest,229,g,true,1114.3999996185303,0,b,,0,3,0,
wtj,RSVPtest,230,g,true,1192.7000007629395,2,g,,1,1,2,
wtj,RSVPtest,231,g,false,1049.7999992370605,1,r,,3,1,1,
wtj,RSVPtest,232,g,false,1960.7999992370605,2,g,,3,0,1,
wtj,RSVPtest,233,g,true,1095.599998474121,2,g,,2,0,1,
wtj,RSVPtest,234,g,true,1977.2000007629395,0,b,,3,3,0,
wtj,RSVPtest,235,g,true,1048.6999988555908,2,g,,2,0,1,
wtj,RSVPtest,236,g,true,954.2999992370605,2,g,,2,1,1,
wtj,RSVPtest,237,g,true,904.2999992370605,2,g,,3,2,1,
wtj,RSVPtest,238,g,true,1111.2999992370605,1,r,,2,2,2,
wtj,RSVPtest,239,g,true,983,2,g,,0,0,2,
wtj,RSVPtest,240,g,true,1078.8999996185303,2,g,,3,1,1,
