subID,trialType,trialNum,cntBalance,correct,rt,rwdType,tgtCol,tgtDir,tgtPos,colPos,colMatch,
7kz,VDACtrain,0,g,null,null,1,r,v,3,,,
7kz,VDACtrain,0,g,true,927.0999999046326,1,r,h,2,,,
7kz,VDACtrain,0,g,false,887.5999999046326,1,r,h,0,,,
7kz,VDACtrain,0,g,null,null,1,r,v,4,,,
7kz,VDACtrain,0,g,null,null,2,g,v,2,,,
7kz,VDACtrain,0,g,true,786.1999998092651,2,g,h,3,,,
7kz,VDACtrain,0,g,false,786,1,r,h,1,,,
7kz,VDACtrain,0,g,null,null,2,g,h,5,,,
7kz,VDACtrain,0,g,null,null,2,g,v,5,,,
7kz,VDACtrain,0,g,true,711.9000000953674,2,g,v,0,,,
7kz,VDACtest,1,g,true,764.2000002861023,2,g,h,3,,,
7kz,VDACtest,2,g,true,673.0999999046326,1,r,v,4,,,
7kz,VDACtest,3,g,true,714.7000002861023,2,g,h,3,,,
7kz,VDACtest,4,g,true,690.4000000953674,1,r,v,3,,,
7kz,VDACtest,5,g,true,881.0999999046326,2,g,h,4,,,
7kz,VDACtest,6,g,false,666.0999999046326,2,g,v,4,,,
7kz,VDACtest,7,g,false,632.5,2,g,v,5,,,
7kz,VDACtest,8,g,null,null,1,r,v,2,,,
7kz,VDACtest,9,g,true,619,1,r,h,2,,,
7kz,VDACtest,10,g,false,664.5999999046326,2,g,v,3,,,
7kz,VDACtest,11,g,true,865.8000001907349,1,r,v,4,,,
7kz,VDACtest,12,g,null,null,2,g,v,1,,,
7kz,VDACtest,13,g,true,847.7999997138977,1,r,h,1,,,
7kz,VDACtest,14,g,true,929,1,r,h,1,,,
7kz,VDACtest,15,g,null,null,1,r,h,3,,,
7kz,VDACtest,16,g,true,577.9000000953674,2,g,v,3,,,
7kz,VDACtest,17,g,true,843.0999999046326,2,g,h,0,,,
7kz,VDACtest,18,g,false,729.9000000953674,2,g,h,1,,,
7kz,VDACtest,19,g,false,833.8000001907349,2,g,v,2,,,
7kz,VDACtest,20,g,null,null,1,r,v,4,,,
7kz,VDACtest,21,g,false,570.4000000953674,2,g,v,4,,,
7kz,VDACtest,22,g,true,729.8999996185303,2,g,v,0,,,
7kz,VDACtest,23,g,true,969.8999996185303,2,g,h,4,,,
7kz,VDACtest,24,g,true,879.2000002861023,1,r,v,0,,,
7kz,VDACtest,25,g,true,841.5999999046326,1,r,h,4,,,
7kz,VDACtest,26,g,true,593.6999998092651,1,r,h,4,,,
7kz,VDACtest,27,g,true,834.1000003814697,2,g,v,2,,,
7kz,VDACtest,28,g,true,732.3000001907349,2,g,h,2,,,
7kz,VDACtest,29,g,false,922.1999998092651,1,r,h,5,,,
7kz,VDACtest,30,g,true,953.9000000953674,1,r,v,1,,,
7kz,VDACtest,31,g,true,825.2999997138977,2,g,h,4,,,
7kz,VDACtest,32,g,true,768.6999998092651,1,r,v,5,,,
7kz,VDACtest,33,g,true,666,1,r,h,0,,,
7kz,VDACtest,34,g,true,890.1999998092651,2,g,v,5,,,
7kz,VDACtest,35,g,true,793.7000002861023,1,r,h,4,,,
7kz,VDACtest,36,g,true,729.7999997138977,1,r,v,1,,,
7kz,VDACtest,37,g,false,895.8000001907349,2,g,h,2,,,
7kz,VDACtest,38,g,true,673.8000001907349,1,r,v,2,,,
7kz,VDACtest,39,g,true,752.9000000953674,1,r,v,0,,,
7kz,VDACtest,40,g,true,865.6999998092651,2,g,h,5,,,
7kz,VDACtest,41,g,true,714.6000003814697,2,g,h,1,,,
7kz,VDACtest,42,g,true,577.5,1,r,v,4,,,
7kz,VDACtest,43,g,false,752.0999999046326,1,r,v,3,,,
7kz,VDACtest,44,g,true,600.3999996185303,1,r,v,3,,,
7kz,VDACtest,45,g,false,786,2,g,h,0,,,
7kz,VDACtest,46,g,true,706,2,g,v,5,,,
7kz,VDACtest,47,g,true,553.9000000953674,1,r,v,5,,,
7kz,VDACtest,48,g,true,783.0999999046326,2,g,h,1,,,
7kz,VDACtest,49,g,null,null,1,r,h,2,,,
7kz,VDACtest,50,g,true,818.6999998092651,1,r,h,3,,,
brk,brk,brk,brk,brk,brk,brk,brk,brk,brk,brk,brk,
7kz,VDACtest,51,g,true,871.7000002861023,1,r,h,3,,,
7kz,VDACtest,52,g,true,576.1999998092651,2,g,v,1,,,
7kz,VDACtest,53,g,true,633.5,2,g,v,4,,,
7kz,VDACtest,54,g,true,530.0999999046326,2,g,v,4,,,
7kz,VDACtest,55,g,true,408.5,2,g,h,3,,,
7kz,VDACtest,56,g,false,504.59999990463257,1,r,h,4,,,
7kz,VDACtest,57,g,true,737.6999998092651,2,g,v,5,,,
7kz,VDACtest,58,g,true,568,1,r,h,4,,,
7kz,VDACtest,59,g,true,688.1000003814697,2,g,h,2,,,
7kz,VDACtest,60,g,true,705.3000001907349,2,g,v,3,,,
7kz,VDACtest,61,g,false,752,2,g,h,0,,,
7kz,VDACtest,62,g,true,864.1999998092651,2,g,v,3,,,
7kz,VDACtest,63,g,null,null,1,r,v,1,,,
7kz,VDACtest,64,g,true,610.2999997138977,2,g,v,3,,,
7kz,VDACtest,65,g,true,713.0999999046326,2,g,v,4,,,
7kz,VDACtest,66,g,true,738.5,2,g,h,5,,,
7kz,VDACtest,67,g,true,616.5,2,g,v,3,,,
7kz,VDACtest,68,g,true,554.2999997138977,1,r,v,5,,,
7kz,VDACtest,69,g,true,817.5,2,g,h,5,,,
7kz,VDACtest,70,g,true,777.6999998092651,2,g,v,4,,,
7kz,VDACtest,71,g,null,null,1,r,v,2,,,
7kz,VDACtest,72,g,true,746.8999996185303,2,g,h,0,,,
7kz,VDACtest,73,g,true,577.5999999046326,2,g,h,4,,,
7kz,VDACtest,74,g,true,817.3000001907349,1,r,v,1,,,
7kz,VDACtest,75,g,true,849.5999999046326,1,r,h,1,,,
7kz,VDACtest,76,g,null,null,1,r,v,2,,,
7kz,VDACtest,77,g,true,785.2000002861023,1,r,v,1,,,
7kz,VDACtest,78,g,true,897.6999998092651,1,r,h,0,,,
7kz,VDACtest,79,g,true,799.8000001907349,2,g,v,1,,,
7kz,VDACtest,80,g,true,505.2000002861023,2,g,v,0,,,
7kz,VDACtest,81,g,true,553.5,2,g,v,0,,,
7kz,VDACtest,82,g,true,816.7999997138977,1,r,h,5,,,
7kz,VDACtest,83,g,true,505,2,g,v,0,,,
7kz,VDACtest,84,g,true,663.9000000953674,2,g,h,5,,,
7kz,VDACtest,85,g,null,null,2,g,h,1,,,
7kz,VDACtest,86,g,true,494.09999990463257,2,g,h,1,,,
7kz,VDACtest,87,g,true,769.8000001907349,2,g,v,2,,,
7kz,VDACtest,88,g,true,905.5,1,r,h,3,,,
7kz,VDACtest,89,g,true,976.3000001907349,1,r,v,3,,,
7kz,VDACtest,90,g,true,697.2000002861023,1,r,h,1,,,
7kz,VDACtest,91,g,false,841.1999998092651,1,r,h,4,,,
7kz,VDACtest,92,g,true,968.9000000953674,1,r,v,5,,,
7kz,VDACtest,93,g,true,664.9000000953674,2,g,h,5,,,
7kz,VDACtest,94,g,true,916.4000000953674,2,g,v,4,,,
7kz,VDACtest,95,g,null,null,2,g,v,2,,,
7kz,VDACtest,96,g,true,728.9000000953674,2,g,h,4,,,
7kz,VDACtest,97,g,true,694.3000001907349,1,r,h,2,,,
7kz,VDACtest,98,g,true,640.9000000953674,2,g,h,3,,,
7kz,VDACtest,99,g,true,568.4000000953674,1,r,h,3,,,
7kz,VDACtest,100,g,true,920.3999996185303,1,r,h,1,,,
brk,brk,brk,brk,brk,brk,brk,brk,brk,brk,brk,brk,
7kz,VDACtest,101,g,true,802.1999998092651,2,g,h,5,,,
7kz,VDACtest,102,g,true,784.6999998092651,1,r,v,3,,,
7kz,VDACtest,103,g,true,657,1,r,v,3,,,
7kz,VDACtest,104,g,true,617.5,1,r,h,4,,,
7kz,VDACtest,105,g,true,512.9000000953674,2,g,v,5,,,
7kz,VDACtest,106,g,true,649.8000001907349,2,g,h,3,,,
7kz,VDACtest,107,g,true,569.4000000953674,2,g,v,0,,,
7kz,VDACtest,108,g,true,624.2000002861023,1,r,h,4,,,
7kz,VDACtest,109,g,false,927.5,1,r,v,2,,,
7kz,VDACtest,110,g,true,538.2999997138977,2,g,v,0,,,
7kz,VDACtest,111,g,true,520.3000001907349,2,g,v,1,,,
7kz,VDACtest,112,g,true,513.4000000953674,2,g,v,1,,,
7kz,VDACtest,113,g,true,576.8000001907349,2,g,v,3,,,
7kz,VDACtest,114,g,true,752.0999999046326,1,r,v,5,,,
7kz,VDACtest,115,g,true,520.5999999046326,2,g,v,0,,,
7kz,VDACtest,116,g,true,911.8000001907349,1,r,v,5,,,
7kz,VDACtest,117,g,true,559.7999997138977,1,r,h,5,,,
7kz,VDACtest,118,g,null,null,2,g,v,4,,,
7kz,VDACtest,119,g,true,768.4000000953674,1,r,h,2,,,
7kz,VDACtest,120,g,true,584.5,1,r,v,0,,,
7kz,VDACtest,121,g,false,696.1999998092651,1,r,h,4,,,
7kz,VDACtest,122,g,false,601.8000001907349,1,r,h,2,,,
7kz,VDACtest,123,g,true,512.5,1,r,h,5,,,
7kz,VDACtest,124,g,true,593.1999998092651,2,g,h,2,,,
7kz,VDACtest,125,g,true,783.7999997138977,1,r,v,3,,,
7kz,VDACtest,126,g,true,728.3000001907349,2,g,h,0,,,
7kz,VDACtest,127,g,null,null,1,r,h,1,,,
7kz,VDACtest,128,g,true,689,2,g,v,2,,,
7kz,VDACtest,129,g,true,809.2000002861023,2,g,v,2,,,
7kz,VDACtest,130,g,true,600.6999998092651,1,r,h,2,,,
7kz,VDACtest,131,g,true,625.0999999046326,1,r,v,0,,,
7kz,VDACtest,132,g,true,593.2999997138977,2,g,v,0,,,
7kz,VDACtest,133,g,null,null,2,g,v,4,,,
7kz,VDACtest,134,g,true,675.8000001907349,1,r,v,4,,,
7kz,VDACtest,135,g,true,592,2,g,v,5,,,
7kz,VDACtest,136,g,true,889,1,r,v,2,,,
7kz,VDACtest,137,g,true,599.7000002861023,2,g,h,3,,,
7kz,VDACtest,138,g,true,744.5,2,g,h,1,,,
7kz,VDACtest,139,g,true,545.6999998092651,1,r,h,0,,,
7kz,VDACtest,140,g,true,775.4000000953674,2,g,v,1,,,
7kz,VDACtest,141,g,true,616.9000000953674,1,r,v,0,,,
7kz,VDACtest,142,g,true,522,2,g,v,2,,,
7kz,VDACtest,143,g,true,655.1000003814697,2,g,h,3,,,
7kz,VDACtest,144,g,true,622.5,1,r,h,5,,,
7kz,VDACtest,145,g,false,711.9000000953674,2,g,h,1,,,
7kz,VDACtest,146,g,true,920.5,1,r,v,4,,,
7kz,VDACtest,147,g,true,559.8000001907349,1,r,h,0,,,
7kz,VDACtest,148,g,true,552.7000002861023,1,r,h,2,,,
7kz,VDACtest,149,g,true,586.5999999046326,1,r,h,0,,,
7kz,VDACtest,150,g,true,584.4000000953674,1,r,v,5,,,
brk,brk,brk,brk,brk,brk,brk,brk,brk,brk,brk,brk,
7kz,VDACtest,151,g,true,930.5999999046326,1,r,v,2,,,
7kz,VDACtest,152,g,true,601.5999999046326,2,g,v,3,,,
7kz,VDACtest,153,g,false,551.7999997138977,1,r,h,5,,,
7kz,VDACtest,154,g,true,746,2,g,v,1,,,
7kz,VDACtest,155,g,true,528.5999999046326,1,r,h,0,,,
7kz,VDACtest,156,g,true,512.8000001907349,1,r,h,5,,,
7kz,VDACtest,157,g,true,554,2,g,h,2,,,
7kz,VDACtest,158,g,false,494.40000009536743,1,r,h,5,,,
7kz,VDACtest,159,g,true,488.2999997138977,2,g,h,5,,,
7kz,VDACtest,160,g,true,457.09999990463257,2,g,h,0,,,
7kz,VDACtest,161,g,true,647.2000002861023,1,r,v,4,,,
7kz,VDACtest,162,g,true,633.2000002861023,1,r,v,1,,,
7kz,VDACtest,163,g,true,546.7999997138977,2,g,h,2,,,
7kz,VDACtest,164,g,true,575.3999996185303,1,r,v,1,,,
7kz,VDACtest,165,g,true,576.9000000953674,1,r,v,3,,,
7kz,VDACtest,166,g,true,961.4000000953674,2,g,h,5,,,
7kz,VDACtest,167,g,true,534.2000002861023,1,r,v,0,,,
7kz,VDACtest,168,g,true,608.0999999046326,1,r,h,1,,,
7kz,VDACtest,169,g,true,568.5999999046326,2,g,h,4,,,
7kz,VDACtest,170,g,true,648.1999998092651,2,g,v,5,,,
7kz,VDACtest,171,g,true,712.1999998092651,1,r,h,2,,,
7kz,VDACtest,172,g,true,641.2000002861023,1,r,h,0,,,
7kz,VDACtest,173,g,true,648.5,2,g,h,2,,,
7kz,VDACtest,174,g,true,593.5,1,r,v,2,,,
7kz,VDACtest,175,g,true,671.0999999046326,1,r,h,3,,,
7kz,VDACtest,176,g,true,738.9000000953674,2,g,v,5,,,
7kz,VDACtest,177,g,true,505.40000009536743,2,g,h,4,,,
7kz,VDACtest,178,g,null,null,2,g,v,2,,,
7kz,VDACtest,179,g,true,591.9000000953674,1,r,h,1,,,
7kz,VDACtest,180,g,true,553.7000002861023,1,r,v,0,,,
7kz,VDACtest,181,g,true,664.2999997138977,2,g,h,4,,,
7kz,VDACtest,182,g,true,863.2000002861023,2,g,h,3,,,
7kz,VDACtest,183,g,true,488.09999990463257,2,g,v,1,,,
7kz,VDACtest,184,g,true,639.1999998092651,2,g,h,2,,,
7kz,VDACtest,185,g,true,473.6000003814697,2,g,v,1,,,
7kz,VDACtest,186,g,false,641.2000002861023,1,r,h,3,,,
7kz,VDACtest,187,g,true,952.6999998092651,1,r,v,1,,,
7kz,VDACtest,188,g,true,639.8000001907349,1,r,v,4,,,
7kz,VDACtest,189,g,true,560.1999998092651,1,r,v,5,,,
7kz,VDACtest,190,g,true,657.5999999046326,1,r,v,4,,,
7kz,VDACtest,191,g,true,535,2,g,h,0,,,
7kz,VDACtest,192,g,true,695.3999996185303,1,r,h,3,,,
7kz,VDACtest,193,g,true,456.8999996185303,1,r,v,0,,,
7kz,VDACtest,194,g,true,654.4000000953674,1,r,v,1,,,
7kz,VDACtest,195,g,true,650.5,2,g,h,1,,,
7kz,VDACtest,196,g,false,816.5999999046326,2,g,h,4,,,
7kz,VDACtest,197,g,true,593.3000001907349,2,g,h,1,,,
7kz,VDACtest,198,g,true,673.3000001907349,2,g,h,0,,,
7kz,VDACtest,199,g,true,569.5999999046326,1,r,h,0,,,
7kz,VDACtest,200,g,true,585.1999998092651,1,r,h,1,,,
7kz,RSVPtrain,0,g,true,2137.4000000953674,2,g,,2,2,2,
7kz,RSVPtrain,0,g,true,1371.2000002861023,0,b,,3,3,0,
7kz,RSVPtrain,0,g,true,1239.2000002861023,0,b,,0,3,0,
7kz,RSVPtrain,0,g,true,1242.6999998092651,2,g,,3,1,1,
7kz,RSVPtrain,0,g,false,1419.0999999046326,1,r,,1,1,2,
7kz,RSVPtrain,0,g,true,1090,2,g,,1,0,1,
7kz,RSVPtrain,0,g,false,1010.6999998092651,1,r,,0,0,2,
7kz,RSVPtrain,0,g,false,1323.5,1,r,,3,2,1,
7kz,RSVPtrain,0,g,false,1891.5,2,g,,3,0,1,
7kz,RSVPtrain,0,g,false,907.3000001907349,0,b,,1,3,0,
7kz,RSVPtest,1,g,true,1122.8999996185303,0,b,,2,3,0,
7kz,RSVPtest,2,g,true,1067.3000001907349,2,g,,1,2,1,
7kz,RSVPtest,3,g,true,825.5999999046326,2,g,,0,1,1,
7kz,RSVPtest,4,g,true,713.0999999046326,1,r,,1,1,2,
7kz,RSVPtest,5,g,true,571.6999998092651,2,g,,1,1,2,
7kz,RSVPtest,6,g,true,690.5,1,r,,2,1,1,
7kz,RSVPtest,7,g,true,625.6999998092651,1,r,,3,2,1,
7kz,RSVPtest,8,g,true,697.1000003814697,0,b,,0,3,0,
7kz,RSVPtest,9,g,false,642.2000002861023,1,r,,1,2,1,
7kz,RSVPtest,10,g,true,728.9000000953674,1,r,,2,2,2,
7kz,RSVPtest,11,g,true,833,1,r,,3,1,1,
7kz,RSVPtest,12,g,false,823.5999999046326,0,b,,1,3,0,
7kz,RSVPtest,13,g,true,667.4000000953674,1,r,,3,0,1,
7kz,RSVPtest,14,g,true,904.0999999046326,2,g,,0,0,2,
7kz,RSVPtest,15,g,true,564.4000000953674,1,r,,3,2,1,
7kz,RSVPtest,16,g,false,825.7000002861023,1,r,,0,1,1,
7kz,RSVPtest,17,g,true,636.8000001907349,1,r,,3,1,1,
7kz,RSVPtest,18,g,true,891.8000001907349,0,b,,1,3,0,
7kz,RSVPtest,19,g,true,851.9000000953674,2,g,,0,1,1,
7kz,RSVPtest,20,g,true,617.8000001907349,0,b,,2,3,0,
7kz,RSVPtest,21,g,false,554.5,1,r,,0,0,2,
7kz,RSVPtest,22,g,true,741.3000001907349,1,r,,3,1,1,
7kz,RSVPtest,23,g,true,659.1999998092651,1,r,,1,0,1,
7kz,RSVPtest,24,g,false,785.0999999046326,1,r,,3,0,1,
7kz,RSVPtest,25,g,true,681.9000000953674,0,b,,3,3,0,
7kz,RSVPtest,26,g,true,604.4000000953674,0,b,,0,3,0,
7kz,RSVPtest,27,g,true,705.5,1,r,,3,2,1,
7kz,RSVPtest,28,g,true,739.6999998092651,1,r,,2,0,1,
7kz,RSVPtest,29,g,true,522.8000001907349,0,b,,0,3,0,
7kz,RSVPtest,30,g,true,617.5999999046326,2,g,,1,0,1,
7kz,RSVPtest,31,g,true,715.5,0,b,,1,3,0,
7kz,RSVPtest,32,g,true,571.9000000953674,2,g,,1,0,1,
7kz,RSVPtest,33,g,true,995.7999997138977,0,b,,2,3,0,
7kz,RSVPtest,34,g,true,843.2999997138977,1,r,,3,0,1,
7kz,RSVPtest,35,g,false,778.5,0,b,,0,3,0,
7kz,RSVPtest,36,g,false,738.2000002861023,2,g,,3,1,1,
7kz,RSVPtest,37,g,true,762.5,2,g,,3,0,1,
7kz,RSVPtest,38,g,true,537.6999998092651,1,r,,0,1,1,
7kz,RSVPtest,39,g,true,579.5,1,r,,0,0,2,
7kz,RSVPtest,40,g,true,450.40000009536743,1,r,,0,1,1,
7kz,RSVPtest,41,g,false,714.3000001907349,0,b,,0,3,0,
7kz,RSVPtest,42,g,true,698.1999998092651,2,g,,3,2,1,
7kz,RSVPtest,43,g,false,690.0999999046326,1,r,,0,0,2,
7kz,RSVPtest,44,g,true,631.5999999046326,2,g,,3,1,1,
7kz,RSVPtest,45,g,true,874.6000003814697,0,b,,0,3,0,
7kz,RSVPtest,46,g,true,689.0999999046326,0,b,,2,3,0,
7kz,RSVPtest,47,g,true,825.9000000953674,2,g,,3,1,1,
7kz,RSVPtest,48,g,true,857.3000001907349,2,g,,2,1,1,
7kz,RSVPtest,49,g,true,507.2000002861023,1,r,,1,2,1,
7kz,RSVPtest,50,g,true,505.09999990463257,0,b,,1,3,0,
7kz,RSVPtest,51,g,true,407.90000009536743,2,g,,1,1,2,
7kz,RSVPtest,52,g,true,546.9000000953674,0,b,,1,3,0,
7kz,RSVPtest,53,g,true,570.3000001907349,1,r,,1,1,2,
7kz,RSVPtest,54,g,true,947.2999997138977,1,r,,3,2,1,
7kz,RSVPtest,55,g,true,728.5,2,g,,3,2,1,
7kz,RSVPtest,56,g,true,802.5999999046326,2,g,,3,2,1,
7kz,RSVPtest,57,g,true,737.9000000953674,1,r,,0,2,1,
7kz,RSVPtest,58,g,true,624.5999999046326,1,r,,1,0,1,
7kz,RSVPtest,59,g,false,715.5,2,g,,2,0,1,
7kz,RSVPtest,60,g,true,867.2000002861023,2,g,,3,2,1,
brk,brk,brk,brk,brk,brk,brk,brk,brk,brk,brk,brk,
7kz,RSVPtest,61,g,true,697.2000002861023,1,r,,2,0,1,
7kz,RSVPtest,62,g,true,658.3000001907349,1,r,,1,0,1,
7kz,RSVPtest,63,g,true,457.40000009536743,1,r,,1,0,1,
7kz,RSVPtest,64,g,true,594.0999999046326,0,b,,1,3,0,
7kz,RSVPtest,65,g,true,592.3000001907349,0,b,,3,3,0,
7kz,RSVPtest,66,g,true,577.1000003814697,1,r,,0,1,1,
7kz,RSVPtest,67,g,true,857.3000001907349,0,b,,2,3,0,
7kz,RSVPtest,68,g,true,654.4000000953674,0,b,,3,3,0,
7kz,RSVPtest,69,g,true,578.4000000953674,2,g,,1,1,2,
7kz,RSVPtest,70,g,false,778.6000003814697,2,g,,2,1,1,
7kz,RSVPtest,71,g,false,641.5999999046326,1,r,,3,0,1,
7kz,RSVPtest,72,g,true,971.6000003814697,1,r,,3,1,1,
7kz,RSVPtest,73,g,true,847.7999997138977,0,b,,3,3,0,
7kz,RSVPtest,74,g,true,905.2999997138977,1,r,,2,0,1,
7kz,RSVPtest,75,g,true,752.9000000953674,0,b,,0,3,0,
7kz,RSVPtest,76,g,true,711.6999998092651,1,r,,3,1,1,
7kz,RSVPtest,77,g,false,739,2,g,,3,2,1,
7kz,RSVPtest,78,g,true,744.9000000953674,1,r,,0,2,1,
7kz,RSVPtest,79,g,false,827.1000003814697,1,r,,2,1,1,
7kz,RSVPtest,80,g,false,1200.5999999046326,2,g,,2,1,1,
7kz,RSVPtest,81,g,true,667.3999996185303,1,r,,3,1,1,
7kz,RSVPtest,82,g,true,1160.2000002861023,2,g,,3,0,1,
7kz,RSVPtest,83,g,true,802.1999998092651,2,g,,3,0,1,
7kz,RSVPtest,84,g,false,641.2000002861023,2,g,,3,0,1,
7kz,RSVPtest,85,g,true,1042.8000001907349,2,g,,3,2,1,
7kz,RSVPtest,86,g,true,834.5999999046326,2,g,,3,0,1,
7kz,RSVPtest,87,g,true,656.8000001907349,1,r,,0,2,1,
7kz,RSVPtest,88,g,false,1321.5,1,r,,1,2,1,
7kz,RSVPtest,89,g,true,1017.3000001907349,0,b,,2,3,0,
7kz,RSVPtest,90,g,true,705.6999998092651,1,r,,1,1,2,
7kz,RSVPtest,91,g,true,497.30000019073486,0,b,,3,3,0,
7kz,RSVPtest,92,g,true,751.1999998092651,0,b,,3,3,0,
7kz,RSVPtest,93,g,true,417.59999990463257,0,b,,3,3,0,
7kz,RSVPtest,94,g,true,762.9000000953674,2,g,,3,0,1,
7kz,RSVPtest,95,g,true,907.3999996185303,2,g,,1,0,1,
7kz,RSVPtest,96,g,false,800.4000000953674,1,r,,0,0,2,
7kz,RSVPtest,97,g,true,530.2999997138977,0,b,,3,3,0,
7kz,RSVPtest,98,g,true,977.0999999046326,1,r,,3,1,1,
7kz,RSVPtest,99,g,true,596,1,r,,1,1,2,
7kz,RSVPtest,100,g,true,681.0999999046326,1,r,,3,0,1,
7kz,RSVPtest,101,g,true,561.8000001907349,2,g,,2,2,2,
7kz,RSVPtest,102,g,false,817.1999998092651,0,b,,3,3,0,
7kz,RSVPtest,103,g,true,568.8000001907349,2,g,,0,1,1,
7kz,RSVPtest,104,g,false,1047.7999997138977,0,b,,3,3,0,
7kz,RSVPtest,105,g,true,600.4000000953674,2,g,,2,2,2,
7kz,RSVPtest,106,g,true,608.4000000953674,2,g,,2,0,1,
7kz,RSVPtest,107,g,true,681.5,0,b,,2,3,0,
7kz,RSVPtest,108,g,true,777.5999999046326,0,b,,3,3,0,
7kz,RSVPtest,109,g,true,786.5999999046326,2,g,,3,2,1,
7kz,RSVPtest,110,g,true,663.1000003814697,0,b,,3,3,0,
7kz,RSVPtest,111,g,true,681.1999998092651,0,b,,3,3,0,
7kz,RSVPtest,112,g,true,689,2,g,,1,1,2,
7kz,RSVPtest,113,g,true,610,1,r,,3,0,1,
7kz,RSVPtest,114,g,true,890,1,r,,1,1,2,
7kz,RSVPtest,115,g,false,1440.5,1,r,,1,2,1,
7kz,RSVPtest,116,g,true,600.5,0,b,,0,3,0,
7kz,RSVPtest,117,g,true,666.3000001907349,1,r,,0,0,2,
7kz,RSVPtest,118,g,true,512.8000001907349,0,b,,1,3,0,
7kz,RSVPtest,119,g,true,825.4000000953674,1,r,,3,2,1,
7kz,RSVPtest,120,g,false,696.0999999046326,1,r,,3,2,1,
brk,brk,brk,brk,brk,brk,brk,brk,brk,brk,brk,brk,
7kz,RSVPtest,121,g,true,537.1999998092651,2,g,,3,1,1,
7kz,RSVPtest,122,g,true,415.19999980926514,2,g,,0,0,2,
7kz,RSVPtest,123,g,true,454,1,r,,0,2,1,
7kz,RSVPtest,124,g,true,623.2999997138977,2,g,,0,2,1,
7kz,RSVPtest,125,g,true,641.4000000953674,1,r,,1,1,2,
7kz,RSVPtest,126,g,true,592.5999999046326,1,r,,2,2,2,
7kz,RSVPtest,127,g,true,601.6000003814697,1,r,,3,2,1,
7kz,RSVPtest,128,g,true,880.8000001907349,2,g,,3,0,1,
7kz,RSVPtest,129,g,false,1557.8999996185303,1,r,,2,0,1,
7kz,RSVPtest,130,g,true,751.9000000953674,1,r,,2,0,1,
7kz,RSVPtest,131,g,true,640.5999999046326,0,b,,2,3,0,
7kz,RSVPtest,132,g,true,1016.7000002861023,2,g,,0,2,1,
7kz,RSVPtest,133,g,true,512.3000001907349,2,g,,1,0,1,
7kz,RSVPtest,134,g,true,713.7000002861023,2,g,,3,2,1,
7kz,RSVPtest,135,g,true,968.5,2,g,,1,2,1,
7kz,RSVPtest,136,g,true,485.40000009536743,2,g,,2,1,1,
7kz,RSVPtest,137,g,false,695.3000001907349,2,g,,2,0,1,
7kz,RSVPtest,138,g,true,690.4000000953674,1,r,,2,1,1,
7kz,RSVPtest,139,g,true,631.5999999046326,1,r,,3,2,1,
7kz,RSVPtest,140,g,true,719.1999998092651,1,r,,3,0,1,
7kz,RSVPtest,141,g,true,584.7999997138977,2,g,,3,1,1,
7kz,RSVPtest,142,g,true,993,2,g,,2,2,2,
7kz,RSVPtest,143,g,true,858.2000002861023,2,g,,0,0,2,
7kz,RSVPtest,144,g,true,577,1,r,,3,0,1,
7kz,RSVPtest,145,g,true,561,2,g,,3,0,1,
7kz,RSVPtest,146,g,true,529.3000001907349,0,b,,2,3,0,
7kz,RSVPtest,147,g,false,681.7999997138977,2,g,,1,2,1,
7kz,RSVPtest,148,g,true,697.3000001907349,1,r,,1,2,1,
7kz,RSVPtest,149,g,true,794.5,0,b,,3,3,0,
7kz,RSVPtest,150,g,true,760.0999999046326,2,g,,3,0,1,
7kz,RSVPtest,151,g,true,682.0999999046326,1,r,,1,0,1,
7kz,RSVPtest,152,g,true,669.3999996185303,0,b,,1,3,0,
7kz,RSVPtest,153,g,true,450.19999980926514,0,b,,1,3,0,
7kz,RSVPtest,154,g,true,760.5,2,g,,0,1,1,
7kz,RSVPtest,155,g,true,613.4000000953674,2,g,,2,2,2,
7kz,RSVPtest,156,g,true,417.09999990463257,2,g,,1,2,1,
7kz,RSVPtest,157,g,true,551.3999996185303,2,g,,3,0,1,
7kz,RSVPtest,158,g,true,661.7000002861023,1,r,,2,2,2,
7kz,RSVPtest,159,g,true,600.1999998092651,2,g,,2,2,2,
7kz,RSVPtest,160,g,true,855.5,0,b,,0,3,0,
7kz,RSVPtest,161,g,true,622.9000000953674,2,g,,3,2,1,
7kz,RSVPtest,162,g,true,632.7000002861023,1,r,,1,0,1,
7kz,RSVPtest,163,g,true,741.4000000953674,2,g,,3,1,1,
7kz,RSVPtest,164,g,true,567.0999999046326,0,b,,3,3,0,
7kz,RSVPtest,165,g,true,522.5,2,g,,0,2,1,
7kz,RSVPtest,166,g,true,1110.4000000953674,1,r,,0,2,1,
7kz,RSVPtest,167,g,true,633.2000002861023,1,r,,3,1,1,
7kz,RSVPtest,168,g,true,635.8000001907349,2,g,,0,0,2,
7kz,RSVPtest,169,g,true,392.1000003814697,0,b,,2,3,0,
7kz,RSVPtest,170,g,true,639,2,g,,2,0,1,
7kz,RSVPtest,171,g,false,979.5999999046326,1,r,,2,2,2,
7kz,RSVPtest,172,g,true,671.1000003814697,0,b,,0,3,0,
7kz,RSVPtest,173,g,true,572.5,0,b,,0,3,0,
7kz,RSVPtest,174,g,true,585.0999999046326,2,g,,3,1,1,
7kz,RSVPtest,175,g,true,536.7000002861023,2,g,,2,1,1,
7kz,RSVPtest,176,g,false,706,2,g,,2,0,1,
7kz,RSVPtest,177,g,true,713.4000000953674,1,r,,3,1,1,
7kz,RSVPtest,178,g,true,704,2,g,,3,2,1,
7kz,RSVPtest,179,g,true,608.9000000953674,2,g,,2,1,1,
7kz,RSVPtest,180,g,true,561.1999998092651,0,b,,3,3,0,
brk,brk,brk,brk,brk,brk,brk,brk,brk,brk,brk,brk,
7kz,RSVPtest,181,g,true,550.5,1,r,,3,2,1,
7kz,RSVPtest,182,g,true,648.9000000953674,2,g,,1,1,2,
7kz,RSVPtest,183,g,false,504.19999980926514,2,g,,0,1,1,
7kz,RSVPtest,184,g,true,898.3999996185303,1,r,,2,2,2,
7kz,RSVPtest,185,g,true,590.9000000953674,2,g,,3,1,1,
7kz,RSVPtest,186,g,true,1106.2999997138977,0,b,,3,3,0,
7kz,RSVPtest,187,g,true,642.2000002861023,1,r,,3,2,1,
7kz,RSVPtest,188,g,true,607.4000000953674,0,b,,3,3,0,
7kz,RSVPtest,189,g,false,863.9000000953674,2,g,,2,0,1,
7kz,RSVPtest,190,g,true,598.0999999046326,1,r,,0,1,1,
7kz,RSVPtest,191,g,true,607,1,r,,2,0,1,
7kz,RSVPtest,192,g,true,759.4000000953674,1,r,,2,1,1,
7kz,RSVPtest,193,g,true,645.5,1,r,,0,1,1,
7kz,RSVPtest,194,g,true,743.4000000953674,2,g,,3,1,1,
7kz,RSVPtest,195,g,true,1114.7999997138977,0,b,,1,3,0,
7kz,RSVPtest,196,g,true,797.7000002861023,2,g,,0,0,2,
7kz,RSVPtest,197,g,false,661.9000000953674,2,g,,1,2,1,
7kz,RSVPtest,198,g,true,374.19999980926514,2,g,,1,1,2,
7kz,RSVPtest,199,g,true,613.3000001907349,2,g,,1,2,1,
7kz,RSVPtest,200,g,true,552.1999998092651,1,r,,3,1,1,
7kz,RSVPtest,201,g,true,478.80000019073486,1,r,,2,1,1,
7kz,RSVPtest,202,g,true,454.19999980926514,0,b,,1,3,0,
7kz,RSVPtest,203,g,true,837.5999999046326,2,g,,3,0,1,
7kz,RSVPtest,204,g,false,1223.5,1,r,,3,0,1,
7kz,RSVPtest,205,g,true,1007.4000000953674,2,g,,3,1,1,
7kz,RSVPtest,206,g,false,991.3000001907349,1,r,,3,2,1,
7kz,RSVPtest,207,g,false,550.7999997138977,2,g,,0,2,1,
7kz,RSVPtest,208,g,true,824.1000003814697,0,b,,3,3,0,
7kz,RSVPtest,209,g,true,496,1,r,,0,0,2,
7kz,RSVPtest,210,g,true,807.7000002861023,1,r,,3,0,1,
7kz,RSVPtest,211,g,false,904.5,2,g,,3,2,1,
7kz,RSVPtest,212,g,true,481.30000019073486,2,g,,2,2,2,
7kz,RSVPtest,213,g,true,504.30000019073486,2,g,,3,1,1,
7kz,RSVPtest,214,g,true,596.7999997138977,1,r,,3,0,1,
7kz,RSVPtest,215,g,false,506.30000019073486,0,b,,3,3,0,
7kz,RSVPtest,216,g,true,862.6999998092651,2,g,,3,1,1,
7kz,RSVPtest,217,g,true,1078.8000001907349,2,g,,0,2,1,
7kz,RSVPtest,218,g,false,1374.7000002861023,1,r,,2,2,2,
7kz,RSVPtest,219,g,false,1013,2,g,,3,0,1,
7kz,RSVPtest,220,g,true,886.3000001907349,1,r,,1,2,1,
7kz,RSVPtest,221,g,false,1166,2,g,,3,2,1,
7kz,RSVPtest,222,g,true,861.1999998092651,2,g,,1,0,1,
7kz,RSVPtest,223,g,true,1452.5999999046326,0,b,,2,3,0,
7kz,RSVPtest,224,g,true,759.5,0,b,,3,3,0,
7kz,RSVPtest,225,g,false,1031.5,1,r,,3,1,1,
7kz,RSVPtest,226,g,true,653.7000002861023,0,b,,3,3,0,
7kz,RSVPtest,227,g,true,725.8000001907349,0,b,,1,3,0,
7kz,RSVPtest,228,g,true,845.5999999046326,0,b,,3,3,0,
7kz,RSVPtest,229,g,true,966.7000002861023,1,r,,3,2,1,
7kz,RSVPtest,230,g,false,888.4000000953674,1,r,,2,1,1,
7kz,RSVPtest,231,g,true,801.2999997138977,1,r,,3,1,1,
7kz,RSVPtest,232,g,true,606.5999999046326,2,g,,0,2,1,
7kz,RSVPtest,233,g,true,630.4000000953674,2,g,,0,0,2,
7kz,RSVPtest,234,g,true,1020,1,r,,3,0,1,
7kz,RSVPtest,235,g,true,1031.4000000953674,1,r,,0,2,1,
7kz,RSVPtest,236,g,true,485,0,b,,2,3,0,
7kz,RSVPtest,237,g,true,783.0999999046326,2,g,,1,0,1,
7kz,RSVPtest,238,g,false,916.5,0,b,,3,3,0,
7kz,RSVPtest,239,g,true,743.8000001907349,0,b,,0,3,0,
7kz,RSVPtest,240,g,true,764.7999997138977,2,g,,0,1,1,
