subID,trialType,trialNum,cntBalance,correct,rt,rwdType,tgtCol,tgtDir,tgtPos,colPos,colMatch,
o7b,VDACtrain,0,g,null,null,1,r,h,1,,,
o7b,VDACtrain,0,g,false,352.80000019073486,1,r,v,3,,,
o7b,VDACtrain,0,g,false,242,2,g,v,2,,,
o7b,VDACtrain,0,g,true,681.2999997138977,2,g,h,3,,,
o7b,VDACtrain,0,g,false,560.7000002861023,1,r,h,2,,,
o7b,VDACtrain,0,g,false,537.7999997138977,2,g,v,5,,,
o7b,VDACtrain,0,g,null,null,1,r,h,0,,,
o7b,VDACtrain,0,g,null,null,1,r,v,4,,,
o7b,VDACtrain,0,g,null,null,2,g,v,0,,,
o7b,VDACtrain,0,g,false,583.1999998092651,2,g,h,5,,,
o7b,VDACtrain,0,g,false,781.0999999046326,1,r,v,3,,,
o7b,VDACtrain,0,g,false,938.0999999046326,2,g,v,0,,,
o7b,VDACtrain,0,g,true,882.5,2,g,h,5,,,
o7b,VDACtrain,0,g,null,null,1,r,h,0,,,
o7b,VDACtrain,0,g,false,788,2,g,h,3,,,
o7b,VDACtrain,0,g,null,null,2,g,v,2,,,
o7b,VDACtrain,0,g,true,900.5999999046326,1,r,h,1,,,
o7b,VDACtrain,0,g,true,784.9000000953674,1,r,v,4,,,
o7b,VDACtrain,0,g,true,763.5,2,g,v,5,,,
o7b,VDACtrain,0,g,false,994.7000002861023,1,r,h,2,,,
o7b,VDACtest,1,g,false,815.0999999046326,1,r,v,1,,,
o7b,VDACtest,2,g,true,914.5,2,g,v,3,,,
o7b,VDACtest,3,g,null,null,2,g,v,1,,,
o7b,VDACtest,4,g,true,971.5,1,r,v,1,,,
o7b,VDACtest,5,g,true,755.6000003814697,2,g,v,1,,,
o7b,VDACtest,6,g,false,930.4000000953674,2,g,h,3,,,
o7b,VDACtest,7,g,false,955.5,2,g,v,5,,,
o7b,VDACtest,8,g,null,null,2,g,h,1,,,
o7b,VDACtest,9,g,true,883.7999997138977,1,r,v,4,,,
o7b,VDACtest,10,g,true,962.9000000953674,1,r,v,0,,,
o7b,VDACtest,11,g,true,866.7999997138977,1,r,v,3,,,
o7b,VDACtest,12,g,true,714.0999999046326,1,r,v,4,,,
o7b,VDACtest,13,g,true,761.5,1,r,h,2,,,
o7b,VDACtest,14,g,true,985.0999999046326,2,g,v,0,,,
o7b,VDACtest,15,g,false,722.4000000953674,2,g,h,0,,,
o7b,VDACtest,16,g,false,947.3000001907349,2,g,h,5,,,
o7b,VDACtest,17,g,null,null,1,r,h,4,,,
o7b,VDACtest,18,g,true,706.8000001907349,1,r,v,3,,,
o7b,VDACtest,19,g,null,null,2,g,h,4,,,
o7b,VDACtest,20,g,false,813,2,g,h,5,,,
o7b,VDACtest,21,g,true,928,1,r,h,1,,,
o7b,VDACtest,22,g,false,929.6000003814697,2,g,h,2,,,
o7b,VDACtest,23,g,true,674.5,1,r,v,1,,,
o7b,VDACtest,24,g,true,889.7999997138977,2,g,h,1,,,
o7b,VDACtest,25,g,true,816.1000003814697,2,g,h,3,,,
o7b,VDACtest,26,g,true,666.1999998092651,2,g,v,5,,,
o7b,VDACtest,27,g,null,null,1,r,h,3,,,
o7b,VDACtest,28,g,true,766.1000003814697,2,g,v,0,,,
o7b,VDACtest,29,g,true,906.1999998092651,2,g,v,4,,,
o7b,VDACtest,30,g,true,779.0999999046326,2,g,v,1,,,
o7b,VDACtest,31,g,true,616.6999998092651,2,g,v,4,,,
o7b,VDACtest,32,g,true,587,2,g,v,0,,,
o7b,VDACtest,33,g,true,947.4000000953674,1,r,h,2,,,
o7b,VDACtest,34,g,true,873.1999998092651,2,g,v,2,,,
o7b,VDACtest,35,g,true,817,2,g,v,4,,,
o7b,VDACtest,36,g,true,769.9000000953674,2,g,h,2,,,
o7b,VDACtest,37,g,true,664.4000000953674,2,g,v,3,,,
o7b,VDACtest,38,g,true,843.4000000953674,2,g,v,0,,,
o7b,VDACtest,39,g,true,953.6999998092651,2,g,v,2,,,
o7b,VDACtest,40,g,false,640.5999999046326,2,g,h,2,,,
o7b,VDACtest,41,g,null,null,1,r,v,1,,,
o7b,VDACtest,42,g,null,null,1,r,v,3,,,
o7b,VDACtest,43,g,true,566.0999999046326,2,g,h,2,,,
o7b,VDACtest,44,g,true,753.5,2,g,v,3,,,
o7b,VDACtest,45,g,true,858.6000003814697,1,r,v,2,,,
o7b,VDACtest,46,g,true,826.1999998092651,1,r,v,4,,,
o7b,VDACtest,47,g,null,null,1,r,h,3,,,
o7b,VDACtest,48,g,false,690.2999997138977,2,g,h,0,,,
o7b,VDACtest,49,g,true,714.2999997138977,2,g,v,2,,,
o7b,VDACtest,50,g,false,682.7999997138977,2,g,v,3,,,
brk,brk,brk,brk,brk,brk,brk,brk,brk,brk,brk,brk,
o7b,VDACtest,51,g,true,997.4000000953674,2,g,v,2,,,
o7b,VDACtest,52,g,true,739.2000002861023,1,r,v,5,,,
o7b,VDACtest,53,g,true,651.4000000953674,1,r,v,2,,,
o7b,VDACtest,54,g,true,578.9000000953674,1,r,v,2,,,
o7b,VDACtest,55,g,true,665.5999999046326,1,r,h,4,,,
o7b,VDACtest,56,g,false,746.7999997138977,2,g,v,3,,,
o7b,VDACtest,57,g,false,667.0999999046326,2,g,v,4,,,
o7b,VDACtest,58,g,false,643.5999999046326,2,g,h,5,,,
o7b,VDACtest,59,g,null,null,1,r,v,4,,,
o7b,VDACtest,60,g,null,null,2,g,v,5,,,
o7b,VDACtest,61,g,true,920,2,g,h,0,,,
o7b,VDACtest,62,g,false,842.4000000953674,1,r,h,2,,,
o7b,VDACtest,63,g,null,null,1,r,v,1,,,
o7b,VDACtest,64,g,true,586.5999999046326,1,r,h,0,,,
o7b,VDACtest,65,g,true,482.90000009536743,1,r,v,5,,,
o7b,VDACtest,66,g,true,794.5,2,g,h,4,,,
o7b,VDACtest,67,g,true,779.9000000953674,2,g,v,2,,,
o7b,VDACtest,68,g,true,794.7000002861023,1,r,v,4,,,
o7b,VDACtest,69,g,true,890.9000000953674,2,g,h,4,,,
o7b,VDACtest,70,g,null,null,2,g,v,1,,,
o7b,VDACtest,71,g,true,554.8000001907349,2,g,h,1,,,
o7b,VDACtest,72,g,true,634.6000003814697,1,r,h,5,,,
o7b,VDACtest,73,g,false,706.7999997138977,2,g,v,4,,,
o7b,VDACtest,74,g,true,779.7000002861023,1,r,h,2,,,
o7b,VDACtest,75,g,false,770.9000000953674,2,g,h,5,,,
o7b,VDACtest,76,g,false,739.0999999046326,1,r,v,3,,,
o7b,VDACtest,77,g,false,721.8999996185303,1,r,v,0,,,
o7b,VDACtest,78,g,true,848.5999999046326,1,r,v,2,,,
o7b,VDACtest,79,g,true,859.8000001907349,1,r,h,1,,,
o7b,VDACtest,80,g,true,921.1999998092651,2,g,h,5,,,
o7b,VDACtest,81,g,true,651.1999998092651,2,g,h,0,,,
o7b,VDACtest,82,g,true,786.3000001907349,1,r,h,4,,,
o7b,VDACtest,83,g,true,777.5,2,g,v,4,,,
o7b,VDACtest,84,g,false,969.9000000953674,1,r,v,1,,,
o7b,VDACtest,85,g,true,809.4000000953674,1,r,h,3,,,
o7b,VDACtest,86,g,false,642.9000000953674,1,r,v,2,,,
o7b,VDACtest,87,g,false,995.2000002861023,2,g,v,1,,,
o7b,VDACtest,88,g,true,896.5999999046326,2,g,h,2,,,
o7b,VDACtest,89,g,true,828.7000002861023,2,g,v,0,,,
o7b,VDACtest,90,g,true,808,2,g,h,3,,,
o7b,VDACtest,91,g,true,763.1999998092651,2,g,h,1,,,
o7b,VDACtest,92,g,false,945.5,1,r,h,2,,,
o7b,VDACtest,93,g,true,721.9000000953674,2,g,h,4,,,
o7b,VDACtest,94,g,true,714.1999998092651,2,g,h,0,,,
o7b,VDACtest,95,g,true,761,1,r,h,0,,,
o7b,VDACtest,96,g,true,738.2999997138977,2,g,h,1,,,
o7b,VDACtest,97,g,true,722.1999998092651,2,g,h,4,,,
o7b,VDACtest,98,g,true,633,1,r,h,3,,,
o7b,VDACtest,99,g,true,651,2,g,h,3,,,
o7b,VDACtest,100,g,true,570.4000000953674,1,r,v,0,,,
brk,brk,brk,brk,brk,brk,brk,brk,brk,brk,brk,brk,
o7b,VDACtest,101,g,true,674.5,2,g,v,2,,,
o7b,VDACtest,102,g,null,null,1,r,h,0,,,
o7b,VDACtest,103,g,true,562.1000003814697,1,r,v,0,,,
o7b,VDACtest,104,g,true,706,1,r,h,4,,,
o7b,VDACtest,105,g,false,792.5999999046326,2,g,h,0,,,
o7b,VDACtest,106,g,false,786.4000000953674,2,g,v,1,,,
o7b,VDACtest,107,g,true,737.0999999046326,1,r,v,1,,,
o7b,VDACtest,108,g,false,849.4000000953674,2,g,v,3,,,
o7b,VDACtest,109,g,true,880.7999997138977,1,r,v,5,,,
o7b,VDACtest,110,g,true,937.0999999046326,1,r,v,5,,,
o7b,VDACtest,111,g,true,857.7999997138977,1,r,h,1,,,
o7b,VDACtest,112,g,false,866.0999999046326,2,g,v,4,,,
o7b,VDACtest,113,g,true,778.2000002861023,1,r,h,3,,,
o7b,VDACtest,114,g,true,713.4000000953674,1,r,h,2,,,
o7b,VDACtest,115,g,false,730.5,1,r,v,2,,,
o7b,VDACtest,116,g,true,801.3000001907349,2,g,v,3,,,
o7b,VDACtest,117,g,true,657.0999999046326,1,r,v,3,,,
o7b,VDACtest,118,g,true,730.4000000953674,1,r,v,4,,,
o7b,VDACtest,119,g,true,833.7999997138977,1,r,v,4,,,
o7b,VDACtest,120,g,true,785.1999998092651,1,r,h,0,,,
o7b,VDACtest,121,g,true,971.1999998092651,1,r,h,2,,,
o7b,VDACtest,122,g,true,945.1999998092651,2,g,v,0,,,
o7b,VDACtest,123,g,true,689.7000002861023,2,g,v,0,,,
o7b,VDACtest,124,g,true,601.9000000953674,2,g,v,0,,,
o7b,VDACtest,125,g,false,753.6999998092651,1,r,v,1,,,
o7b,VDACtest,126,g,true,730.1000003814697,1,r,v,0,,,
o7b,VDACtest,127,g,true,681.0999999046326,1,r,h,4,,,
o7b,VDACtest,128,g,false,833.3000001907349,2,g,h,5,,,
o7b,VDACtest,129,g,true,906.1999998092651,1,r,h,4,,,
o7b,VDACtest,130,g,null,null,2,g,v,1,,,
o7b,VDACtest,131,g,true,788,2,g,h,3,,,
o7b,VDACtest,132,g,null,null,1,r,v,3,,,
o7b,VDACtest,133,g,true,600.6999998092651,2,g,h,0,,,
o7b,VDACtest,134,g,true,778.3000001907349,2,g,h,1,,,
o7b,VDACtest,135,g,true,664.8000001907349,1,r,v,3,,,
o7b,VDACtest,136,g,true,721.3000001907349,1,r,h,3,,,
o7b,VDACtest,137,g,true,610.6999998092651,1,r,h,1,,,
o7b,VDACtest,138,g,true,480.2000002861023,1,r,h,1,,,
o7b,VDACtest,139,g,true,600.9000000953674,1,r,h,0,,,
o7b,VDACtest,140,g,true,969.7999997138977,2,g,h,4,,,
o7b,VDACtest,141,g,true,793.4000000953674,2,g,h,1,,,
o7b,VDACtest,142,g,true,579.5999999046326,1,r,h,4,,,
o7b,VDACtest,143,g,true,602.0999999046326,2,g,h,0,,,
o7b,VDACtest,144,g,true,649,2,g,h,2,,,
o7b,VDACtest,145,g,true,521.3999996185303,2,g,h,3,,,
o7b,VDACtest,146,g,true,497.80000019073486,1,r,h,0,,,
o7b,VDACtest,147,g,false,640.3999996185303,1,r,v,2,,,
o7b,VDACtest,148,g,true,578.5999999046326,1,r,v,0,,,
o7b,VDACtest,149,g,true,658.5,1,r,h,1,,,
o7b,VDACtest,150,g,true,695.5999999046326,1,r,v,5,,,
brk,brk,brk,brk,brk,brk,brk,brk,brk,brk,brk,brk,
o7b,VDACtest,151,g,true,803.4000000953674,2,g,v,5,,,
o7b,VDACtest,152,g,true,608.9000000953674,1,r,h,5,,,
o7b,VDACtest,153,g,true,634.2999997138977,2,g,h,5,,,
o7b,VDACtest,154,g,true,793.6999998092651,2,g,h,4,,,
o7b,VDACtest,155,g,true,545.1000003814697,2,g,h,3,,,
o7b,VDACtest,156,g,false,665.5999999046326,2,g,v,1,,,
o7b,VDACtest,157,g,true,777.8000001907349,1,r,h,1,,,
o7b,VDACtest,158,g,false,737,2,g,v,5,,,
o7b,VDACtest,159,g,true,561.7999997138977,2,g,h,4,,,
o7b,VDACtest,160,g,true,762.2999997138977,2,g,h,2,,,
o7b,VDACtest,161,g,null,null,1,r,v,1,,,
o7b,VDACtest,162,g,false,651.6999998092651,1,r,v,0,,,
o7b,VDACtest,163,g,true,672.8000001907349,1,r,v,4,,,
o7b,VDACtest,164,g,true,747.2999997138977,2,g,v,2,,,
o7b,VDACtest,165,g,true,689.2000002861023,1,r,h,3,,,
o7b,VDACtest,166,g,true,418.5,1,r,h,2,,,
o7b,VDACtest,167,g,false,747.2999997138977,1,r,h,1,,,
o7b,VDACtest,168,g,true,520.7000002861023,1,r,h,5,,,
o7b,VDACtest,169,g,true,599.5,2,g,h,5,,,
o7b,VDACtest,170,g,true,736.2999997138977,2,g,h,1,,,
o7b,VDACtest,171,g,true,681.5999999046326,1,r,v,0,,,
o7b,VDACtest,172,g,true,729.4000000953674,1,r,h,3,,,
o7b,VDACtest,173,g,true,641.8000001907349,1,r,h,5,,,
o7b,VDACtest,174,g,true,680.7999997138977,1,r,v,5,,,
o7b,VDACtest,175,g,true,633,1,r,v,3,,,
o7b,VDACtest,176,g,true,705.5999999046326,1,r,h,0,,,
o7b,VDACtest,177,g,null,null,1,r,h,4,,,
o7b,VDACtest,178,g,true,608.6999998092651,1,r,h,0,,,
o7b,VDACtest,179,g,true,712.6000003814697,2,g,h,2,,,
o7b,VDACtest,180,g,true,882.5999999046326,2,g,v,5,,,
o7b,VDACtest,181,g,true,672.5999999046326,2,g,v,4,,,
o7b,VDACtest,182,g,true,617.4000000953674,1,r,h,4,,,
o7b,VDACtest,183,g,true,529.5999999046326,1,r,v,4,,,
o7b,VDACtest,184,g,false,616.5999999046326,2,g,v,2,,,
o7b,VDACtest,185,g,true,626,1,r,v,5,,,
o7b,VDACtest,186,g,true,666.3000001907349,2,g,h,1,,,
o7b,VDACtest,187,g,null,null,1,r,v,5,,,
o7b,VDACtest,188,g,true,708.5,2,g,h,3,,,
o7b,VDACtest,189,g,true,688.3000001907349,1,r,h,1,,,
o7b,VDACtest,190,g,true,601.4000000953674,1,r,h,5,,,
o7b,VDACtest,191,g,true,641.9000000953674,1,r,h,5,,,
o7b,VDACtest,192,g,false,896.7999997138977,2,g,v,4,,,
o7b,VDACtest,193,g,false,707.1999998092651,2,g,v,5,,,
o7b,VDACtest,194,g,true,600.1999998092651,1,r,v,2,,,
o7b,VDACtest,195,g,true,848.3000001907349,2,g,v,1,,,
o7b,VDACtest,196,g,true,755.2999997138977,2,g,v,5,,,
o7b,VDACtest,197,g,false,633.7000002861023,2,g,v,3,,,
o7b,VDACtest,198,g,false,649.4000000953674,2,g,h,4,,,
o7b,VDACtest,199,g,true,649.6999998092651,1,r,h,5,,,
o7b,VDACtest,200,g,true,643.5,1,r,h,5,,,
o7b,RSVPtrain,0,g,null,null,0,b,,1,3,0,
o7b,RSVPtrain,0,g,true,485.69999980926514,2,g,,3,0,1,
o7b,RSVPtrain,0,g,false,554.5999999046326,1,r,,1,1,2,
o7b,RSVPtrain,0,g,true,747.8000001907349,0,b,,0,3,0,
o7b,RSVPtrain,0,g,false,721.2000002861023,2,g,,1,0,1,
o7b,RSVPtrain,0,g,true,691,2,g,,3,1,1,
o7b,RSVPtrain,0,g,false,713.8000001907349,2,g,,2,2,2,
o7b,RSVPtrain,0,g,false,476.3999996185303,1,r,,0,0,2,
o7b,RSVPtrain,0,g,true,658.5,0,b,,3,3,0,
o7b,RSVPtrain,0,g,true,514.5,1,r,,3,2,1,
o7b,RSVPtest,1,g,true,589,2,g,,3,2,1,
o7b,RSVPtest,2,g,true,755,0,b,,3,3,0,
o7b,RSVPtest,3,g,false,802.0999999046326,1,r,,0,0,2,
o7b,RSVPtest,4,g,true,531.4000000953674,1,r,,3,2,1,
o7b,RSVPtest,5,g,true,593.8000001907349,1,r,,1,0,1,
o7b,RSVPtest,6,g,true,779,1,r,,3,2,1,
o7b,RSVPtest,7,g,false,622,1,r,,1,1,2,
o7b,RSVPtest,8,g,false,740.3000001907349,0,b,,2,3,0,
o7b,RSVPtest,9,g,true,709,1,r,,3,2,1,
o7b,RSVPtest,10,g,false,637.2999997138977,1,r,,0,0,2,
o7b,RSVPtest,11,g,false,650.3000001907349,2,g,,2,2,2,
o7b,RSVPtest,12,g,false,561.4000000953674,1,r,,0,2,1,
o7b,RSVPtest,13,g,true,678,1,r,,3,0,1,
o7b,RSVPtest,14,g,true,691.7999997138977,1,r,,0,2,1,
o7b,RSVPtest,15,g,true,514.9000000953674,0,b,,0,3,0,
o7b,RSVPtest,16,g,false,754.9000000953674,1,r,,3,1,1,
o7b,RSVPtest,17,g,false,846.5999999046326,1,r,,1,2,1,
o7b,RSVPtest,18,g,true,932.5,0,b,,3,3,0,
o7b,RSVPtest,19,g,false,980.3999996185303,2,g,,2,0,1,
o7b,RSVPtest,20,g,true,969.7000002861023,2,g,,3,1,1,
o7b,RSVPtest,21,g,false,884.5,1,r,,1,2,1,
o7b,RSVPtest,22,g,true,549.3999996185303,1,r,,2,0,1,
o7b,RSVPtest,23,g,false,586.9000000953674,0,b,,2,3,0,
o7b,RSVPtest,24,g,true,667.9000000953674,1,r,,3,0,1,
o7b,RSVPtest,25,g,true,579.4000000953674,1,r,,3,2,1,
o7b,RSVPtest,26,g,true,683.4000000953674,2,g,,3,2,1,
o7b,RSVPtest,27,g,true,917.9000000953674,1,r,,3,0,1,
o7b,RSVPtest,28,g,true,570.6999998092651,2,g,,2,0,1,
o7b,RSVPtest,29,g,true,602.3000001907349,2,g,,3,0,1,
o7b,RSVPtest,30,g,true,787.1999998092651,2,g,,3,0,1,
o7b,RSVPtest,31,g,false,941.2999997138977,2,g,,1,2,1,
o7b,RSVPtest,32,g,true,779.6999998092651,2,g,,2,1,1,
o7b,RSVPtest,33,g,true,655.9000000953674,0,b,,3,3,0,
o7b,RSVPtest,34,g,true,889.2999997138977,2,g,,3,0,1,
o7b,RSVPtest,35,g,false,780,1,r,,1,1,2,
o7b,RSVPtest,36,g,false,737.5999999046326,0,b,,0,3,0,
o7b,RSVPtest,37,g,false,907.4000000953674,2,g,,3,0,1,
o7b,RSVPtest,38,g,true,506.40000009536743,0,b,,2,3,0,
o7b,RSVPtest,39,g,false,722.4000000953674,2,g,,0,2,1,
o7b,RSVPtest,40,g,null,null,2,g,,1,1,2,
o7b,RSVPtest,41,g,false,904.6999998092651,0,b,,2,3,0,
o7b,RSVPtest,42,g,false,1091.3000001907349,2,g,,3,1,1,
o7b,RSVPtest,43,g,false,684.5,1,r,,0,2,1,
o7b,RSVPtest,44,g,true,803,2,g,,3,0,1,
o7b,RSVPtest,45,g,false,781.6999998092651,1,r,,1,0,1,
o7b,RSVPtest,46,g,false,851.5,2,g,,1,2,1,
o7b,RSVPtest,47,g,true,940,2,g,,3,0,1,
o7b,RSVPtest,48,g,false,844.3000001907349,1,r,,1,0,1,
o7b,RSVPtest,49,g,false,772,2,g,,1,0,1,
o7b,RSVPtest,50,g,false,870.2000002861023,2,g,,2,2,2,
o7b,RSVPtest,51,g,true,868,0,b,,0,3,0,
o7b,RSVPtest,52,g,false,787.2000002861023,1,r,,3,2,1,
o7b,RSVPtest,53,g,true,1097.8000001907349,1,r,,3,1,1,
o7b,RSVPtest,54,g,true,1103.7999997138977,2,g,,1,1,2,
o7b,RSVPtest,55,g,false,1155.9000000953674,0,b,,1,3,0,
o7b,RSVPtest,56,g,true,930.9000000953674,1,r,,3,1,1,
o7b,RSVPtest,57,g,false,1460.1999998092651,1,r,,2,2,2,
o7b,RSVPtest,58,g,false,1625.8000001907349,2,g,,0,1,1,
o7b,RSVPtest,59,g,false,827.7999997138977,1,r,,1,2,1,
o7b,RSVPtest,60,g,null,null,2,g,,0,0,2,
brk,brk,brk,brk,brk,brk,brk,brk,brk,brk,brk,brk,
o7b,RSVPtest,61,g,false,983.5,1,r,,2,2,2,
o7b,RSVPtest,62,g,false,754.8000001907349,2,g,,2,2,2,
o7b,RSVPtest,63,g,true,1234.6999998092651,2,g,,0,2,1,
o7b,RSVPtest,64,g,true,881.7000002861023,0,b,,0,3,0,
o7b,RSVPtest,65,g,false,947.8999996185303,0,b,,3,3,0,
o7b,RSVPtest,66,g,false,848.5999999046326,1,r,,2,0,1,
o7b,RSVPtest,67,g,false,954.5999999046326,1,r,,0,2,1,
o7b,RSVPtest,68,g,true,867.0999999046326,1,r,,3,1,1,
o7b,RSVPtest,69,g,true,595,0,b,,3,3,0,
o7b,RSVPtest,70,g,true,801.9000000953674,1,r,,1,2,1,
o7b,RSVPtest,71,g,true,955.6999998092651,2,g,,0,1,1,
o7b,RSVPtest,72,g,true,731.1999998092651,1,r,,3,2,1,
o7b,RSVPtest,73,g,true,802.2000002861023,2,g,,0,2,1,
o7b,RSVPtest,74,g,false,811,1,r,,3,1,1,
o7b,RSVPtest,75,g,false,915.2000002861023,2,g,,3,2,1,
o7b,RSVPtest,76,g,false,961.5999999046326,1,r,,1,0,1,
o7b,RSVPtest,77,g,true,882.5,2,g,,2,1,1,
o7b,RSVPtest,78,g,true,1002.9000000953674,2,g,,0,1,1,
o7b,RSVPtest,79,g,true,1076.0999999046326,1,r,,0,1,1,
o7b,RSVPtest,80,g,true,770.3000001907349,2,g,,2,1,1,
o7b,RSVPtest,81,g,true,1947.5,0,b,,0,3,0,
o7b,RSVPtest,82,g,false,875.0999999046326,1,r,,3,2,1,
o7b,RSVPtest,83,g,true,875.3000001907349,0,b,,3,3,0,
o7b,RSVPtest,84,g,true,1115.1999998092651,2,g,,3,1,1,
o7b,RSVPtest,85,g,true,1011.2000002861023,0,b,,3,3,0,
o7b,RSVPtest,86,g,false,809.4000000953674,2,g,,1,1,2,
o7b,RSVPtest,87,g,true,962.6000003814697,0,b,,1,3,0,
o7b,RSVPtest,88,g,false,1260.1999998092651,1,r,,2,1,1,
o7b,RSVPtest,89,g,false,1091,0,b,,3,3,0,
o7b,RSVPtest,90,g,true,1049.7000002861023,1,r,,1,2,1,
o7b,RSVPtest,91,g,true,850.5999999046326,2,g,,1,2,1,
o7b,RSVPtest,92,g,false,1066.5,1,r,,1,0,1,
o7b,RSVPtest,93,g,true,1305.0999999046326,0,b,,3,3,0,
o7b,RSVPtest,94,g,false,1043.0999999046326,1,r,,2,1,1,
o7b,RSVPtest,95,g,true,730.8000001907349,1,r,,3,0,1,
o7b,RSVPtest,96,g,true,674.1999998092651,1,r,,3,1,1,
o7b,RSVPtest,97,g,true,1136.5999999046326,0,b,,3,3,0,
o7b,RSVPtest,98,g,false,922.5,2,g,,3,1,1,
o7b,RSVPtest,99,g,false,1003.6000003814697,0,b,,3,3,0,
o7b,RSVPtest,100,g,null,null,2,g,,1,0,1,
o7b,RSVPtest,101,g,false,1246.3000001907349,1,r,,0,1,1,
o7b,RSVPtest,102,g,true,713.5999999046326,0,b,,2,3,0,
o7b,RSVPtest,103,g,false,666.1999998092651,1,r,,3,2,1,
o7b,RSVPtest,104,g,false,739.1000003814697,0,b,,1,3,0,
o7b,RSVPtest,105,g,true,994.0999999046326,1,r,,2,2,2,
o7b,RSVPtest,106,g,true,1818.3000001907349,0,b,,0,3,0,
o7b,RSVPtest,107,g,true,783.8000001907349,2,g,,3,1,1,
o7b,RSVPtest,108,g,true,1121.1999998092651,0,b,,2,3,0,
o7b,RSVPtest,109,g,true,1137.5,0,b,,2,3,0,
o7b,RSVPtest,110,g,true,896.5,2,g,,3,2,1,
o7b,RSVPtest,111,g,true,1224.9000000953674,2,g,,3,0,1,
o7b,RSVPtest,112,g,true,896.0999999046326,0,b,,3,3,0,
o7b,RSVPtest,113,g,true,1075.6000003814697,2,g,,3,2,1,
o7b,RSVPtest,114,g,true,1296.4000000953674,0,b,,3,3,0,
o7b,RSVPtest,115,g,true,770.0999999046326,2,g,,2,0,1,
o7b,RSVPtest,116,g,false,1176.6999998092651,2,g,,3,1,1,
o7b,RSVPtest,117,g,false,1081.3999996185303,2,g,,3,2,1,
o7b,RSVPtest,118,g,true,1049.1000003814697,0,b,,3,3,0,
o7b,RSVPtest,119,g,true,1153,2,g,,2,2,2,
o7b,RSVPtest,120,g,true,1546,2,g,,3,0,1,
brk,brk,brk,brk,brk,brk,brk,brk,brk,brk,brk,brk,
o7b,RSVPtest,121,g,true,889.2999997138977,1,r,,0,0,2,
o7b,RSVPtest,122,g,false,1489.3999996185303,2,g,,1,1,2,
o7b,RSVPtest,123,g,true,1138.1999998092651,1,r,,1,1,2,
o7b,RSVPtest,124,g,false,560.0999999046326,1,r,,0,1,1,
o7b,RSVPtest,125,g,true,816.8000001907349,2,g,,3,2,1,
o7b,RSVPtest,126,g,true,922.5,0,b,,0,3,0,
o7b,RSVPtest,127,g,true,1066.1999998092651,1,r,,0,2,1,
o7b,RSVPtest,128,g,false,960.1999998092651,1,r,,3,1,1,
o7b,RSVPtest,129,g,true,873.3000001907349,1,r,,3,0,1,
o7b,RSVPtest,130,g,true,1150.5,0,b,,1,3,0,
o7b,RSVPtest,131,g,false,999.1000003814697,2,g,,0,0,2,
o7b,RSVPtest,132,g,false,1703.9000000953674,1,r,,2,1,1,
o7b,RSVPtest,133,g,false,1065.1999998092651,1,r,,2,1,1,
o7b,RSVPtest,134,g,true,1009.0999999046326,1,r,,2,0,1,
o7b,RSVPtest,135,g,false,1274.2999997138977,1,r,,0,0,2,
o7b,RSVPtest,136,g,true,823.8000001907349,2,g,,3,0,1,
o7b,RSVPtest,137,g,false,467.30000019073486,2,g,,1,2,1,
o7b,RSVPtest,138,g,true,1321.0999999046326,1,r,,3,2,1,
o7b,RSVPtest,139,g,false,1337.6999998092651,1,r,,3,0,1,
o7b,RSVPtest,140,g,false,897.7999997138977,1,r,,2,0,1,
o7b,RSVPtest,141,g,true,838.0999999046326,2,g,,3,0,1,
o7b,RSVPtest,142,g,true,762.0999999046326,0,b,,0,3,0,
o7b,RSVPtest,143,g,true,994.5,0,b,,1,3,0,
o7b,RSVPtest,144,g,true,985.7000002861023,0,b,,3,3,0,
o7b,RSVPtest,145,g,true,1049,1,r,,1,0,1,
o7b,RSVPtest,146,g,true,906,2,g,,1,0,1,
o7b,RSVPtest,147,g,true,991.0999999046326,2,g,,1,2,1,
o7b,RSVPtest,148,g,false,1002.2999997138977,1,r,,2,1,1,
o7b,RSVPtest,149,g,true,914.3999996185303,2,g,,3,1,1,
o7b,RSVPtest,150,g,false,1215,2,g,,3,1,1,
o7b,RSVPtest,151,g,true,857.6999998092651,1,r,,3,2,1,
o7b,RSVPtest,152,g,false,1096.7999997138977,1,r,,3,1,1,
o7b,RSVPtest,153,g,false,1366.3000001907349,2,g,,3,2,1,
o7b,RSVPtest,154,g,true,968.5,2,g,,2,0,1,
o7b,RSVPtest,155,g,true,847.7000002861023,2,g,,1,0,1,
o7b,RSVPtest,156,g,true,837.4000000953674,2,g,,3,2,1,
o7b,RSVPtest,157,g,true,984.3000001907349,2,g,,2,1,1,
o7b,RSVPtest,158,g,true,1001.1000003814697,2,g,,3,0,1,
o7b,RSVPtest,159,g,true,1106.7000002861023,2,g,,3,1,1,
o7b,RSVPtest,160,g,true,1145.0999999046326,0,b,,1,3,0,
o7b,RSVPtest,161,g,false,936,2,g,,1,1,2,
o7b,RSVPtest,162,g,false,766.7000002861023,1,r,,3,2,1,
o7b,RSVPtest,163,g,true,967.5,0,b,,3,3,0,
o7b,RSVPtest,164,g,true,801.6000003814697,0,b,,2,3,0,
o7b,RSVPtest,165,g,false,913.4000000953674,1,r,,1,1,2,
o7b,RSVPtest,166,g,true,953.6999998092651,0,b,,3,3,0,
o7b,RSVPtest,167,g,false,953.9000000953674,1,r,,2,0,1,
o7b,RSVPtest,168,g,false,1177.6999998092651,1,r,,1,1,2,
o7b,RSVPtest,169,g,false,913.8000001907349,0,b,,3,3,0,
o7b,RSVPtest,170,g,true,994.5,2,g,,2,0,1,
o7b,RSVPtest,171,g,false,1577.7000002861023,1,r,,0,1,1,
o7b,RSVPtest,172,g,false,678.7999997138977,1,r,,3,2,1,
o7b,RSVPtest,173,g,false,842.3000001907349,0,b,,2,3,0,
o7b,RSVPtest,174,g,true,1209,2,g,,3,1,1,
o7b,RSVPtest,175,g,false,921.5,1,r,,0,1,1,
o7b,RSVPtest,176,g,false,1120.7000002861023,2,g,,0,1,1,
o7b,RSVPtest,177,g,true,1107,0,b,,1,3,0,
o7b,RSVPtest,178,g,false,912.1000003814697,0,b,,2,3,0,
o7b,RSVPtest,179,g,false,1243.0999999046326,2,g,,0,0,2,
o7b,RSVPtest,180,g,true,920.5,1,r,,0,0,2,
brk,brk,brk,brk,brk,brk,brk,brk,brk,brk,brk,brk,
o7b,RSVPtest,181,g,false,798,0,b,,2,3,0,
o7b,RSVPtest,182,g,false,887.5,0,b,,3,3,0,
o7b,RSVPtest,183,g,true,790.4000000953674,2,g,,3,2,1,
o7b,RSVPtest,184,g,true,1118.6999998092651,1,r,,3,0,1,
o7b,RSVPtest,185,g,true,863.4000000953674,2,g,,0,0,2,
o7b,RSVPtest,186,g,true,1383.8000001907349,1,r,,3,1,1,
o7b,RSVPtest,187,g,true,1008.1000003814697,1,r,,0,0,2,
o7b,RSVPtest,188,g,true,817.3000001907349,2,g,,3,2,1,
o7b,RSVPtest,189,g,false,1151.7000002861023,2,g,,2,1,1,
o7b,RSVPtest,190,g,true,1033.2000002861023,2,g,,3,1,1,
o7b,RSVPtest,191,g,false,1157.5,1,r,,2,1,1,
o7b,RSVPtest,192,g,false,760.2000002861023,1,r,,3,0,1,
o7b,RSVPtest,193,g,true,1081.3999996185303,2,g,,0,0,2,
o7b,RSVPtest,194,g,false,1149.9000000953674,2,g,,2,2,2,
o7b,RSVPtest,195,g,true,760,0,b,,0,3,0,
o7b,RSVPtest,196,g,true,1223.7000002861023,1,r,,1,1,2,
o7b,RSVPtest,197,g,true,987.3000001907349,1,r,,3,0,1,
o7b,RSVPtest,198,g,null,null,2,g,,0,2,1,
o7b,RSVPtest,199,g,true,1117.2000002861023,1,r,,2,2,2,
o7b,RSVPtest,200,g,null,null,0,b,,3,3,0,
o7b,RSVPtest,201,g,true,1005.0999999046326,0,b,,0,3,0,
o7b,RSVPtest,202,g,true,687.4000000953674,0,b,,1,3,0,
o7b,RSVPtest,203,g,false,1111.6999998092651,0,b,,0,3,0,
o7b,RSVPtest,204,g,true,959.6000003814697,0,b,,3,3,0,
o7b,RSVPtest,205,g,true,1081.7999997138977,2,g,,0,1,1,
o7b,RSVPtest,206,g,true,1901.5,1,r,,2,2,2,
o7b,RSVPtest,207,g,true,720.8000001907349,1,r,,3,1,1,
o7b,RSVPtest,208,g,true,1783.6999998092651,2,g,,3,2,1,
o7b,RSVPtest,209,g,true,1072.5999999046326,2,g,,1,0,1,
o7b,RSVPtest,210,g,true,758.5,2,g,,1,0,1,
o7b,RSVPtest,211,g,false,914,1,r,,2,0,1,
o7b,RSVPtest,212,g,true,1064,0,b,,3,3,0,
o7b,RSVPtest,213,g,true,1305.1000003814697,0,b,,1,3,0,
o7b,RSVPtest,214,g,false,801.8000001907349,2,g,,3,0,1,
o7b,RSVPtest,215,g,false,458.30000019073486,1,r,,0,2,1,
o7b,RSVPtest,216,g,true,991.8000001907349,0,b,,1,3,0,
o7b,RSVPtest,217,g,true,828.5999999046326,1,r,,0,1,1,
o7b,RSVPtest,218,g,true,792.4000000953674,2,g,,0,2,1,
o7b,RSVPtest,219,g,false,849.6999998092651,2,g,,2,2,2,
o7b,RSVPtest,220,g,false,661.9000000953674,0,b,,3,3,0,
o7b,RSVPtest,221,g,true,1016.5999999046326,1,r,,3,0,1,
o7b,RSVPtest,222,g,true,1248.3000001907349,0,b,,2,3,0,
o7b,RSVPtest,223,g,null,null,2,g,,0,0,2,
o7b,RSVPtest,224,g,false,1840.5,1,r,,3,1,1,
o7b,RSVPtest,225,g,false,840,1,r,,2,2,2,
o7b,RSVPtest,226,g,true,998.7000002861023,2,g,,0,2,1,
o7b,RSVPtest,227,g,true,824.5999999046326,2,g,,1,1,2,
o7b,RSVPtest,228,g,true,844.3000001907349,0,b,,1,3,0,
o7b,RSVPtest,229,g,true,1183.9000000953674,2,g,,1,2,1,
o7b,RSVPtest,230,g,false,1191.5,1,r,,1,2,1,
o7b,RSVPtest,231,g,false,888.9000000953674,1,r,,3,0,1,
o7b,RSVPtest,232,g,true,960.1999998092651,2,g,,0,1,1,
o7b,RSVPtest,233,g,true,816.8000001907349,2,g,,2,1,1,
o7b,RSVPtest,234,g,false,1223.0999999046326,2,g,,3,1,1,
o7b,RSVPtest,235,g,false,687.4000000953674,0,b,,0,3,0,
o7b,RSVPtest,236,g,true,997.5,2,g,,2,0,1,
o7b,RSVPtest,237,g,true,1050.6999998092651,1,r,,3,1,1,
o7b,RSVPtest,238,g,false,1175.4000000953674,0,b,,1,3,0,
o7b,RSVPtest,239,g,false,1230.9000000953674,1,r,,3,0,1,
o7b,RSVPtest,240,g,false,432.1000003814697,0,b,,3,3,0,
