subID,trialType,trialNum,cntBalance,correct,rt,rwdType,tgtCol,tgtDir,tgtPos,colPos,colMatch,
c6y,VDACtrain,0,g,null,null,1,r,v,3,,,
c6y,VDACtrain,0,g,false,362.1000003814697,2,g,v,5,,,
c6y,VDACtrain,0,g,null,null,2,g,v,2,,,
c6y,VDACtrain,0,g,true,706,1,r,v,4,,,
c6y,VDACtrain,0,g,null,null,1,r,h,0,,,
c6y,VDACtrain,0,g,null,null,1,r,h,1,,,
c6y,VDACtrain,0,g,null,null,2,g,h,5,,,
c6y,VDACtrain,0,g,null,null,1,r,h,2,,,
c6y,VDACtrain,0,g,null,null,2,g,h,3,,,
c6y,VDACtrain,0,g,null,null,2,g,v,0,,,
c6y,VDACtest,1,g,null,null,2,g,h,0,,,
c6y,VDACtest,2,g,null,null,2,g,h,4,,,
c6y,VDACtest,3,g,null,null,1,r,h,5,,,
c6y,VDACtest,4,g,null,null,2,g,v,2,,,
c6y,VDACtest,5,g,true,733.2999997138977,1,r,h,4,,,
c6y,VDACtest,6,g,true,771,1,r,h,3,,,
c6y,VDACtest,7,g,true,795.3000001907349,2,g,h,3,,,
c6y,VDACtest,8,g,true,562.8999996185303,1,r,h,3,,,
c6y,VDACtest,9,g,true,778,2,g,v,4,,,
c6y,VDACtest,10,g,true,756,2,g,v,5,,,
c6y,VDACtest,11,g,true,883.5999999046326,1,r,v,0,,,
c6y,VDACtest,12,g,true,611.0999999046326,2,g,v,1,,,
c6y,VDACtest,13,g,true,706.9000000953674,2,g,h,3,,,
c6y,VDACtest,14,g,false,682.8999996185303,2,g,v,5,,,
c6y,VDACtest,15,g,false,714.4000000953674,2,g,v,0,,,
c6y,VDACtest,16,g,true,803.3000001907349,1,r,v,1,,,
c6y,VDACtest,17,g,null,null,2,g,h,5,,,
c6y,VDACtest,18,g,false,695.2000002861023,2,g,v,4,,,
c6y,VDACtest,19,g,true,675.3000001907349,1,r,h,0,,,
c6y,VDACtest,20,g,true,762.1999998092651,1,r,v,1,,,
c6y,VDACtest,21,g,true,963.3000001907349,1,r,h,0,,,
c6y,VDACtest,22,g,true,922.3999996185303,2,g,h,5,,,
c6y,VDACtest,23,g,false,603.3000001907349,1,r,h,5,,,
c6y,VDACtest,24,g,null,null,1,r,v,4,,,
c6y,VDACtest,25,g,true,749.2999997138977,1,r,h,4,,,
c6y,VDACtest,26,g,true,738,2,g,v,4,,,
c6y,VDACtest,27,g,true,612.5,2,g,v,4,,,
c6y,VDACtest,28,g,false,740.2999997138977,2,g,h,1,,,
c6y,VDACtest,29,g,false,715.5999999046326,2,g,v,4,,,
c6y,VDACtest,30,g,false,787.8000001907349,1,r,v,4,,,
c6y,VDACtest,31,g,true,923.0999999046326,2,g,v,2,,,
c6y,VDACtest,32,g,true,931.2000002861023,2,g,v,2,,,
c6y,VDACtest,33,g,true,891.9000000953674,2,g,h,0,,,
c6y,VDACtest,34,g,null,null,2,g,h,2,,,
c6y,VDACtest,35,g,null,null,1,r,v,5,,,
c6y,VDACtest,36,g,true,714.6999998092651,1,r,h,1,,,
c6y,VDACtest,37,g,true,811.3999996185303,1,r,v,2,,,
c6y,VDACtest,38,g,true,586.2000002861023,2,g,h,3,,,
c6y,VDACtest,39,g,true,682.5999999046326,1,r,v,3,,,
c6y,VDACtest,40,g,true,692.7999997138977,1,r,v,2,,,
c6y,VDACtest,41,g,true,739.0999999046326,1,r,v,1,,,
c6y,VDACtest,42,g,true,700.7000002861023,2,g,v,3,,,
c6y,VDACtest,43,g,true,666.6999998092651,1,r,v,0,,,
c6y,VDACtest,44,g,null,null,1,r,h,2,,,
c6y,VDACtest,45,g,true,780.9000000953674,2,g,v,0,,,
c6y,VDACtest,46,g,null,null,1,r,v,3,,,
c6y,VDACtest,47,g,true,765.7000002861023,2,g,v,0,,,
c6y,VDACtest,48,g,true,724.8000001907349,2,g,v,4,,,
c6y,VDACtest,49,g,false,899.4000000953674,1,r,v,3,,,
c6y,VDACtest,50,g,null,null,1,r,h,4,,,
brk,brk,brk,brk,brk,brk,brk,brk,brk,brk,brk,brk,
c6y,VDACtest,51,g,false,601.4000000953674,2,g,v,2,,,
c6y,VDACtest,52,g,false,747.3999996185303,2,g,v,5,,,
c6y,VDACtest,53,g,true,884,2,g,v,5,,,
c6y,VDACtest,54,g,true,603.3000001907349,2,g,v,2,,,
c6y,VDACtest,55,g,false,755.3999996185303,1,r,v,3,,,
c6y,VDACtest,56,g,null,null,1,r,v,5,,,
c6y,VDACtest,57,g,true,771.1000003814697,2,g,h,5,,,
c6y,VDACtest,58,g,true,547.5,2,g,v,2,,,
c6y,VDACtest,59,g,false,539.3000001907349,1,r,v,1,,,
c6y,VDACtest,60,g,true,738.7000002861023,1,r,v,3,,,
c6y,VDACtest,61,g,true,498.3999996185303,1,r,v,4,,,
c6y,VDACtest,62,g,true,603.0999999046326,1,r,h,0,,,
c6y,VDACtest,63,g,true,572.0999999046326,2,g,h,5,,,
c6y,VDACtest,64,g,true,507.69999980926514,2,g,h,5,,,
c6y,VDACtest,65,g,false,596,1,r,h,1,,,
c6y,VDACtest,66,g,false,620.5999999046326,1,r,h,0,,,
c6y,VDACtest,67,g,true,500.2999997138977,2,g,h,0,,,
c6y,VDACtest,68,g,true,459.30000019073486,2,g,h,1,,,
c6y,VDACtest,69,g,false,580.0999999046326,1,r,v,0,,,
c6y,VDACtest,70,g,false,596.1000003814697,1,r,v,3,,,
c6y,VDACtest,71,g,false,931.0999999046326,1,r,h,2,,,
c6y,VDACtest,72,g,true,596.5,2,g,h,4,,,
c6y,VDACtest,73,g,false,539.9000000953674,2,g,v,3,,,
c6y,VDACtest,74,g,false,642.0999999046326,2,g,h,1,,,
c6y,VDACtest,75,g,false,613.0999999046326,2,g,v,5,,,
c6y,VDACtest,76,g,false,877.5,1,r,h,2,,,
c6y,VDACtest,77,g,true,930.3000001907349,1,r,v,1,,,
c6y,VDACtest,78,g,true,667.5999999046326,1,r,v,0,,,
c6y,VDACtest,79,g,true,747.9000000953674,2,g,v,5,,,
c6y,VDACtest,80,g,true,664.5999999046326,1,r,v,0,,,
c6y,VDACtest,81,g,true,755.5999999046326,1,r,h,2,,,
c6y,VDACtest,82,g,true,620.1999998092651,1,r,h,3,,,
c6y,VDACtest,83,g,false,811.8000001907349,1,r,v,4,,,
c6y,VDACtest,84,g,false,628.5999999046326,1,r,v,4,,,
c6y,VDACtest,85,g,false,748.2000002861023,2,g,h,2,,,
c6y,VDACtest,86,g,false,802.5,1,r,v,2,,,
c6y,VDACtest,87,g,false,764.0999999046326,2,g,h,2,,,
c6y,VDACtest,88,g,true,868.6999998092651,2,g,h,3,,,
c6y,VDACtest,89,g,true,966.3000001907349,1,r,h,1,,,
c6y,VDACtest,90,g,true,611.5999999046326,2,g,h,3,,,
c6y,VDACtest,91,g,true,651.6999998092651,2,g,h,0,,,
c6y,VDACtest,92,g,true,826.8000001907349,1,r,v,5,,,
c6y,VDACtest,93,g,true,587.4000000953674,2,g,h,0,,,
c6y,VDACtest,94,g,true,636,2,g,h,3,,,
c6y,VDACtest,95,g,true,811.5999999046326,1,r,h,1,,,
c6y,VDACtest,96,g,true,572.0999999046326,2,g,v,2,,,
c6y,VDACtest,97,g,false,956.6999998092651,1,r,v,2,,,
c6y,VDACtest,98,g,false,916,1,r,h,3,,,
c6y,VDACtest,99,g,true,596.0999999046326,1,r,v,3,,,
c6y,VDACtest,100,g,true,618.0999999046326,1,r,h,4,,,
brk,brk,brk,brk,brk,brk,brk,brk,brk,brk,brk,brk,
c6y,VDACtest,101,g,true,795.8000001907349,2,g,v,3,,,
c6y,VDACtest,102,g,true,570.9000000953674,1,r,h,1,,,
c6y,VDACtest,103,g,false,892.8000001907349,2,g,h,3,,,
c6y,VDACtest,104,g,false,979.9000000953674,1,r,v,2,,,
c6y,VDACtest,105,g,true,745.4000000953674,1,r,v,4,,,
c6y,VDACtest,106,g,true,602.5999999046326,1,r,v,4,,,
c6y,VDACtest,107,g,true,580,2,g,v,4,,,
c6y,VDACtest,108,g,true,489.30000019073486,1,r,h,0,,,
c6y,VDACtest,109,g,true,828.0999999046326,2,g,v,0,,,
c6y,VDACtest,110,g,true,908.7000002861023,1,r,h,5,,,
c6y,VDACtest,111,g,true,667,2,g,v,1,,,
c6y,VDACtest,112,g,true,599.5999999046326,1,r,h,2,,,
c6y,VDACtest,113,g,true,604.0999999046326,2,g,v,0,,,
c6y,VDACtest,114,g,false,594.6999998092651,2,g,h,1,,,
c6y,VDACtest,115,g,true,748.2000002861023,1,r,v,3,,,
c6y,VDACtest,116,g,true,556.2000002861023,2,g,h,3,,,
c6y,VDACtest,117,g,null,null,2,g,h,4,,,
c6y,VDACtest,118,g,false,621,2,g,h,5,,,
c6y,VDACtest,119,g,true,780,1,r,h,5,,,
c6y,VDACtest,120,g,true,724.2000002861023,1,r,h,2,,,
c6y,VDACtest,121,g,true,636.3000001907349,2,g,h,4,,,
c6y,VDACtest,122,g,true,692.3000001907349,2,g,v,1,,,
c6y,VDACtest,123,g,false,987.8000001907349,2,g,v,1,,,
c6y,VDACtest,124,g,true,843.2000002861023,1,r,h,1,,,
c6y,VDACtest,125,g,null,null,1,r,h,3,,,
c6y,VDACtest,126,g,true,708.1999998092651,1,r,h,3,,,
c6y,VDACtest,127,g,true,805,2,g,v,0,,,
c6y,VDACtest,128,g,false,956.4000000953674,1,r,v,4,,,
c6y,VDACtest,129,g,true,755.3000001907349,2,g,h,0,,,
c6y,VDACtest,130,g,true,652.5999999046326,1,r,h,0,,,
c6y,VDACtest,131,g,true,618,2,g,v,1,,,
c6y,VDACtest,132,g,true,561.6999998092651,2,g,h,4,,,
c6y,VDACtest,133,g,true,707.8000001907349,1,r,v,0,,,
c6y,VDACtest,134,g,true,540.3000001907349,2,g,h,2,,,
c6y,VDACtest,135,g,true,629.0999999046326,1,r,h,4,,,
c6y,VDACtest,136,g,true,578.8000001907349,1,r,h,5,,,
c6y,VDACtest,137,g,true,484.5,1,r,h,0,,,
c6y,VDACtest,138,g,true,492.90000009536743,2,g,h,1,,,
c6y,VDACtest,139,g,false,555.5999999046326,1,r,v,1,,,
c6y,VDACtest,140,g,true,762.5,1,r,h,4,,,
c6y,VDACtest,141,g,true,524.4000000953674,2,g,v,0,,,
c6y,VDACtest,142,g,true,644,1,r,h,1,,,
c6y,VDACtest,143,g,true,612.0999999046326,2,g,v,1,,,
c6y,VDACtest,144,g,true,699.3000001907349,2,g,h,0,,,
c6y,VDACtest,145,g,null,null,1,r,v,2,,,
c6y,VDACtest,146,g,false,877.5,2,g,v,5,,,
c6y,VDACtest,147,g,true,771.4000000953674,2,g,v,0,,,
c6y,VDACtest,148,g,true,676.2999997138977,2,g,h,1,,,
c6y,VDACtest,149,g,true,522.0999999046326,2,g,h,2,,,
c6y,VDACtest,150,g,true,617.9000000953674,2,g,h,1,,,
brk,brk,brk,brk,brk,brk,brk,brk,brk,brk,brk,brk,
c6y,VDACtest,151,g,false,652.4000000953674,2,g,h,5,,,
c6y,VDACtest,152,g,false,954.2000002861023,1,r,v,4,,,
c6y,VDACtest,153,g,true,755.4000000953674,1,r,v,5,,,
c6y,VDACtest,154,g,true,536.2999997138977,1,r,v,5,,,
c6y,VDACtest,155,g,true,699.0999999046326,2,g,v,3,,,
c6y,VDACtest,156,g,true,531.3000001907349,2,g,v,5,,,
c6y,VDACtest,157,g,true,484.5,1,r,v,5,,,
c6y,VDACtest,158,g,true,467,1,r,h,3,,,
c6y,VDACtest,159,g,false,588.1999998092651,2,g,v,1,,,
c6y,VDACtest,160,g,true,554.3999996185303,1,r,v,1,,,
c6y,VDACtest,161,g,false,515.7000002861023,2,g,v,3,,,
c6y,VDACtest,162,g,true,476.5,1,r,h,3,,,
c6y,VDACtest,163,g,true,713,1,r,h,5,,,
c6y,VDACtest,164,g,false,529.8000001907349,2,g,h,2,,,
c6y,VDACtest,165,g,true,596.8000001907349,1,r,h,2,,,
c6y,VDACtest,166,g,true,602.6999998092651,2,g,h,4,,,
c6y,VDACtest,167,g,true,546.7000002861023,1,r,h,4,,,
c6y,VDACtest,168,g,true,547.3000001907349,2,g,h,4,,,
c6y,VDACtest,169,g,null,null,1,r,h,1,,,
c6y,VDACtest,170,g,true,678.5999999046326,2,g,h,4,,,
c6y,VDACtest,171,g,true,651.5999999046326,2,g,v,2,,,
c6y,VDACtest,172,g,true,651,2,g,h,1,,,
c6y,VDACtest,173,g,true,546.9000000953674,2,g,h,2,,,
c6y,VDACtest,174,g,null,null,1,r,h,0,,,
c6y,VDACtest,175,g,false,995.7999997138977,1,r,v,1,,,
c6y,VDACtest,176,g,true,682.4000000953674,2,g,h,1,,,
c6y,VDACtest,177,g,true,643,1,r,v,5,,,
c6y,VDACtest,178,g,false,698.9000000953674,1,r,v,2,,,
c6y,VDACtest,179,g,true,648.9000000953674,2,g,v,3,,,
c6y,VDACtest,180,g,true,651.7000002861023,1,r,v,0,,,
c6y,VDACtest,181,g,true,563.1000003814697,1,r,h,1,,,
c6y,VDACtest,182,g,false,862.3000001907349,2,g,v,4,,,
c6y,VDACtest,183,g,true,610.5999999046326,2,g,h,4,,,
c6y,VDACtest,184,g,false,593.7999997138977,1,r,h,4,,,
c6y,VDACtest,185,g,true,851.5,1,r,h,5,,,
c6y,VDACtest,186,g,true,794,2,g,h,0,,,
c6y,VDACtest,187,g,false,499.19999980926514,2,g,v,3,,,
c6y,VDACtest,188,g,true,692.8000001907349,2,g,v,1,,,
c6y,VDACtest,189,g,null,null,1,r,h,5,,,
c6y,VDACtest,190,g,true,606.5,2,g,v,4,,,
c6y,VDACtest,191,g,false,771.1999998092651,1,r,v,1,,,
c6y,VDACtest,192,g,true,667.1999998092651,2,g,h,5,,,
c6y,VDACtest,193,g,true,617.1999998092651,2,g,h,2,,,
c6y,VDACtest,194,g,true,746.4000000953674,1,r,v,2,,,
c6y,VDACtest,195,g,false,915.1000003814697,1,r,v,5,,,
c6y,VDACtest,196,g,true,642.6999998092651,1,r,h,2,,,
c6y,VDACtest,197,g,true,763.1999998092651,1,r,v,0,,,
c6y,VDACtest,198,g,true,667.5,2,g,v,3,,,
c6y,VDACtest,199,g,true,530.5,2,g,v,1,,,
c6y,VDACtest,200,g,true,500.80000019073486,1,r,h,4,,,
c6y,RSVPtrain,0,g,true,49.69999980926514,0,b,,1,3,0,
c6y,RSVPtrain,0,g,true,996.6000003814697,1,r,,3,2,1,
c6y,RSVPtrain,0,g,false,773.7000002861023,2,g,,3,0,1,
c6y,RSVPtrain,0,g,false,709.1000003814697,0,b,,0,3,0,
c6y,RSVPtrain,0,g,false,925.0999999046326,2,g,,1,0,1,
c6y,RSVPtrain,0,g,true,1531.4000000953674,2,g,,3,1,1,
c6y,RSVPtrain,0,g,false,957.5,1,r,,0,0,2,
c6y,RSVPtrain,0,g,true,333.80000019073486,2,g,,2,2,2,
c6y,RSVPtrain,0,g,false,660.8000001907349,0,b,,3,3,0,
c6y,RSVPtrain,0,g,false,901.5999999046326,1,r,,1,1,2,
c6y,RSVPtest,1,g,false,870.2999997138977,2,g,,1,0,1,
c6y,RSVPtest,2,g,false,769.7000002861023,2,g,,1,1,2,
c6y,RSVPtest,3,g,false,1656.6000003814697,0,b,,2,3,0,
c6y,RSVPtest,4,g,false,1005.8000001907349,0,b,,3,3,0,
c6y,RSVPtest,5,g,false,674.5999999046326,0,b,,1,3,0,
c6y,RSVPtest,6,g,null,null,1,r,,3,2,1,
c6y,RSVPtest,7,g,false,785.5,1,r,,2,1,1,
c6y,RSVPtest,8,g,false,760.4000000953674,2,g,,2,2,2,
c6y,RSVPtest,9,g,true,1884.6000003814697,0,b,,3,3,0,
c6y,RSVPtest,10,g,true,770.4000000953674,0,b,,0,3,0,
c6y,RSVPtest,11,g,true,712.5,0,b,,0,3,0,
c6y,RSVPtest,12,g,true,804.7000002861023,2,g,,0,2,1,
c6y,RSVPtest,13,g,true,1087.2000002861023,1,r,,3,0,1,
c6y,RSVPtest,14,g,false,1102.9000000953674,1,r,,1,1,2,
c6y,RSVPtest,15,g,false,1774.3999996185303,2,g,,3,1,1,
c6y,RSVPtest,16,g,true,727.6999998092651,0,b,,3,3,0,
c6y,RSVPtest,17,g,true,877.8000001907349,1,r,,3,2,1,
c6y,RSVPtest,18,g,false,773,1,r,,1,2,1,
c6y,RSVPtest,19,g,true,662.8000001907349,0,b,,2,3,0,
c6y,RSVPtest,20,g,false,613.0999999046326,1,r,,3,1,1,
c6y,RSVPtest,21,g,false,1093.7999997138977,2,g,,1,2,1,
c6y,RSVPtest,22,g,true,1159,0,b,,0,3,0,
c6y,RSVPtest,23,g,true,742.7000002861023,0,b,,3,3,0,
c6y,RSVPtest,24,g,false,764.4000000953674,1,r,,2,2,2,
c6y,RSVPtest,25,g,true,797.7000002861023,1,r,,2,2,2,
c6y,RSVPtest,26,g,true,870,2,g,,3,2,1,
c6y,RSVPtest,27,g,true,765.2000002861023,1,r,,1,0,1,
c6y,RSVPtest,28,g,true,966.1999998092651,1,r,,0,1,1,
c6y,RSVPtest,29,g,true,964.5999999046326,0,b,,0,3,0,
c6y,RSVPtest,30,g,false,637.4000000953674,1,r,,2,1,1,
c6y,RSVPtest,31,g,true,863,2,g,,1,1,2,
c6y,RSVPtest,32,g,true,674.8000001907349,2,g,,3,0,1,
c6y,RSVPtest,33,g,false,995.9000000953674,1,r,,3,1,1,
c6y,RSVPtest,34,g,true,916.4000000953674,1,r,,0,2,1,
c6y,RSVPtest,35,g,true,875.5999999046326,2,g,,1,2,1,
c6y,RSVPtest,36,g,true,988.1999998092651,1,r,,1,0,1,
c6y,RSVPtest,37,g,false,659.3000001907349,2,g,,1,1,2,
c6y,RSVPtest,38,g,false,780,0,b,,3,3,0,
c6y,RSVPtest,39,g,false,893.9000000953674,2,g,,0,2,1,
c6y,RSVPtest,40,g,true,930,1,r,,3,2,1,
c6y,RSVPtest,41,g,true,971.6000003814697,2,g,,0,1,1,
c6y,RSVPtest,42,g,false,1113.9000000953674,0,b,,2,3,0,
c6y,RSVPtest,43,g,true,821.1000003814697,1,r,,3,0,1,
c6y,RSVPtest,44,g,true,644.3000001907349,2,g,,2,1,1,
c6y,RSVPtest,45,g,true,933.8999996185303,0,b,,1,3,0,
c6y,RSVPtest,46,g,true,769,2,g,,3,1,1,
c6y,RSVPtest,47,g,false,861.3000001907349,2,g,,0,1,1,
c6y,RSVPtest,48,g,true,940.6999998092651,2,g,,3,0,1,
c6y,RSVPtest,49,g,false,693.5,2,g,,0,2,1,
c6y,RSVPtest,50,g,false,925.3000001907349,1,r,,0,2,1,
c6y,RSVPtest,51,g,true,747.4000000953674,1,r,,3,1,1,
c6y,RSVPtest,52,g,true,831.5,0,b,,1,3,0,
c6y,RSVPtest,53,g,false,692.6000003814697,2,g,,0,2,1,
c6y,RSVPtest,54,g,false,785.0999999046326,0,b,,0,3,0,
c6y,RSVPtest,55,g,false,1061.7000002861023,1,r,,1,0,1,
c6y,RSVPtest,56,g,true,378.80000019073486,0,b,,1,3,0,
c6y,RSVPtest,57,g,false,662.1000003814697,1,r,,3,2,1,
c6y,RSVPtest,58,g,true,542.5999999046326,1,r,,3,0,1,
c6y,RSVPtest,59,g,false,1213.5,0,b,,2,3,0,
c6y,RSVPtest,60,g,true,621.0999999046326,2,g,,2,2,2,
brk,brk,brk,brk,brk,brk,brk,brk,brk,brk,brk,brk,
c6y,RSVPtest,61,g,true,677.9000000953674,2,g,,2,2,2,
c6y,RSVPtest,62,g,true,956.5,0,b,,3,3,0,
c6y,RSVPtest,63,g,true,589.5999999046326,1,r,,1,1,2,
c6y,RSVPtest,64,g,false,1219.1999998092651,1,r,,3,2,1,
c6y,RSVPtest,65,g,false,965.6000003814697,2,g,,3,2,1,
c6y,RSVPtest,66,g,false,659.9000000953674,0,b,,2,3,0,
c6y,RSVPtest,67,g,false,631.4000000953674,1,r,,0,1,1,
c6y,RSVPtest,68,g,true,765.0999999046326,1,r,,3,2,1,
c6y,RSVPtest,69,g,false,1053.9000000953674,2,g,,2,2,2,
c6y,RSVPtest,70,g,false,764.5,0,b,,3,3,0,
c6y,RSVPtest,71,g,true,587.9000000953674,2,g,,0,0,2,
c6y,RSVPtest,72,g,true,700.4000000953674,0,b,,2,3,0,
c6y,RSVPtest,73,g,true,500.3999996185303,1,r,,1,1,2,
c6y,RSVPtest,74,g,true,836.5,2,g,,2,1,1,
c6y,RSVPtest,75,g,true,683.0999999046326,2,g,,3,2,1,
c6y,RSVPtest,76,g,true,619.5,2,g,,0,0,2,
c6y,RSVPtest,77,g,false,684.3999996185303,2,g,,3,2,1,
c6y,RSVPtest,78,g,true,819,2,g,,3,2,1,
c6y,RSVPtest,79,g,false,902.7000002861023,2,g,,3,0,1,
c6y,RSVPtest,80,g,true,771,2,g,,3,2,1,
c6y,RSVPtest,81,g,false,957.3000001907349,0,b,,1,3,0,
c6y,RSVPtest,82,g,false,995.4000000953674,2,g,,3,0,1,
c6y,RSVPtest,83,g,true,643,2,g,,1,0,1,
c6y,RSVPtest,84,g,false,644.9000000953674,1,r,,1,0,1,
c6y,RSVPtest,85,g,true,770.5999999046326,2,g,,2,1,1,
c6y,RSVPtest,86,g,true,540.2000002861023,1,r,,2,2,2,
c6y,RSVPtest,87,g,false,811.4000000953674,2,g,,3,1,1,
c6y,RSVPtest,88,g,true,557.5,1,r,,2,2,2,
c6y,RSVPtest,89,g,true,787.9000000953674,1,r,,1,0,1,
c6y,RSVPtest,90,g,false,796.9000000953674,0,b,,3,3,0,
c6y,RSVPtest,91,g,true,683.5,1,r,,1,2,1,
c6y,RSVPtest,92,g,true,1006,2,g,,3,2,1,
c6y,RSVPtest,93,g,false,683.5999999046326,2,g,,2,0,1,
c6y,RSVPtest,94,g,true,755,1,r,,0,0,2,
c6y,RSVPtest,95,g,true,620.5999999046326,2,g,,3,0,1,
c6y,RSVPtest,96,g,true,757,1,r,,3,0,1,
c6y,RSVPtest,97,g,false,1157.9000000953674,0,b,,3,3,0,
c6y,RSVPtest,98,g,true,790,2,g,,3,1,1,
c6y,RSVPtest,99,g,false,899.8000001907349,0,b,,0,3,0,
c6y,RSVPtest,100,g,true,417.59999990463257,2,g,,0,0,2,
c6y,RSVPtest,101,g,true,884.7999997138977,2,g,,0,1,1,
c6y,RSVPtest,102,g,false,740.1000003814697,1,r,,2,1,1,
c6y,RSVPtest,103,g,true,515.5999999046326,1,r,,0,0,2,
c6y,RSVPtest,104,g,false,837.5999999046326,1,r,,2,0,1,
c6y,RSVPtest,105,g,true,838.6999998092651,0,b,,1,3,0,
c6y,RSVPtest,106,g,true,990.5,2,g,,3,2,1,
c6y,RSVPtest,107,g,true,547.7999997138977,1,r,,0,1,1,
c6y,RSVPtest,108,g,false,628.5999999046326,1,r,,1,1,2,
c6y,RSVPtest,109,g,true,868.5,0,b,,2,3,0,
c6y,RSVPtest,110,g,false,963.9000000953674,1,r,,3,2,1,
c6y,RSVPtest,111,g,false,787.0999999046326,2,g,,1,0,1,
c6y,RSVPtest,112,g,true,685.5,0,b,,0,3,0,
c6y,RSVPtest,113,g,true,674.9000000953674,2,g,,3,2,1,
c6y,RSVPtest,114,g,true,746.8000001907349,2,g,,1,1,2,
c6y,RSVPtest,115,g,false,730.3000001907349,1,r,,0,1,1,
c6y,RSVPtest,116,g,true,995.3000001907349,2,g,,1,0,1,
c6y,RSVPtest,117,g,true,746.0999999046326,0,b,,2,3,0,
c6y,RSVPtest,118,g,true,806.2000002861023,1,r,,0,0,2,
c6y,RSVPtest,119,g,true,562.5,0,b,,3,3,0,
c6y,RSVPtest,120,g,true,732.4000000953674,2,g,,3,0,1,
brk,brk,brk,brk,brk,brk,brk,brk,brk,brk,brk,brk,
c6y,RSVPtest,121,g,false,652.2000002861023,1,r,,3,2,1,
c6y,RSVPtest,122,g,true,1300.2999997138977,0,b,,3,3,0,
c6y,RSVPtest,123,g,true,925.8000001907349,2,g,,2,2,2,
c6y,RSVPtest,124,g,true,715.7999997138977,1,r,,0,0,2,
c6y,RSVPtest,125,g,true,724,0,b,,1,3,0,
c6y,RSVPtest,126,g,true,856.4000000953674,2,g,,1,2,1,
c6y,RSVPtest,127,g,true,610.2000002861023,1,r,,0,2,1,
c6y,RSVPtest,128,g,true,596,2,g,,2,1,1,
c6y,RSVPtest,129,g,false,637,1,r,,3,2,1,
c6y,RSVPtest,130,g,true,793.6999998092651,1,r,,3,0,1,
c6y,RSVPtest,131,g,true,868.4000000953674,0,b,,2,3,0,
c6y,RSVPtest,132,g,false,901.4000000953674,2,g,,2,0,1,
c6y,RSVPtest,133,g,true,1083.4000000953674,2,g,,0,1,1,
c6y,RSVPtest,134,g,false,1051.1999998092651,0,b,,0,3,0,
c6y,RSVPtest,135,g,true,858.8000001907349,0,b,,3,3,0,
c6y,RSVPtest,136,g,true,573.3999996185303,1,r,,1,2,1,
c6y,RSVPtest,137,g,false,818.5999999046326,1,r,,3,1,1,
c6y,RSVPtest,138,g,true,899.5,0,b,,0,3,0,
c6y,RSVPtest,139,g,true,811.0999999046326,0,b,,1,3,0,
c6y,RSVPtest,140,g,true,786.7999997138977,2,g,,3,0,1,
c6y,RSVPtest,141,g,true,1426.5999999046326,1,r,,3,1,1,
c6y,RSVPtest,142,g,true,937.8000001907349,1,r,,1,0,1,
c6y,RSVPtest,143,g,true,837.0999999046326,1,r,,2,1,1,
c6y,RSVPtest,144,g,true,1230.4000000953674,1,r,,3,1,1,
c6y,RSVPtest,145,g,false,906.9000000953674,1,r,,0,2,1,
c6y,RSVPtest,146,g,false,860.7999997138977,1,r,,3,0,1,
c6y,RSVPtest,147,g,true,882.5,2,g,,3,1,1,
c6y,RSVPtest,148,g,true,1441.4000000953674,0,b,,2,3,0,
c6y,RSVPtest,149,g,true,627.5,1,r,,2,0,1,
c6y,RSVPtest,150,g,false,668.4000000953674,2,g,,2,0,1,
c6y,RSVPtest,151,g,true,1141.3000001907349,1,r,,3,1,1,
c6y,RSVPtest,152,g,false,803.6999998092651,0,b,,0,3,0,
c6y,RSVPtest,153,g,true,703.9000000953674,1,r,,3,1,1,
c6y,RSVPtest,154,g,false,2020.0999999046326,1,r,,3,1,1,
c6y,RSVPtest,155,g,true,531.3000001907349,2,g,,2,2,2,
c6y,RSVPtest,156,g,true,936.5999999046326,2,g,,2,0,1,
c6y,RSVPtest,157,g,true,842.9000000953674,2,g,,1,2,1,
c6y,RSVPtest,158,g,true,548.5999999046326,2,g,,1,2,1,
c6y,RSVPtest,159,g,true,627.7000002861023,2,g,,0,0,2,
c6y,RSVPtest,160,g,true,690.7999997138977,2,g,,0,0,2,
c6y,RSVPtest,161,g,false,546.5,0,b,,3,3,0,
c6y,RSVPtest,162,g,false,858.7999997138977,1,r,,0,1,1,
c6y,RSVPtest,163,g,true,890.5999999046326,2,g,,2,1,1,
c6y,RSVPtest,164,g,true,755.2999997138977,2,g,,3,0,1,
c6y,RSVPtest,165,g,true,1219.8000001907349,0,b,,3,3,0,
c6y,RSVPtest,166,g,false,946.8999996185303,1,r,,1,2,1,
c6y,RSVPtest,167,g,true,1029,2,g,,3,0,1,
c6y,RSVPtest,168,g,true,1402.3000001907349,1,r,,1,1,2,
c6y,RSVPtest,169,g,false,508.80000019073486,0,b,,2,3,0,
c6y,RSVPtest,170,g,false,835.9000000953674,1,r,,3,0,1,
c6y,RSVPtest,171,g,false,795.2000002861023,2,g,,0,1,1,
c6y,RSVPtest,172,g,true,467.8999996185303,2,g,,1,1,2,
c6y,RSVPtest,173,g,true,708.3000001907349,0,b,,3,3,0,
c6y,RSVPtest,174,g,true,714.5,1,r,,2,1,1,
c6y,RSVPtest,175,g,false,724.2000002861023,1,r,,1,2,1,
c6y,RSVPtest,176,g,true,779.6999998092651,2,g,,3,1,1,
c6y,RSVPtest,177,g,true,921.5,2,g,,0,2,1,
c6y,RSVPtest,178,g,true,742.4000000953674,2,g,,0,1,1,
c6y,RSVPtest,179,g,false,553.8000001907349,1,r,,2,1,1,
c6y,RSVPtest,180,g,true,1020.5999999046326,1,r,,3,0,1,
brk,brk,brk,brk,brk,brk,brk,brk,brk,brk,brk,brk,
c6y,RSVPtest,181,g,false,1133.9000000953674,2,g,,3,1,1,
c6y,RSVPtest,182,g,true,738.0999999046326,0,b,,1,3,0,
c6y,RSVPtest,183,g,true,681.8000001907349,2,g,,3,1,1,
c6y,RSVPtest,184,g,true,348.69999980926514,2,g,,0,0,2,
c6y,RSVPtest,185,g,true,387.40000009536743,0,b,,1,3,0,
c6y,RSVPtest,186,g,false,804.0999999046326,1,r,,1,2,1,
c6y,RSVPtest,187,g,false,595.4000000953674,0,b,,3,3,0,
c6y,RSVPtest,188,g,false,714.5,1,r,,0,2,1,
c6y,RSVPtest,189,g,false,754.5,0,b,,3,3,0,
c6y,RSVPtest,190,g,false,1010.2999997138977,0,b,,3,3,0,
c6y,RSVPtest,191,g,true,779,1,r,,3,0,1,
c6y,RSVPtest,192,g,true,610.1999998092651,1,r,,3,0,1,
c6y,RSVPtest,193,g,true,667.3000001907349,2,g,,3,0,1,
c6y,RSVPtest,194,g,false,818.5,1,r,,0,0,2,
c6y,RSVPtest,195,g,true,706.4000000953674,2,g,,3,1,1,
c6y,RSVPtest,196,g,true,681,1,r,,3,0,1,
c6y,RSVPtest,197,g,false,721.9000000953674,1,r,,0,2,1,
c6y,RSVPtest,198,g,true,706.2000002861023,0,b,,3,3,0,
c6y,RSVPtest,199,g,false,851.6999998092651,1,r,,3,2,1,
c6y,RSVPtest,200,g,false,746,2,g,,2,0,1,
c6y,RSVPtest,201,g,false,964.9000000953674,0,b,,3,3,0,
c6y,RSVPtest,202,g,true,609.0999999046326,2,g,,3,2,1,
c6y,RSVPtest,203,g,false,818.1999998092651,2,g,,1,1,2,
c6y,RSVPtest,204,g,true,716.8999996185303,2,g,,3,0,1,
c6y,RSVPtest,205,g,false,1601.5,1,r,,3,0,1,
c6y,RSVPtest,206,g,true,952.5999999046326,1,r,,2,2,2,
c6y,RSVPtest,207,g,true,884.9000000953674,2,g,,2,1,1,
c6y,RSVPtest,208,g,true,873.1999998092651,0,b,,1,3,0,
c6y,RSVPtest,209,g,false,1043.3000001907349,1,r,,1,1,2,
c6y,RSVPtest,210,g,true,1961.0999999046326,0,b,,3,3,0,
c6y,RSVPtest,211,g,true,1617.2000002861023,1,r,,2,2,2,
c6y,RSVPtest,212,g,false,546.4000000953674,1,r,,2,0,1,
c6y,RSVPtest,213,g,true,866.5999999046326,2,g,,3,2,1,
c6y,RSVPtest,214,g,true,696.5999999046326,1,r,,3,2,1,
c6y,RSVPtest,215,g,true,413.09999990463257,2,g,,3,0,1,
c6y,RSVPtest,216,g,false,850.4000000953674,2,g,,0,2,1,
c6y,RSVPtest,217,g,true,690.3000001907349,0,b,,3,3,0,
c6y,RSVPtest,218,g,true,891.5,0,b,,2,3,0,
c6y,RSVPtest,219,g,true,1097.9000000953674,2,g,,1,2,1,
c6y,RSVPtest,220,g,true,915,1,r,,3,2,1,
c6y,RSVPtest,221,g,true,714.5999999046326,1,r,,2,0,1,
c6y,RSVPtest,222,g,false,1017.3000001907349,2,g,,3,1,1,
c6y,RSVPtest,223,g,false,792.8000001907349,0,b,,0,3,0,
c6y,RSVPtest,224,g,true,1112.9000000953674,1,r,,3,1,1,
c6y,RSVPtest,225,g,true,792.1999998092651,1,r,,0,0,2,
c6y,RSVPtest,226,g,false,777.8000001907349,2,g,,1,0,1,
c6y,RSVPtest,227,g,false,739.8000001907349,0,b,,3,3,0,
c6y,RSVPtest,228,g,false,1175.6999998092651,2,g,,1,0,1,
c6y,RSVPtest,229,g,true,587,1,r,,3,1,1,
c6y,RSVPtest,230,g,false,808.1999998092651,2,g,,2,0,1,
c6y,RSVPtest,231,g,false,705.7000002861023,1,r,,2,0,1,
c6y,RSVPtest,232,g,false,590.9000000953674,1,r,,2,0,1,
c6y,RSVPtest,233,g,false,467.6000003814697,1,r,,3,1,1,
c6y,RSVPtest,234,g,false,802.5,1,r,,0,1,1,
c6y,RSVPtest,235,g,false,1081.8000001907349,0,b,,0,3,0,
c6y,RSVPtest,236,g,true,704.9000000953674,0,b,,1,3,0,
c6y,RSVPtest,237,g,false,896.8000001907349,2,g,,3,1,1,
c6y,RSVPtest,238,g,true,488,2,g,,3,2,1,
c6y,RSVPtest,239,g,false,661.0999999046326,2,g,,3,1,1,
c6y,RSVPtest,240,g,true,516.5999999046326,0,b,,3,3,0,
