subID,trialType,trialNum,cntBalance,correct,rt,rwdType,tgtCol,tgtDir,tgtPos,colPos,colMatch,
k28,VDACtrain,0,r,null,null,2,r,h,1,,,
k28,VDACtrain,0,r,null,null,2,r,v,3,,,
k28,VDACtrain,0,r,null,null,1,g,h,3,,,
k28,VDACtrain,0,r,null,null,2,r,v,4,,,
k28,VDACtrain,0,r,null,null,1,g,v,2,,,
k28,VDACtrain,0,r,null,null,1,g,h,5,,,
k28,VDACtrain,0,r,true,785.7999999970198,1,g,v,0,,,
k28,VDACtrain,0,r,null,null,2,r,h,2,,,
k28,VDACtrain,0,r,true,677.9000000059605,1,g,v,5,,,
k28,VDACtrain,0,r,true,666.3999999910593,2,r,h,0,,,
k28,VDACtrain,0,r,true,689.4000000059605,1,g,h,5,,,
k28,VDACtrain,0,r,false,570.6999999880791,2,r,h,1,,,
k28,VDACtrain,0,r,true,992.3000000119209,2,r,v,3,,,
k28,VDACtrain,0,r,true,720,2,r,h,0,,,
k28,VDACtrain,0,r,true,674.7999999970198,1,g,v,2,,,
k28,VDACtrain,0,r,true,617.7000000029802,2,r,h,2,,,
k28,VDACtrain,0,r,true,681.5,2,r,v,4,,,
k28,VDACtrain,0,r,true,650.5999999940395,1,g,v,0,,,
k28,VDACtrain,0,r,true,670.2999999970198,1,g,h,3,,,
k28,VDACtrain,0,r,true,625.5999999940395,1,g,v,5,,,
k28,VDACtest,1,r,true,660.8999999910593,2,r,v,3,,,
k28,VDACtest,2,r,true,641.4000000059605,2,r,h,0,,,
k28,VDACtest,3,r,true,761.2999999970198,1,g,v,5,,,
k28,VDACtest,4,r,true,641.4000000059605,2,r,v,3,,,
k28,VDACtest,5,r,true,778.3000000119209,2,r,h,1,,,
k28,VDACtest,6,r,true,689.1000000089407,2,r,v,5,,,
k28,VDACtest,7,r,true,481.29999999701977,2,r,v,5,,,
k28,VDACtest,8,r,true,736.8999999910593,1,g,h,2,,,
k28,VDACtest,9,r,true,473.69999998807907,2,r,v,4,,,
k28,VDACtest,10,r,null,null,1,g,h,0,,,
k28,VDACtest,11,r,true,547.2000000029802,2,r,v,5,,,
k28,VDACtest,12,r,true,666.5,1,g,v,4,,,
k28,VDACtest,13,r,true,905,2,r,h,4,,,
k28,VDACtest,14,r,false,609.3999999910593,2,r,v,1,,,
k28,VDACtest,15,r,true,545.7000000029802,2,r,v,3,,,
k28,VDACtest,16,r,true,851.0999999940395,1,g,h,3,,,
k28,VDACtest,17,r,true,634.3999999910593,1,g,h,4,,,
k28,VDACtest,18,r,true,532,1,g,v,1,,,
k28,VDACtest,19,r,true,482.29999999701977,1,g,v,2,,,
k28,VDACtest,20,r,true,658,2,r,v,1,,,
k28,VDACtest,21,r,true,770.3000000119209,1,g,v,2,,,
k28,VDACtest,22,r,true,674.5999999940395,1,g,v,1,,,
k28,VDACtest,23,r,true,779,2,r,h,4,,,
k28,VDACtest,24,r,false,549.0999999940395,2,r,v,4,,,
k28,VDACtest,25,r,true,714.2999999970198,1,g,v,0,,,
k28,VDACtest,26,r,true,556.7000000029802,2,r,v,0,,,
k28,VDACtest,27,r,false,650.2999999970198,1,g,v,3,,,
k28,VDACtest,28,r,true,650.5999999940395,1,g,v,2,,,
k28,VDACtest,29,r,true,553.7999999970198,2,r,v,3,,,
k28,VDACtest,30,r,true,571.5999999940395,1,g,v,5,,,
k28,VDACtest,31,r,true,563.2000000029802,1,g,h,2,,,
k28,VDACtest,32,r,true,571.7999999970198,2,r,v,1,,,
k28,VDACtest,33,r,true,610.8999999910593,2,r,h,1,,,
k28,VDACtest,34,r,true,594.9000000059605,2,r,v,2,,,
k28,VDACtest,35,r,true,603.7000000029802,1,g,h,1,,,
k28,VDACtest,36,r,true,538.5,1,g,v,1,,,
k28,VDACtest,37,r,true,588.4000000059605,1,g,h,2,,,
k28,VDACtest,38,r,true,641.8000000119209,2,r,h,5,,,
k28,VDACtest,39,r,true,522.5999999940395,2,r,h,0,,,
k28,VDACtest,40,r,true,610.2999999970198,2,r,v,2,,,
k28,VDACtest,41,r,true,483.20000000298023,2,r,v,2,,,
k28,VDACtest,42,r,true,536.5999999940395,2,r,v,4,,,
k28,VDACtest,43,r,true,802.3999999910593,2,r,v,1,,,
k28,VDACtest,44,r,true,563.7000000029802,2,r,h,3,,,
k28,VDACtest,45,r,true,833.8999999910593,1,g,h,0,,,
k28,VDACtest,46,r,true,538.9000000059605,2,r,v,0,,,
k28,VDACtest,47,r,true,492.09999999403954,1,g,v,0,,,
k28,VDACtest,48,r,true,457.70000000298023,2,r,h,2,,,
k28,VDACtest,49,r,true,706.7999999970198,2,r,h,1,,,
k28,VDACtest,50,r,false,475.20000000298023,1,g,h,1,,,
brk,brk,brk,brk,brk,brk,brk,brk,brk,brk,brk,brk,
k28,VDACtest,51,r,true,710.2999999970198,1,g,h,5,,,
k28,VDACtest,52,r,false,522.5999999940395,1,g,v,5,,,
k28,VDACtest,53,r,false,795.7999999970198,2,r,h,2,,,
k28,VDACtest,54,r,true,618.9000000059605,2,r,h,4,,,
k28,VDACtest,55,r,true,555.1000000089407,1,g,v,3,,,
k28,VDACtest,56,r,true,555.7999999970198,1,g,v,0,,,
k28,VDACtest,57,r,true,627,1,g,h,4,,,
k28,VDACtest,58,r,true,665.6999999880791,1,g,v,1,,,
k28,VDACtest,59,r,true,802,2,r,v,5,,,
k28,VDACtest,60,r,true,890.1000000089407,1,g,h,1,,,
k28,VDACtest,61,r,true,569.5,2,r,h,3,,,
k28,VDACtest,62,r,true,659.8999999910593,2,r,h,4,,,
k28,VDACtest,63,r,null,null,1,g,v,2,,,
k28,VDACtest,64,r,null,null,2,r,h,2,,,
k28,VDACtest,65,r,true,510.09999999403954,1,g,h,4,,,
k28,VDACtest,66,r,true,546.7999999970198,1,g,h,1,,,
k28,VDACtest,67,r,true,586.5,2,r,h,2,,,
k28,VDACtest,68,r,true,466.1000000089407,2,r,v,4,,,
k28,VDACtest,69,r,true,466.1000000089407,1,g,h,4,,,
k28,VDACtest,70,r,true,602.1999999880791,1,g,h,5,,,
k28,VDACtest,71,r,true,570.7000000029802,1,g,h,0,,,
k28,VDACtest,72,r,true,499,1,g,h,3,,,
k28,VDACtest,73,r,null,null,2,r,h,5,,,
k28,VDACtest,74,r,false,548.3000000119209,2,r,v,3,,,
k28,VDACtest,75,r,null,null,1,g,h,2,,,
k28,VDACtest,76,r,true,757.5,1,g,h,5,,,
k28,VDACtest,77,r,true,816.9000000059605,2,r,v,1,,,
k28,VDACtest,78,r,true,512.6000000089407,2,r,v,4,,,
k28,VDACtest,79,r,true,738.2999999970198,1,g,v,4,,,
k28,VDACtest,80,r,true,730.3999999910593,2,r,h,0,,,
k28,VDACtest,81,r,true,434.29999999701977,2,r,h,5,,,
k28,VDACtest,82,r,true,619.1999999880791,1,g,v,4,,,
k28,VDACtest,83,r,true,554.7999999970198,2,r,h,5,,,
k28,VDACtest,84,r,true,754.0999999940395,1,g,h,3,,,
k28,VDACtest,85,r,true,588.2999999970198,1,g,v,3,,,
k28,VDACtest,86,r,true,738.5999999940395,2,r,h,0,,,
k28,VDACtest,87,r,false,602,2,r,h,1,,,
k28,VDACtest,88,r,true,625.3000000119209,2,r,h,2,,,
k28,VDACtest,89,r,true,593.2000000029802,2,r,h,0,,,
k28,VDACtest,90,r,true,570.1999999880791,2,r,v,0,,,
k28,VDACtest,91,r,false,647.7000000029802,2,r,h,2,,,
k28,VDACtest,92,r,true,506.8999999910593,2,r,h,3,,,
k28,VDACtest,93,r,null,null,1,g,v,5,,,
k28,VDACtest,94,r,true,492.79999999701977,1,g,h,4,,,
k28,VDACtest,95,r,true,546.7000000029802,1,g,h,1,,,
k28,VDACtest,96,r,true,391.09999999403954,1,g,h,2,,,
k28,VDACtest,97,r,true,569.0999999940395,1,g,h,5,,,
k28,VDACtest,98,r,true,843.7999999970198,2,r,v,4,,,
k28,VDACtest,99,r,true,562.0999999940395,1,g,v,1,,,
k28,VDACtest,100,r,true,512.7000000029802,2,r,h,5,,,
brk,brk,brk,brk,brk,brk,brk,brk,brk,brk,brk,brk,
k28,VDACtest,101,r,true,672,1,g,v,1,,,
k28,VDACtest,102,r,true,554.7999999970198,2,r,h,1,,,
k28,VDACtest,103,r,true,842.9000000059605,1,g,h,3,,,
k28,VDACtest,104,r,false,744.4000000059605,1,g,h,5,,,
k28,VDACtest,105,r,true,858.6999999880791,2,r,v,2,,,
k28,VDACtest,106,r,true,570.2000000029802,2,r,v,3,,,
k28,VDACtest,107,r,true,546.7999999970198,2,r,h,2,,,
k28,VDACtest,108,r,true,506.19999998807907,2,r,v,4,,,
k28,VDACtest,109,r,true,392.90000000596046,2,r,v,4,,,
k28,VDACtest,110,r,true,642.8999999910593,2,r,v,0,,,
k28,VDACtest,111,r,true,466.29999999701977,1,g,v,0,,,
k28,VDACtest,112,r,true,434.5,2,r,v,2,,,
k28,VDACtest,113,r,true,641.9000000059605,1,g,v,5,,,
k28,VDACtest,114,r,true,674.1999999880791,2,r,h,3,,,
k28,VDACtest,115,r,true,610.9000000059605,1,g,v,3,,,
k28,VDACtest,116,r,true,555.6000000089407,1,g,h,4,,,
k28,VDACtest,117,r,true,467.40000000596046,1,g,h,1,,,
k28,VDACtest,118,r,true,593.9000000059605,2,r,v,3,,,
k28,VDACtest,119,r,true,641.2000000029802,2,r,v,1,,,
k28,VDACtest,120,r,true,499.40000000596046,1,g,h,1,,,
k28,VDACtest,121,r,true,466.1000000089407,1,g,h,5,,,
k28,VDACtest,122,r,true,490.70000000298023,1,g,v,1,,,
k28,VDACtest,123,r,true,539.6000000089407,2,r,v,2,,,
k28,VDACtest,124,r,true,514.2000000029802,2,r,h,1,,,
k28,VDACtest,125,r,true,634.5999999940395,1,g,h,2,,,
k28,VDACtest,126,r,true,521.3999999910593,1,g,h,3,,,
k28,VDACtest,127,r,true,514.7000000029802,1,g,v,0,,,
k28,VDACtest,128,r,false,395.09999999403954,1,g,h,0,,,
k28,VDACtest,129,r,true,649.7000000029802,2,r,h,5,,,
k28,VDACtest,130,r,true,538.5999999940395,1,g,v,1,,,
k28,VDACtest,131,r,true,578,2,r,h,4,,,
k28,VDACtest,132,r,true,441.20000000298023,1,g,h,1,,,
k28,VDACtest,133,r,true,577.3999999910593,1,g,h,0,,,
k28,VDACtest,134,r,true,522.5,1,g,h,4,,,
k28,VDACtest,135,r,true,690.5,2,r,h,1,,,
k28,VDACtest,136,r,true,609.1000000089407,2,r,h,5,,,
k28,VDACtest,137,r,true,469.09999999403954,2,r,h,0,,,
k28,VDACtest,138,r,true,531,2,r,v,1,,,
k28,VDACtest,139,r,false,369.5,1,g,v,3,,,
k28,VDACtest,140,r,true,482.80000001192093,1,g,h,4,,,
k28,VDACtest,141,r,true,626.3999999910593,1,g,h,1,,,
k28,VDACtest,142,r,true,475,1,g,v,5,,,
k28,VDACtest,143,r,false,433.6000000089407,1,g,v,2,,,
k28,VDACtest,144,r,false,865.2999999970198,2,r,h,5,,,
k28,VDACtest,145,r,true,466.5,1,g,v,4,,,
k28,VDACtest,146,r,true,497.3999999910593,2,r,v,5,,,
k28,VDACtest,147,r,true,482.09999999403954,2,r,v,3,,,
k28,VDACtest,148,r,true,457,2,r,h,3,,,
k28,VDACtest,149,r,true,491,2,r,v,1,,,
k28,VDACtest,150,r,true,584.9000000059605,1,g,v,0,,,
brk,brk,brk,brk,brk,brk,brk,brk,brk,brk,brk,brk,
k28,VDACtest,151,r,null,null,2,r,h,4,,,
k28,VDACtest,152,r,true,457.09999999403954,1,g,v,3,,,
k28,VDACtest,153,r,false,512.6000000089407,2,r,v,2,,,
k28,VDACtest,154,r,true,561.9000000059605,1,g,h,3,,,
k28,VDACtest,155,r,true,433.1000000089407,2,r,v,0,,,
k28,VDACtest,156,r,true,386.59999999403954,2,r,v,0,,,
k28,VDACtest,157,r,true,569,1,g,v,3,,,
k28,VDACtest,158,r,true,521.3999999910593,1,g,h,4,,,
k28,VDACtest,159,r,true,754.5,2,r,h,3,,,
k28,VDACtest,160,r,true,714.6000000089407,2,r,v,2,,,
k28,VDACtest,161,r,true,577.1000000089407,2,r,h,1,,,
k28,VDACtest,162,r,true,833.0999999940395,2,r,v,0,,,
k28,VDACtest,163,r,true,592.2999999970198,2,r,v,1,,,
k28,VDACtest,164,r,true,473.29999999701977,2,r,v,0,,,
k28,VDACtest,165,r,true,449.3999999910593,2,r,h,4,,,
k28,VDACtest,166,r,true,505,1,g,v,5,,,
k28,VDACtest,167,r,true,482.29999999701977,1,g,h,3,,,
k28,VDACtest,168,r,false,553.4000000059605,1,g,h,5,,,
k28,VDACtest,169,r,true,474.1000000089407,1,g,v,4,,,
k28,VDACtest,170,r,true,521.5999999940395,1,g,h,0,,,
k28,VDACtest,171,r,true,411.40000000596046,2,r,v,5,,,
k28,VDACtest,172,r,true,737,1,g,v,1,,,
k28,VDACtest,173,r,true,431.6000000089407,1,g,v,4,,,
k28,VDACtest,174,r,true,425.29999999701977,1,g,v,0,,,
k28,VDACtest,175,r,true,497.5,2,r,h,4,,,
k28,VDACtest,176,r,true,617.9000000059605,1,g,v,3,,,
k28,VDACtest,177,r,false,721.2000000029802,2,r,h,3,,,
k28,VDACtest,178,r,true,697.0999999940395,1,g,v,0,,,
k28,VDACtest,179,r,true,489.70000000298023,1,g,h,2,,,
k28,VDACtest,180,r,true,665.0999999940395,1,g,v,4,,,
k28,VDACtest,181,r,true,400.40000000596046,1,g,v,4,,,
k28,VDACtest,182,r,true,703.7999999970198,2,r,h,2,,,
k28,VDACtest,183,r,true,425.59999999403954,2,r,v,5,,,
k28,VDACtest,184,r,true,522.4000000059605,1,g,v,2,,,
k28,VDACtest,185,r,true,441.70000000298023,1,g,v,2,,,
k28,VDACtest,186,r,true,543.7999999970198,1,g,h,2,,,
k28,VDACtest,187,r,false,482.20000000298023,1,g,h,5,,,
k28,VDACtest,188,r,null,null,2,r,h,0,,,
k28,VDACtest,189,r,true,421.20000000298023,2,r,h,0,,,
k28,VDACtest,190,r,true,609.8000000119209,2,r,h,4,,,
k28,VDACtest,191,r,false,585.7999999970198,1,g,h,0,,,
k28,VDACtest,192,r,true,521.4000000059605,1,g,v,4,,,
k28,VDACtest,193,r,true,546.7000000029802,2,r,h,1,,,
k28,VDACtest,194,r,true,401.1000000089407,2,r,v,4,,,
k28,VDACtest,195,r,true,394.6000000089407,2,r,h,3,,,
k28,VDACtest,196,r,true,490.70000000298023,1,g,h,3,,,
k28,VDACtest,197,r,true,904.5,1,g,v,2,,,
k28,VDACtest,198,r,true,530.2999999970198,1,g,v,5,,,
k28,VDACtest,199,r,true,586.7999999970198,2,r,v,5,,,
k28,VDACtest,200,r,true,497.3999999910593,1,g,h,0,,,
k28,RSVPtrain,0,r,null,null,0,b,,1,3,0,
k28,RSVPtrain,0,r,false,1015.8999999910593,1,g,,2,2,2,
k28,RSVPtrain,0,r,true,868.6999999880791,2,r,,3,2,1,
k28,RSVPtrain,0,r,true,763.6000000089407,1,g,,3,0,1,
k28,RSVPtrain,0,r,true,750.5999999940395,2,r,,0,0,2,
k28,RSVPtrain,0,r,true,909.2999999970198,0,b,,0,3,0,
k28,RSVPtrain,0,r,true,1028.699999988079,0,b,,3,3,0,
k28,RSVPtrain,0,r,true,1316.5999999940395,2,r,,1,1,2,
k28,RSVPtrain,0,r,false,1379.800000011921,1,g,,1,0,1,
k28,RSVPtrain,0,r,false,1357.6000000089407,1,g,,3,1,1,
k28,RSVPtest,1,r,true,1032.1000000089407,1,g,,3,0,1,
k28,RSVPtest,2,r,true,1461.9000000059605,0,b,,3,3,0,
k28,RSVPtest,3,r,true,1036.7999999970198,2,r,,1,1,2,
k28,RSVPtest,4,r,true,1188.3999999910593,1,g,,3,1,1,
k28,RSVPtest,5,r,false,1406.4000000059605,2,r,,1,2,1,
k28,RSVPtest,6,r,false,1397.4000000059605,2,r,,0,0,2,
k28,RSVPtest,7,r,true,974.5999999940395,1,g,,3,2,1,
k28,RSVPtest,8,r,true,652.7999999970198,2,r,,3,0,1,
k28,RSVPtest,9,r,true,738.9000000059605,1,g,,3,0,1,
k28,RSVPtest,10,r,true,1059.8999999910593,0,b,,3,3,0,
k28,RSVPtest,11,r,true,740.2000000029802,1,g,,2,2,2,
k28,RSVPtest,12,r,true,906.0999999940395,2,r,,3,0,1,
k28,RSVPtest,13,r,true,707.9000000059605,2,r,,3,2,1,
k28,RSVPtest,14,r,false,779.5999999940395,0,b,,3,3,0,
k28,RSVPtest,15,r,false,877.9000000059605,2,r,,0,1,1,
k28,RSVPtest,16,r,false,699.2000000029802,1,g,,0,0,2,
k28,RSVPtest,17,r,true,699.7999999970198,2,r,,3,1,1,
k28,RSVPtest,18,r,true,749.2000000029802,2,r,,3,0,1,
k28,RSVPtest,19,r,true,555.7999999970198,1,g,,0,1,1,
k28,RSVPtest,20,r,false,882.8999999910593,2,r,,2,2,2,
k28,RSVPtest,21,r,true,797,2,r,,3,2,1,
k28,RSVPtest,22,r,false,795.7000000029802,1,g,,0,2,1,
k28,RSVPtest,23,r,true,962.6999999880791,1,g,,1,1,2,
k28,RSVPtest,24,r,true,819,0,b,,2,3,0,
k28,RSVPtest,25,r,true,698.4000000059605,0,b,,0,3,0,
k28,RSVPtest,26,r,true,580.5,0,b,,3,3,0,
k28,RSVPtest,27,r,true,740.0999999940395,0,b,,2,3,0,
k28,RSVPtest,28,r,true,1129.1000000089407,1,g,,2,0,1,
k28,RSVPtest,29,r,false,570.2000000029802,1,g,,0,0,2,
k28,RSVPtest,30,r,true,1250.5999999940395,0,b,,2,3,0,
k28,RSVPtest,31,r,true,580.8000000119209,2,r,,3,0,1,
k28,RSVPtest,32,r,true,546.7999999970198,1,g,,3,1,1,
k28,RSVPtest,33,r,true,1196,2,r,,2,0,1,
k28,RSVPtest,34,r,true,786.7000000029802,2,r,,0,2,1,
k28,RSVPtest,35,r,true,748.8999999910593,2,r,,3,1,1,
k28,RSVPtest,36,r,true,1268.7999999970198,1,g,,1,0,1,
k28,RSVPtest,37,r,true,1284.5,0,b,,0,3,0,
k28,RSVPtest,38,r,true,933.4000000059605,2,r,,0,1,1,
k28,RSVPtest,39,r,true,659.7999999970198,1,g,,1,2,1,
k28,RSVPtest,40,r,true,902.8000000119209,2,r,,2,1,1,
k28,RSVPtest,41,r,true,849.1000000089407,0,b,,3,3,0,
k28,RSVPtest,42,r,false,818.9000000059605,0,b,,1,3,0,
k28,RSVPtest,43,r,true,580,0,b,,1,3,0,
k28,RSVPtest,44,r,true,868.7999999970198,2,r,,3,2,1,
k28,RSVPtest,45,r,true,802.8999999910593,0,b,,1,3,0,
k28,RSVPtest,46,r,true,724.8000000119209,0,b,,3,3,0,
k28,RSVPtest,47,r,false,1395.199999988079,0,b,,0,3,0,
k28,RSVPtest,48,r,true,1210.2000000029802,1,g,,3,0,1,
k28,RSVPtest,49,r,false,601.5999999940395,0,b,,1,3,0,
k28,RSVPtest,50,r,true,954.7000000029802,0,b,,0,3,0,
k28,RSVPtest,51,r,false,729.7999999970198,0,b,,2,3,0,
k28,RSVPtest,52,r,true,1131.2999999970198,2,r,,3,2,1,
k28,RSVPtest,53,r,false,683.9000000059605,2,r,,3,0,1,
k28,RSVPtest,54,r,true,1076.4000000059605,0,b,,3,3,0,
k28,RSVPtest,55,r,false,477.5,0,b,,1,3,0,
k28,RSVPtest,56,r,true,628.1999999880791,1,g,,2,0,1,
k28,RSVPtest,57,r,true,820.0999999940395,1,g,,3,2,1,
k28,RSVPtest,58,r,true,786.7000000029802,1,g,,3,2,1,
k28,RSVPtest,59,r,true,733.2999999970198,0,b,,3,3,0,
k28,RSVPtest,60,r,true,800.7000000029802,2,r,,3,1,1,
brk,brk,brk,brk,brk,brk,brk,brk,brk,brk,brk,brk,
k28,RSVPtest,61,r,true,599.5,2,r,,3,0,1,
k28,RSVPtest,62,r,true,677.5999999940395,1,g,,3,2,1,
k28,RSVPtest,63,r,true,682.2000000029802,2,r,,3,0,1,
k28,RSVPtest,64,r,false,1018.9000000059605,1,g,,2,0,1,
k28,RSVPtest,65,r,true,548.2999999970198,0,b,,3,3,0,
k28,RSVPtest,66,r,true,827.6000000089407,1,g,,0,1,1,
k28,RSVPtest,67,r,true,851.2999999970198,0,b,,3,3,0,
k28,RSVPtest,68,r,false,753.8999999910593,1,g,,3,0,1,
k28,RSVPtest,69,r,true,756.4000000059605,0,b,,1,3,0,
k28,RSVPtest,70,r,true,731.5,1,g,,3,0,1,
k28,RSVPtest,71,r,true,499.70000000298023,2,r,,2,0,1,
k28,RSVPtest,72,r,false,1107.9000000059605,2,r,,0,0,2,
k28,RSVPtest,73,r,false,691.7999999970198,2,r,,2,1,1,
k28,RSVPtest,74,r,true,628.0999999940395,2,r,,3,2,1,
k28,RSVPtest,75,r,true,611.5,1,g,,3,1,1,
k28,RSVPtest,76,r,false,736.5,2,r,,2,0,1,
k28,RSVPtest,77,r,true,1188,2,r,,3,2,1,
k28,RSVPtest,78,r,true,812,2,r,,1,2,1,
k28,RSVPtest,79,r,false,820.1999999880791,1,g,,2,2,2,
k28,RSVPtest,80,r,true,1178.5999999940395,0,b,,0,3,0,
k28,RSVPtest,81,r,null,null,0,b,,3,3,0,
k28,RSVPtest,82,r,true,935.5999999940395,2,r,,0,1,1,
k28,RSVPtest,83,r,true,730.7999999970198,0,b,,0,3,0,
k28,RSVPtest,84,r,false,667.7000000029802,2,r,,3,2,1,
k28,RSVPtest,85,r,true,626.7999999970198,2,r,,3,2,1,
k28,RSVPtest,86,r,true,586.7000000029802,1,g,,3,1,1,
k28,RSVPtest,87,r,false,683.2999999970198,2,r,,2,2,2,
k28,RSVPtest,88,r,true,556.2000000029802,0,b,,1,3,0,
k28,RSVPtest,89,r,true,739.1999999880791,1,g,,2,1,1,
k28,RSVPtest,90,r,true,873.3999999910593,2,r,,3,1,1,
k28,RSVPtest,91,r,true,835.1999999880791,2,r,,2,1,1,
k28,RSVPtest,92,r,false,787.3999999910593,0,b,,0,3,0,
k28,RSVPtest,93,r,true,889.9000000059605,1,g,,3,0,1,
k28,RSVPtest,94,r,false,489.8999999910593,2,r,,2,2,2,
k28,RSVPtest,95,r,true,931.6000000089407,0,b,,2,3,0,
k28,RSVPtest,96,r,false,844.7000000029802,1,g,,1,0,1,
k28,RSVPtest,97,r,true,741.2999999970198,2,r,,0,2,1,
k28,RSVPtest,98,r,false,1115.2000000029802,1,g,,3,0,1,
k28,RSVPtest,99,r,true,779.7000000029802,1,g,,0,0,2,
k28,RSVPtest,100,r,true,955.5,1,g,,3,1,1,
k28,RSVPtest,101,r,true,843.3000000119209,2,r,,3,2,1,
k28,RSVPtest,102,r,true,1011.5,1,g,,3,1,1,
k28,RSVPtest,103,r,true,1401.300000011921,1,g,,0,1,1,
k28,RSVPtest,104,r,false,2082.7000000029802,2,r,,3,1,1,
k28,RSVPtest,105,r,true,962.5,1,g,,1,1,2,
k28,RSVPtest,106,r,false,699.7000000029802,1,g,,0,2,1,
k28,RSVPtest,107,r,false,714.9000000059605,1,g,,0,1,1,
k28,RSVPtest,108,r,true,442.8999999910593,0,b,,1,3,0,
k28,RSVPtest,109,r,true,906.7000000029802,1,g,,2,1,1,
k28,RSVPtest,110,r,true,690.3000000119209,2,r,,3,1,1,
k28,RSVPtest,111,r,true,827.2999999970198,2,r,,2,1,1,
k28,RSVPtest,112,r,false,874.5999999940395,1,g,,1,1,2,
k28,RSVPtest,113,r,true,795.4000000059605,2,r,,3,1,1,
k28,RSVPtest,114,r,true,810.8999999910593,2,r,,2,2,2,
k28,RSVPtest,115,r,true,729,1,g,,3,2,1,
k28,RSVPtest,116,r,false,937.7999999970198,2,r,,1,1,2,
k28,RSVPtest,117,r,false,1481.300000011921,1,g,,1,1,2,
k28,RSVPtest,118,r,true,532.5999999940395,2,r,,0,0,2,
k28,RSVPtest,119,r,true,860.3000000119209,2,r,,3,1,1,
k28,RSVPtest,120,r,true,755.8999999910593,2,r,,1,1,2,
brk,brk,brk,brk,brk,brk,brk,brk,brk,brk,brk,brk,
k28,RSVPtest,121,r,false,1102.5,0,b,,0,3,0,
k28,RSVPtest,122,r,true,683.0999999940395,2,r,,1,2,1,
k28,RSVPtest,123,r,false,1107.4000000059605,1,g,,0,0,2,
k28,RSVPtest,124,r,true,939.4000000059605,2,r,,2,0,1,
k28,RSVPtest,125,r,true,625.5999999940395,2,r,,0,0,2,
k28,RSVPtest,126,r,true,580.2000000029802,2,r,,3,1,1,
k28,RSVPtest,127,r,true,697.9000000059605,0,b,,3,3,0,
k28,RSVPtest,128,r,true,745.7000000029802,0,b,,3,3,0,
k28,RSVPtest,129,r,true,499,1,g,,2,2,2,
k28,RSVPtest,130,r,true,835.0999999940395,1,g,,3,1,1,
k28,RSVPtest,131,r,true,834.4000000059605,2,r,,1,0,1,
k28,RSVPtest,132,r,false,618.5,2,r,,0,1,1,
k28,RSVPtest,133,r,true,594.5,1,g,,1,0,1,
k28,RSVPtest,134,r,true,778,2,r,,0,1,1,
k28,RSVPtest,135,r,true,785.7000000029802,2,r,,2,2,2,
k28,RSVPtest,136,r,true,528.7000000029802,2,r,,1,2,1,
k28,RSVPtest,137,r,true,635,1,g,,3,1,1,
k28,RSVPtest,138,r,true,1370.0999999940395,2,r,,0,2,1,
k28,RSVPtest,139,r,true,1027.3999999910593,2,r,,1,0,1,
k28,RSVPtest,140,r,true,617.2000000029802,2,r,,1,1,2,
k28,RSVPtest,141,r,true,563.3000000119209,2,r,,3,1,1,
k28,RSVPtest,142,r,true,947,0,b,,2,3,0,
k28,RSVPtest,143,r,false,832.9000000059605,1,g,,3,2,1,
k28,RSVPtest,144,r,true,753.7999999970198,2,r,,3,0,1,
k28,RSVPtest,145,r,false,577.2000000029802,1,g,,3,1,1,
k28,RSVPtest,146,r,true,1217.5,1,g,,2,2,2,
k28,RSVPtest,147,r,true,913.7999999970198,1,g,,1,2,1,
k28,RSVPtest,148,r,true,819,0,b,,3,3,0,
k28,RSVPtest,149,r,false,873.5,1,g,,2,1,1,
k28,RSVPtest,150,r,true,857.2999999970198,0,b,,3,3,0,
k28,RSVPtest,151,r,false,866.4000000059605,2,r,,1,1,2,
k28,RSVPtest,152,r,true,1377.5,1,g,,0,2,1,
k28,RSVPtest,153,r,false,985.4000000059605,0,b,,2,3,0,
k28,RSVPtest,154,r,true,826.2999999970198,2,r,,3,0,1,
k28,RSVPtest,155,r,true,552.6000000089407,2,r,,0,2,1,
k28,RSVPtest,156,r,false,482.09999999403954,1,g,,3,2,1,
k28,RSVPtest,157,r,true,632.2000000029802,1,g,,1,0,1,
k28,RSVPtest,158,r,true,849.4000000059605,2,r,,2,1,1,
k28,RSVPtest,159,r,false,771.5999999940395,2,r,,3,1,1,
k28,RSVPtest,160,r,true,459.20000000298023,1,g,,2,2,2,
k28,RSVPtest,161,r,true,867.7000000029802,2,r,,1,2,1,
k28,RSVPtest,162,r,false,567.2000000029802,2,r,,2,1,1,
k28,RSVPtest,163,r,true,803.0999999940395,0,b,,3,3,0,
k28,RSVPtest,164,r,true,625.2000000029802,1,g,,3,0,1,
k28,RSVPtest,165,r,true,498.5,1,g,,3,1,1,
k28,RSVPtest,166,r,false,838.9000000059605,1,g,,1,2,1,
k28,RSVPtest,167,r,null,null,2,r,,3,2,1,
k28,RSVPtest,168,r,true,890.5,2,r,,3,0,1,
k28,RSVPtest,169,r,true,864.7999999970198,1,g,,1,2,1,
k28,RSVPtest,170,r,true,811.0999999940395,2,r,,3,1,1,
k28,RSVPtest,171,r,false,673,2,r,,0,2,1,
k28,RSVPtest,172,r,true,480.20000000298023,1,g,,1,1,2,
k28,RSVPtest,173,r,true,688.1000000089407,1,g,,2,1,1,
k28,RSVPtest,174,r,true,1475,0,b,,0,3,0,
k28,RSVPtest,175,r,false,727.3000000119209,1,g,,0,1,1,
k28,RSVPtest,176,r,true,409.20000000298023,0,b,,0,3,0,
k28,RSVPtest,177,r,true,546.0999999940395,0,b,,3,3,0,
k28,RSVPtest,178,r,true,547.1000000089407,1,g,,3,2,1,
k28,RSVPtest,179,r,true,681.5,2,r,,2,0,1,
k28,RSVPtest,180,r,true,609.6999999880791,2,r,,3,2,1,
brk,brk,brk,brk,brk,brk,brk,brk,brk,brk,brk,brk,
k28,RSVPtest,181,r,true,2087.0999999940395,2,r,,3,0,1,
k28,RSVPtest,182,r,false,576.2000000029802,0,b,,1,3,0,
k28,RSVPtest,183,r,true,522.8000000119209,1,g,,3,0,1,
k28,RSVPtest,184,r,true,699.0999999940395,1,g,,3,1,1,
k28,RSVPtest,185,r,false,713.4000000059605,1,g,,1,1,2,
k28,RSVPtest,186,r,false,489.29999999701977,1,g,,3,2,1,
k28,RSVPtest,187,r,true,865.4000000059605,0,b,,0,3,0,
k28,RSVPtest,188,r,true,606.7000000029802,1,g,,3,2,1,
k28,RSVPtest,189,r,true,905.7999999970198,1,g,,3,0,1,
k28,RSVPtest,190,r,false,570.2000000029802,1,g,,0,2,1,
k28,RSVPtest,191,r,true,578.7999999970198,1,g,,3,0,1,
k28,RSVPtest,192,r,true,673.2000000029802,0,b,,1,3,0,
k28,RSVPtest,193,r,true,673.1999999880791,2,r,,3,2,1,
k28,RSVPtest,194,r,true,888.3000000119209,2,r,,0,0,2,
k28,RSVPtest,195,r,false,568.7999999970198,0,b,,2,3,0,
k28,RSVPtest,196,r,true,745.2999999970198,2,r,,3,0,1,
k28,RSVPtest,197,r,true,735.7000000029802,1,g,,2,0,1,
k28,RSVPtest,198,r,false,698.7000000029802,0,b,,2,3,0,
k28,RSVPtest,199,r,true,680.7000000029802,1,g,,1,2,1,
k28,RSVPtest,200,r,true,704.9000000059605,2,r,,1,0,1,
k28,RSVPtest,201,r,true,726.0999999940395,2,r,,2,2,2,
k28,RSVPtest,202,r,false,583.6000000089407,1,g,,2,2,2,
k28,RSVPtest,203,r,true,506.40000000596046,2,r,,1,0,1,
k28,RSVPtest,204,r,true,768.1999999880791,0,b,,1,3,0,
k28,RSVPtest,205,r,true,609,0,b,,3,3,0,
k28,RSVPtest,206,r,true,416.20000000298023,1,g,,0,2,1,
k28,RSVPtest,207,r,true,866.7000000029802,1,g,,2,0,1,
k28,RSVPtest,208,r,true,624.7000000029802,1,g,,3,0,1,
k28,RSVPtest,209,r,true,562.7000000029802,0,b,,2,3,0,
k28,RSVPtest,210,r,false,799.7000000029802,1,g,,0,0,2,
k28,RSVPtest,211,r,true,793.5,0,b,,3,3,0,
k28,RSVPtest,212,r,false,763.4000000059605,2,r,,1,2,1,
k28,RSVPtest,213,r,false,761.9000000059605,0,b,,3,3,0,
k28,RSVPtest,214,r,true,979.5,2,r,,2,0,1,
k28,RSVPtest,215,r,true,697.6000000089407,1,g,,3,2,1,
k28,RSVPtest,216,r,false,690.8000000119209,2,r,,1,0,1,
k28,RSVPtest,217,r,true,506.1000000089407,1,g,,1,0,1,
k28,RSVPtest,218,r,true,465,2,r,,1,0,1,
k28,RSVPtest,219,r,true,585.5999999940395,0,b,,0,3,0,
k28,RSVPtest,220,r,false,649.5999999940395,2,r,,0,1,1,
k28,RSVPtest,221,r,true,409.19999998807907,1,g,,1,2,1,
k28,RSVPtest,222,r,true,654.7999999970198,1,g,,3,2,1,
k28,RSVPtest,223,r,true,627.2000000029802,0,b,,2,3,0,
k28,RSVPtest,224,r,true,832,1,g,,3,1,1,
k28,RSVPtest,225,r,true,711.7000000029802,1,g,,0,0,2,
k28,RSVPtest,226,r,true,526.2999999970198,2,r,,0,0,2,
k28,RSVPtest,227,r,true,1144,1,g,,2,1,1,
k28,RSVPtest,228,r,true,815.5,2,r,,0,2,1,
k28,RSVPtest,229,r,false,953.2000000029802,1,g,,0,1,1,
k28,RSVPtest,230,r,true,768,0,b,,2,3,0,
k28,RSVPtest,231,r,true,738,1,g,,0,2,1,
k28,RSVPtest,232,r,true,609.4000000059605,1,g,,1,0,1,
k28,RSVPtest,233,r,true,680.8999999910593,0,b,,3,3,0,
k28,RSVPtest,234,r,false,664.8000000119209,0,b,,3,3,0,
k28,RSVPtest,235,r,false,599.7999999970198,2,r,,1,1,2,
k28,RSVPtest,236,r,true,760.9000000059605,0,b,,3,3,0,
k28,RSVPtest,237,r,false,1896.7999999970198,0,b,,3,3,0,
k28,RSVPtest,238,r,true,671.4000000059605,1,g,,2,1,1,
k28,RSVPtest,239,r,true,552.6000000089407,1,g,,2,0,1,
k28,RSVPtest,240,r,true,504.70000000298023,0,b,,1,3,0,
