subID,trialType,trialNum,cntBalance,correct,rt,rwdType,tgtCol,tgtDir,tgtPos,colPos,colMatch,
rvw,VDACtrain,0,r,true,934.7999992370605,1,g,h,5,,,
rvw,VDACtrain,0,r,null,null,2,r,h,0,,,
rvw,VDACtrain,0,r,true,552,1,g,h,3,,,
rvw,VDACtrain,0,r,null,null,2,r,v,3,,,
rvw,VDACtrain,0,r,null,null,2,r,v,4,,,
rvw,VDACtrain,0,r,true,688.1000003814697,2,r,h,1,,,
rvw,VDACtrain,0,r,true,585,2,r,h,2,,,
rvw,VDACtrain,0,r,true,537.8999996185303,1,g,v,5,,,
rvw,VDACtrain,0,r,true,625.2999992370605,1,g,v,0,,,
rvw,VDACtrain,0,r,true,529.0999984741211,1,g,v,2,,,
rvw,VDACtest,1,r,true,707.8999996185303,2,r,h,4,,,
rvw,VDACtest,2,r,true,609,1,g,h,5,,,
rvw,VDACtest,3,r,true,529.7000007629395,1,g,v,3,,,
rvw,VDACtest,4,r,true,536.9000015258789,1,g,v,5,,,
rvw,VDACtest,5,r,true,488.29999923706055,2,r,h,4,,,
rvw,VDACtest,6,r,false,603.1000003814697,1,g,h,3,,,
rvw,VDACtest,7,r,true,577.5,1,g,v,5,,,
rvw,VDACtest,8,r,true,921.8000011444092,2,r,h,1,,,
rvw,VDACtest,9,r,true,993.5,2,r,h,4,,,
rvw,VDACtest,10,r,true,545.7999992370605,1,g,v,4,,,
rvw,VDACtest,11,r,false,690.1000003814697,1,g,v,2,,,
rvw,VDACtest,12,r,true,690.7000007629395,1,g,h,4,,,
rvw,VDACtest,13,r,true,537.6000003814697,2,r,v,4,,,
rvw,VDACtest,14,r,true,681.1000003814697,1,g,h,0,,,
rvw,VDACtest,15,r,true,747.3999996185303,1,g,h,1,,,
rvw,VDACtest,16,r,true,647,2,r,h,0,,,
rvw,VDACtest,17,r,true,596.5,1,g,v,0,,,
rvw,VDACtest,18,r,true,681.8999996185303,2,r,v,1,,,
rvw,VDACtest,19,r,true,465,1,g,h,4,,,
rvw,VDACtest,20,r,true,516.3000011444092,2,r,v,5,,,
rvw,VDACtest,21,r,true,395,2,r,h,4,,,
rvw,VDACtest,22,r,true,481.1999988555908,2,r,h,4,,,
rvw,VDACtest,23,r,true,682,1,g,v,2,,,
rvw,VDACtest,24,r,true,609.6999988555908,2,r,h,0,,,
rvw,VDACtest,25,r,true,498.0999984741211,1,g,v,1,,,
rvw,VDACtest,26,r,true,458.3000011444092,1,g,h,2,,,
rvw,VDACtest,27,r,true,499,1,g,h,2,,,
rvw,VDACtest,28,r,true,522.8000011444092,1,g,h,3,,,
rvw,VDACtest,29,r,true,449.20000076293945,2,r,v,5,,,
rvw,VDACtest,30,r,false,441.3999996185303,1,g,v,2,,,
rvw,VDACtest,31,r,true,1000.3000011444092,2,r,h,1,,,
rvw,VDACtest,32,r,true,791.3999996185303,2,r,h,1,,,
rvw,VDACtest,33,r,true,642.2000007629395,2,r,v,2,,,
rvw,VDACtest,34,r,true,760.9000015258789,1,g,v,3,,,
rvw,VDACtest,35,r,true,457.8999996185303,2,r,h,4,,,
rvw,VDACtest,36,r,true,648.8000011444092,1,g,h,2,,,
rvw,VDACtest,37,r,true,554.3000011444092,1,g,v,3,,,
rvw,VDACtest,38,r,false,810.3999996185303,2,r,v,5,,,
rvw,VDACtest,39,r,true,530,2,r,v,3,,,
rvw,VDACtest,40,r,true,435,1,g,v,4,,,
rvw,VDACtest,41,r,true,616.7999992370605,2,r,v,0,,,
rvw,VDACtest,42,r,true,434.6000003814697,2,r,v,0,,,
rvw,VDACtest,43,r,true,416.3000011444092,1,g,v,5,,,
rvw,VDACtest,44,r,true,545.7999992370605,1,g,v,1,,,
rvw,VDACtest,45,r,true,425.29999923706055,1,g,v,5,,,
rvw,VDACtest,46,r,true,465,2,r,v,4,,,
rvw,VDACtest,47,r,false,697.1000003814697,2,r,h,1,,,
rvw,VDACtest,48,r,true,585.6000003814697,2,r,v,4,,,
rvw,VDACtest,49,r,true,465.3999996185303,1,g,h,2,,,
rvw,VDACtest,50,r,true,471.70000076293945,2,r,v,4,,,
brk,brk,brk,brk,brk,brk,brk,brk,brk,brk,brk,brk,
rvw,VDACtest,51,r,true,776.8999996185303,2,r,h,5,,,
rvw,VDACtest,52,r,false,576.8000011444092,2,r,h,2,,,
rvw,VDACtest,53,r,true,506.3999996185303,1,g,h,5,,,
rvw,VDACtest,54,r,true,554.1999988555908,1,g,h,4,,,
rvw,VDACtest,55,r,true,424.8000011444092,1,g,v,0,,,
rvw,VDACtest,56,r,true,497.3999996185303,2,r,v,3,,,
rvw,VDACtest,57,r,true,554.5,1,g,h,4,,,
rvw,VDACtest,58,r,true,633.2000007629395,1,g,h,1,,,
rvw,VDACtest,59,r,false,472.3000011444092,1,g,v,3,,,
rvw,VDACtest,60,r,true,512.1999988555908,2,r,v,3,,,
rvw,VDACtest,61,r,true,512.2000007629395,1,g,v,1,,,
rvw,VDACtest,62,r,true,431.70000076293945,2,r,h,2,,,
rvw,VDACtest,63,r,false,499.6000003814697,2,r,v,2,,,
rvw,VDACtest,64,r,true,561.6999988555908,2,r,h,2,,,
rvw,VDACtest,65,r,true,609.6999988555908,1,g,h,5,,,
rvw,VDACtest,66,r,true,528.7000007629395,2,r,h,5,,,
rvw,VDACtest,67,r,true,376,1,g,v,1,,,
rvw,VDACtest,68,r,true,463.79999923706055,2,r,h,2,,,
rvw,VDACtest,69,r,true,648.2000007629395,1,g,h,0,,,
rvw,VDACtest,70,r,true,433.6000003814697,1,g,h,2,,,
rvw,VDACtest,71,r,true,472.6000003814697,2,r,v,3,,,
rvw,VDACtest,72,r,true,471.8999996185303,1,g,v,2,,,
rvw,VDACtest,73,r,true,767.4000015258789,1,g,h,5,,,
rvw,VDACtest,74,r,true,530.2999992370605,1,g,v,4,,,
rvw,VDACtest,75,r,true,626,1,g,h,3,,,
rvw,VDACtest,76,r,true,673.8999996185303,1,g,h,1,,,
rvw,VDACtest,77,r,true,499,1,g,v,2,,,
rvw,VDACtest,78,r,false,649.7000007629395,2,r,v,1,,,
rvw,VDACtest,79,r,true,472.3999996185303,2,r,v,1,,,
rvw,VDACtest,80,r,true,473.20000076293945,2,r,v,3,,,
rvw,VDACtest,81,r,true,730.2999992370605,2,r,h,0,,,
rvw,VDACtest,82,r,true,586.8000011444092,1,g,h,5,,,
rvw,VDACtest,83,r,true,538.3000011444092,1,g,h,0,,,
rvw,VDACtest,84,r,true,561.1000003814697,2,r,v,2,,,
rvw,VDACtest,85,r,true,520.7999992370605,2,r,v,1,,,
rvw,VDACtest,86,r,true,520.5,2,r,v,4,,,
rvw,VDACtest,87,r,true,497.8999996185303,2,r,v,0,,,
rvw,VDACtest,88,r,true,479.5,1,g,h,3,,,
rvw,VDACtest,89,r,false,450.20000076293945,2,r,h,2,,,
rvw,VDACtest,90,r,true,520.7999992370605,2,r,v,0,,,
rvw,VDACtest,91,r,false,560.6000003814697,2,r,h,5,,,
rvw,VDACtest,92,r,true,497.8000011444092,1,g,h,3,,,
rvw,VDACtest,93,r,true,650.5,1,g,v,4,,,
rvw,VDACtest,94,r,true,489,2,r,h,2,,,
rvw,VDACtest,95,r,true,551.6000003814697,1,g,v,3,,,
rvw,VDACtest,96,r,true,683.4000015258789,1,g,h,1,,,
rvw,VDACtest,97,r,true,529.6000003814697,2,r,v,2,,,
rvw,VDACtest,98,r,true,856.1000003814697,2,r,v,5,,,
rvw,VDACtest,99,r,true,779.3999996185303,2,r,v,0,,,
rvw,VDACtest,100,r,true,480.9000015258789,1,g,h,1,,,
brk,brk,brk,brk,brk,brk,brk,brk,brk,brk,brk,brk,
rvw,VDACtest,101,r,true,620.8999996185303,2,r,v,1,,,
rvw,VDACtest,102,r,false,546,1,g,v,5,,,
rvw,VDACtest,103,r,true,594.4000015258789,2,r,v,3,,,
rvw,VDACtest,104,r,true,562,2,r,v,1,,,
rvw,VDACtest,105,r,true,400.3000011444092,1,g,h,3,,,
rvw,VDACtest,106,r,true,642.6000003814697,1,g,h,1,,,
rvw,VDACtest,107,r,true,577.1999988555908,2,r,h,5,,,
rvw,VDACtest,108,r,true,562.7999992370605,2,r,v,2,,,
rvw,VDACtest,109,r,true,577.5,1,g,v,0,,,
rvw,VDACtest,110,r,true,586,2,r,h,5,,,
rvw,VDACtest,111,r,true,560.7999992370605,1,g,v,4,,,
rvw,VDACtest,112,r,true,568.3999996185303,1,g,h,4,,,
rvw,VDACtest,113,r,true,553.9000015258789,2,r,h,2,,,
rvw,VDACtest,114,r,true,463.6999988555908,2,r,h,2,,,
rvw,VDACtest,115,r,true,521.3999996185303,2,r,v,0,,,
rvw,VDACtest,116,r,true,497.3000011444092,1,g,v,1,,,
rvw,VDACtest,117,r,true,546.0999984741211,1,g,v,4,,,
rvw,VDACtest,118,r,true,698.6000003814697,2,r,h,4,,,
rvw,VDACtest,119,r,true,635.3999996185303,2,r,h,1,,,
rvw,VDACtest,120,r,true,721.5999984741211,1,g,h,0,,,
rvw,VDACtest,121,r,true,545.0999984741211,1,g,v,4,,,
rvw,VDACtest,122,r,true,657.7000007629395,2,r,h,1,,,
rvw,VDACtest,123,r,true,650.6999988555908,2,r,h,3,,,
rvw,VDACtest,124,r,true,474.1999988555908,2,r,v,1,,,
rvw,VDACtest,125,r,true,658.2000007629395,2,r,h,3,,,
rvw,VDACtest,126,r,true,489.3000011444092,1,g,v,0,,,
rvw,VDACtest,127,r,true,576.6000003814697,2,r,v,1,,,
rvw,VDACtest,128,r,true,555.5,1,g,h,0,,,
rvw,VDACtest,129,r,true,584.1000003814697,1,g,h,4,,,
rvw,VDACtest,130,r,true,513.5999984741211,2,r,v,5,,,
rvw,VDACtest,131,r,true,497,1,g,v,0,,,
rvw,VDACtest,132,r,true,497.3000011444092,1,g,v,4,,,
rvw,VDACtest,133,r,true,521.7999992370605,1,g,h,2,,,
rvw,VDACtest,134,r,true,553.7999992370605,2,r,h,3,,,
rvw,VDACtest,135,r,true,497,1,g,h,3,,,
rvw,VDACtest,136,r,true,610.1000003814697,2,r,h,1,,,
rvw,VDACtest,137,r,true,425.1000003814697,1,g,h,1,,,
rvw,VDACtest,138,r,true,537.1000003814697,1,g,h,4,,,
rvw,VDACtest,139,r,true,456.5,1,g,v,0,,,
rvw,VDACtest,140,r,true,744.6999988555908,2,r,h,5,,,
rvw,VDACtest,141,r,true,471.79999923706055,2,r,h,3,,,
rvw,VDACtest,142,r,true,529.6000003814697,1,g,h,2,,,
rvw,VDACtest,143,r,false,504.3000011444092,1,g,v,2,,,
rvw,VDACtest,144,r,true,587.2000007629395,2,r,h,4,,,
rvw,VDACtest,145,r,false,593.1999988555908,1,g,v,1,,,
rvw,VDACtest,146,r,true,520.5,1,g,h,1,,,
rvw,VDACtest,147,r,true,386.3999996185303,2,r,v,0,,,
rvw,VDACtest,148,r,true,464.5,2,r,v,5,,,
rvw,VDACtest,149,r,true,449.8000011444092,2,r,v,1,,,
rvw,VDACtest,150,r,true,617.5,1,g,v,3,,,
brk,brk,brk,brk,brk,brk,brk,brk,brk,brk,brk,brk,
rvw,VDACtest,151,r,true,476.3000011444092,2,r,v,0,,,
rvw,VDACtest,152,r,true,441.70000076293945,2,r,h,3,,,
rvw,VDACtest,153,r,true,496.1000003814697,2,r,v,4,,,
rvw,VDACtest,154,r,true,538.2999992370605,2,r,h,5,,,
rvw,VDACtest,155,r,true,456.9000015258789,1,g,v,0,,,
rvw,VDACtest,156,r,true,385.5,2,r,v,5,,,
rvw,VDACtest,157,r,true,642.7000007629395,1,g,v,1,,,
rvw,VDACtest,158,r,true,545.6000003814697,1,g,v,5,,,
rvw,VDACtest,159,r,true,587.6000003814697,1,g,h,4,,,
rvw,VDACtest,160,r,true,528.7999992370605,1,g,v,3,,,
rvw,VDACtest,161,r,true,394.70000076293945,1,g,v,0,,,
rvw,VDACtest,162,r,true,384.3999996185303,1,g,v,1,,,
rvw,VDACtest,163,r,true,433.1000003814697,1,g,h,2,,,
rvw,VDACtest,164,r,true,530.9000015258789,1,g,h,5,,,
rvw,VDACtest,165,r,false,657.7999992370605,2,r,h,1,,,
rvw,VDACtest,166,r,true,568.8999996185303,2,r,v,4,,,
rvw,VDACtest,167,r,true,377.3999996185303,2,r,v,4,,,
rvw,VDACtest,168,r,false,656.2999992370605,2,r,h,0,,,
rvw,VDACtest,169,r,true,360.5,1,g,h,4,,,
rvw,VDACtest,170,r,true,591.7999992370605,1,g,h,0,,,
rvw,VDACtest,171,r,true,552.3000011444092,2,r,v,2,,,
rvw,VDACtest,172,r,true,464.3000011444092,1,g,v,1,,,
rvw,VDACtest,173,r,true,473,1,g,v,5,,,
rvw,VDACtest,174,r,true,487.8000011444092,1,g,h,0,,,
rvw,VDACtest,175,r,true,539.3000011444092,2,r,h,5,,,
rvw,VDACtest,176,r,true,440.3999996185303,1,g,v,5,,,
rvw,VDACtest,177,r,true,584.5,1,g,v,4,,,
rvw,VDACtest,178,r,true,401.20000076293945,2,r,h,3,,,
rvw,VDACtest,179,r,true,506.1000003814697,1,g,h,5,,,
rvw,VDACtest,180,r,true,616.2999992370605,2,r,h,0,,,
rvw,VDACtest,181,r,true,463.8999996185303,2,r,h,3,,,
rvw,VDACtest,182,r,true,490.1999988555908,2,r,h,0,,,
rvw,VDACtest,183,r,false,480.20000076293945,2,r,v,3,,,
rvw,VDACtest,184,r,true,650,1,g,v,3,,,
rvw,VDACtest,185,r,true,457.29999923706055,2,r,v,5,,,
rvw,VDACtest,186,r,true,521.1000003814697,2,r,h,3,,,
rvw,VDACtest,187,r,false,537.2999992370605,2,r,h,1,,,
rvw,VDACtest,188,r,true,537.5,2,r,h,0,,,
rvw,VDACtest,189,r,true,537.7000007629395,2,r,v,2,,,
rvw,VDACtest,190,r,true,529.2000007629395,2,r,v,3,,,
rvw,VDACtest,191,r,true,505,1,g,v,2,,,
rvw,VDACtest,192,r,true,538,1,g,h,5,,,
rvw,VDACtest,193,r,true,568.6999988555908,2,r,h,0,,,
rvw,VDACtest,194,r,true,545.6000003814697,1,g,v,2,,,
rvw,VDACtest,195,r,true,577.5,1,g,h,1,,,
rvw,VDACtest,196,r,true,554.0999984741211,1,g,h,0,,,
rvw,VDACtest,197,r,true,536.8999996185303,2,r,v,2,,,
rvw,VDACtest,198,r,true,526.5999984741211,2,r,v,4,,,
rvw,VDACtest,199,r,true,514.9000015258789,1,g,h,3,,,
rvw,VDACtest,200,r,true,625.5,2,r,h,4,,,
rvw,RSVPtrain,0,r,null,null,0,b,,1,3,0,
rvw,RSVPtrain,0,r,true,1094.7999992370605,0,b,,3,3,0,
rvw,RSVPtrain,0,r,false,1051.400001525879,1,g,,3,0,1,
rvw,RSVPtrain,0,r,null,null,2,r,,1,1,2,
rvw,RSVPtrain,0,r,true,1719.8999996185303,2,r,,0,0,2,
rvw,RSVPtrain,0,r,true,715.6999988555908,2,r,,3,2,1,
rvw,RSVPtrain,0,r,true,702.3999996185303,1,g,,3,1,1,
rvw,RSVPtrain,0,r,null,null,1,g,,2,2,2,
rvw,RSVPtrain,0,r,true,694,0,b,,0,3,0,
rvw,RSVPtrain,0,r,false,601.2999992370605,1,g,,1,0,1,
rvw,RSVPtest,1,r,false,504.1999988555908,1,g,,2,2,2,
rvw,RSVPtest,2,r,false,667.5,2,r,,3,1,1,
rvw,RSVPtest,3,r,true,778.6000003814697,0,b,,0,3,0,
rvw,RSVPtest,4,r,true,476.20000076293945,0,b,,3,3,0,
rvw,RSVPtest,5,r,false,668.2999992370605,1,g,,1,0,1,
rvw,RSVPtest,6,r,true,499.8000011444092,2,r,,3,0,1,
rvw,RSVPtest,7,r,true,2459.7000007629395,0,b,,0,3,0,
rvw,RSVPtest,8,r,false,577.1000003814697,2,r,,1,2,1,
rvw,RSVPtest,9,r,true,113.10000038146973,1,g,,2,0,1,
rvw,RSVPtest,10,r,false,564.3000011444092,2,r,,3,1,1,
rvw,RSVPtest,11,r,null,null,1,g,,3,2,1,
rvw,RSVPtest,12,r,true,302,2,r,,2,2,2,
rvw,RSVPtest,13,r,true,780.2999992370605,2,r,,0,1,1,
rvw,RSVPtest,14,r,true,880.7999992370605,0,b,,1,3,0,
rvw,RSVPtest,15,r,false,627.7999992370605,1,g,,0,0,2,
rvw,RSVPtest,16,r,false,938.5,2,r,,3,1,1,
rvw,RSVPtest,17,r,false,500.1000003814697,2,r,,3,1,1,
rvw,RSVPtest,18,r,false,530.8999996185303,0,b,,1,3,0,
rvw,RSVPtest,19,r,false,467.1000003814697,2,r,,1,2,1,
rvw,RSVPtest,20,r,false,443,0,b,,0,3,0,
rvw,RSVPtest,21,r,false,731.3000011444092,2,r,,2,0,1,
rvw,RSVPtest,22,r,false,1027.2000007629395,1,g,,1,0,1,
rvw,RSVPtest,23,r,false,507,1,g,,2,1,1,
rvw,RSVPtest,24,r,false,469.5,1,g,,3,1,1,
rvw,RSVPtest,25,r,false,321.8999996185303,1,g,,3,1,1,
rvw,RSVPtest,26,r,true,2064.300001144409,1,g,,1,2,1,
rvw,RSVPtest,27,r,false,560.1999988555908,2,r,,1,0,1,
rvw,RSVPtest,28,r,false,505.70000076293945,2,r,,1,0,1,
rvw,RSVPtest,29,r,false,739.3999996185303,1,g,,0,1,1,
rvw,RSVPtest,30,r,true,537.6000003814697,0,b,,3,3,0,
rvw,RSVPtest,31,r,true,561.1000003814697,2,r,,3,0,1,
rvw,RSVPtest,32,r,true,540.2999992370605,2,r,,3,2,1,
rvw,RSVPtest,33,r,false,579.2000007629395,2,r,,3,2,1,
rvw,RSVPtest,34,r,null,null,2,r,,2,1,1,
rvw,RSVPtest,35,r,false,665.8999996185303,0,b,,3,3,0,
rvw,RSVPtest,36,r,false,817.2999992370605,1,g,,3,0,1,
rvw,RSVPtest,37,r,false,578,1,g,,3,2,1,
rvw,RSVPtest,38,r,true,506.5,2,r,,3,0,1,
rvw,RSVPtest,39,r,true,504.5999984741211,1,g,,3,1,1,
rvw,RSVPtest,40,r,false,1079.3999996185303,1,g,,2,0,1,
rvw,RSVPtest,41,r,false,505.3999996185303,1,g,,0,2,1,
rvw,RSVPtest,42,r,false,611.4000015258789,2,r,,0,1,1,
rvw,RSVPtest,43,r,false,576.1000003814697,2,r,,0,0,2,
rvw,RSVPtest,44,r,true,449.1000003814697,1,g,,3,2,1,
rvw,RSVPtest,45,r,false,331.8000011444092,0,b,,0,3,0,
rvw,RSVPtest,46,r,null,null,2,r,,0,0,2,
rvw,RSVPtest,47,r,null,null,0,b,,0,3,0,
rvw,RSVPtest,48,r,true,575.6000003814697,1,g,,2,1,1,
rvw,RSVPtest,49,r,false,1323.2000007629395,2,r,,2,1,1,
rvw,RSVPtest,50,r,true,475.20000076293945,0,b,,3,3,0,
rvw,RSVPtest,51,r,true,690,1,g,,3,0,1,
rvw,RSVPtest,52,r,false,571,1,g,,0,2,1,
rvw,RSVPtest,53,r,false,512.2999992370605,0,b,,2,3,0,
rvw,RSVPtest,54,r,null,null,0,b,,1,3,0,
rvw,RSVPtest,55,r,false,524.9000015258789,2,r,,2,0,1,
rvw,RSVPtest,56,r,false,617.5,2,r,,0,0,2,
rvw,RSVPtest,57,r,false,444.0999984741211,2,r,,1,0,1,
rvw,RSVPtest,58,r,false,1187,2,r,,3,0,1,
rvw,RSVPtest,59,r,true,442.9000015258789,0,b,,3,3,0,
rvw,RSVPtest,60,r,true,734.6999988555908,1,g,,2,0,1,
brk,brk,brk,brk,brk,brk,brk,brk,brk,brk,brk,brk,
rvw,RSVPtest,61,r,false,744.7999992370605,2,r,,1,1,2,
rvw,RSVPtest,62,r,true,504.8000011444092,1,g,,0,1,1,
rvw,RSVPtest,63,r,true,410.3999996185303,1,g,,2,2,2,
rvw,RSVPtest,64,r,false,608.1000003814697,1,g,,1,0,1,
rvw,RSVPtest,65,r,true,648.7000007629395,2,r,,3,2,1,
rvw,RSVPtest,66,r,false,771.1000003814697,2,r,,3,0,1,
rvw,RSVPtest,67,r,true,642.3000011444092,2,r,,0,0,2,
rvw,RSVPtest,68,r,false,779.1999988555908,2,r,,2,1,1,
rvw,RSVPtest,69,r,true,554.4000015258789,1,g,,3,2,1,
rvw,RSVPtest,70,r,true,607.8999996185303,2,r,,3,2,1,
rvw,RSVPtest,71,r,true,713.1000003814697,0,b,,2,3,0,
rvw,RSVPtest,72,r,true,761.5,1,g,,0,0,2,
rvw,RSVPtest,73,r,false,649.6000003814697,1,g,,2,1,1,
rvw,RSVPtest,74,r,true,561.5,1,g,,1,2,1,
rvw,RSVPtest,75,r,true,893.1000003814697,0,b,,2,3,0,
rvw,RSVPtest,76,r,false,488.79999923706055,2,r,,1,2,1,
rvw,RSVPtest,77,r,false,792.7000007629395,2,r,,0,2,1,
rvw,RSVPtest,78,r,true,543.3000011444092,1,g,,2,1,1,
rvw,RSVPtest,79,r,true,565.8999996185303,1,g,,2,2,2,
rvw,RSVPtest,80,r,true,625.3999996185303,1,g,,3,0,1,
rvw,RSVPtest,81,r,false,640.0999984741211,0,b,,3,3,0,
rvw,RSVPtest,82,r,true,511.20000076293945,0,b,,3,3,0,
rvw,RSVPtest,83,r,false,553.2999992370605,2,r,,3,2,1,
rvw,RSVPtest,84,r,true,912.1000003814697,2,r,,2,1,1,
rvw,RSVPtest,85,r,false,673.6999988555908,2,r,,3,0,1,
rvw,RSVPtest,86,r,true,585.2000007629395,1,g,,3,2,1,
rvw,RSVPtest,87,r,true,705.7999992370605,0,b,,0,3,0,
rvw,RSVPtest,88,r,true,631.3999996185303,1,g,,1,2,1,
rvw,RSVPtest,89,r,true,668.3000011444092,1,g,,3,0,1,
rvw,RSVPtest,90,r,false,640.6000003814697,1,g,,1,2,1,
rvw,RSVPtest,91,r,true,681.6999988555908,0,b,,1,3,0,
rvw,RSVPtest,92,r,false,559.8000011444092,1,g,,3,2,1,
rvw,RSVPtest,93,r,true,502.3999996185303,0,b,,1,3,0,
rvw,RSVPtest,94,r,false,804,2,r,,3,0,1,
rvw,RSVPtest,95,r,false,537.6999988555908,2,r,,3,0,1,
rvw,RSVPtest,96,r,false,744.7999992370605,1,g,,1,2,1,
rvw,RSVPtest,97,r,true,426.1000003814697,0,b,,1,3,0,
rvw,RSVPtest,98,r,true,511.20000076293945,1,g,,1,1,2,
rvw,RSVPtest,99,r,false,649.7999992370605,1,g,,3,0,1,
rvw,RSVPtest,100,r,true,562.8000011444092,1,g,,3,1,1,
rvw,RSVPtest,101,r,true,745.5999984741211,1,g,,2,0,1,
rvw,RSVPtest,102,r,false,490.79999923706055,1,g,,0,0,2,
rvw,RSVPtest,103,r,true,619.1000003814697,2,r,,0,1,1,
rvw,RSVPtest,104,r,true,517.1999988555908,1,g,,1,1,2,
rvw,RSVPtest,105,r,false,684.6000003814697,2,r,,3,0,1,
rvw,RSVPtest,106,r,true,894.1000003814697,1,g,,3,2,1,
rvw,RSVPtest,107,r,false,415.8999996185303,2,r,,0,2,1,
rvw,RSVPtest,108,r,true,681,0,b,,0,3,0,
rvw,RSVPtest,109,r,true,695.1000003814697,1,g,,0,2,1,
rvw,RSVPtest,110,r,true,487.29999923706055,0,b,,3,3,0,
rvw,RSVPtest,111,r,true,623.6000003814697,2,r,,1,0,1,
rvw,RSVPtest,112,r,false,837.8999996185303,0,b,,3,3,0,
rvw,RSVPtest,113,r,true,555.1000003814697,0,b,,2,3,0,
rvw,RSVPtest,114,r,true,446.4000015258789,1,g,,3,1,1,
rvw,RSVPtest,115,r,true,464.6999988555908,2,r,,0,0,2,
rvw,RSVPtest,116,r,true,513.3999996185303,2,r,,3,2,1,
rvw,RSVPtest,117,r,true,552,1,g,,0,2,1,
rvw,RSVPtest,118,r,true,496.20000076293945,0,b,,3,3,0,
rvw,RSVPtest,119,r,true,503.20000076293945,2,r,,0,2,1,
rvw,RSVPtest,120,r,true,441.6000003814697,1,g,,0,1,1,
brk,brk,brk,brk,brk,brk,brk,brk,brk,brk,brk,brk,
rvw,RSVPtest,121,r,true,420.79999923706055,1,g,,0,0,2,
rvw,RSVPtest,122,r,false,446.5,0,b,,2,3,0,
rvw,RSVPtest,123,r,true,521.2999992370605,1,g,,3,2,1,
rvw,RSVPtest,124,r,false,807.5,2,r,,3,2,1,
rvw,RSVPtest,125,r,true,694.5,0,b,,3,3,0,
rvw,RSVPtest,126,r,true,489.20000076293945,2,r,,3,1,1,
rvw,RSVPtest,127,r,false,552.4000015258789,2,r,,2,0,1,
rvw,RSVPtest,128,r,true,552.3999996185303,1,g,,3,1,1,
rvw,RSVPtest,129,r,true,730,2,r,,0,2,1,
rvw,RSVPtest,130,r,false,561.2999992370605,2,r,,1,2,1,
rvw,RSVPtest,131,r,true,649.7000007629395,2,r,,2,1,1,
rvw,RSVPtest,132,r,true,513.1000003814697,2,r,,3,0,1,
rvw,RSVPtest,133,r,false,768.8999996185303,2,r,,3,2,1,
rvw,RSVPtest,134,r,true,639.3000011444092,1,g,,3,0,1,
rvw,RSVPtest,135,r,true,559.3999996185303,0,b,,1,3,0,
rvw,RSVPtest,136,r,true,469,1,g,,3,0,1,
rvw,RSVPtest,137,r,false,1176.7999992370605,0,b,,3,3,0,
rvw,RSVPtest,138,r,true,755.4000015258789,0,b,,1,3,0,
rvw,RSVPtest,139,r,true,934.6000003814697,2,r,,0,0,2,
rvw,RSVPtest,140,r,true,673.6000003814697,1,g,,3,2,1,
rvw,RSVPtest,141,r,true,567.3999996185303,1,g,,0,1,1,
rvw,RSVPtest,142,r,true,568.1000003814697,0,b,,2,3,0,
rvw,RSVPtest,143,r,true,568,0,b,,1,3,0,
rvw,RSVPtest,144,r,true,521.1000003814697,2,r,,2,0,1,
rvw,RSVPtest,145,r,true,505.1000003814697,0,b,,1,3,0,
rvw,RSVPtest,146,r,false,652.8999996185303,1,g,,1,1,2,
rvw,RSVPtest,147,r,false,407.3000011444092,0,b,,3,3,0,
rvw,RSVPtest,148,r,true,518.5,0,b,,3,3,0,
rvw,RSVPtest,149,r,false,638.3000011444092,2,r,,3,2,1,
rvw,RSVPtest,150,r,true,502.3999996185303,0,b,,2,3,0,
rvw,RSVPtest,151,r,false,505.70000076293945,1,g,,1,0,1,
rvw,RSVPtest,152,r,true,390.9000015258789,2,r,,2,2,2,
rvw,RSVPtest,153,r,true,574.8999996185303,1,g,,2,2,2,
rvw,RSVPtest,154,r,true,583.9000015258789,0,b,,2,3,0,
rvw,RSVPtest,155,r,true,488.29999923706055,1,g,,1,0,1,
rvw,RSVPtest,156,r,true,545.5,0,b,,2,3,0,
rvw,RSVPtest,157,r,true,461,2,r,,1,1,2,
rvw,RSVPtest,158,r,false,671.6000003814697,0,b,,3,3,0,
rvw,RSVPtest,159,r,false,422.6000003814697,0,b,,3,3,0,
rvw,RSVPtest,160,r,false,719.8999996185303,0,b,,0,3,0,
rvw,RSVPtest,161,r,true,445.5999984741211,1,g,,1,0,1,
rvw,RSVPtest,162,r,true,615.4000015258789,0,b,,1,3,0,
rvw,RSVPtest,163,r,true,1142.099998474121,2,r,,3,0,1,
rvw,RSVPtest,164,r,false,592.5,2,r,,1,0,1,
rvw,RSVPtest,165,r,true,486.5999984741211,2,r,,0,1,1,
rvw,RSVPtest,166,r,true,424.6000003814697,2,r,,2,2,2,
rvw,RSVPtest,167,r,true,402.20000076293945,0,b,,0,3,0,
rvw,RSVPtest,168,r,false,567.0999984741211,1,g,,2,1,1,
rvw,RSVPtest,169,r,true,537.7000007629395,2,r,,3,2,1,
rvw,RSVPtest,170,r,true,424.1999988555908,2,r,,1,1,2,
rvw,RSVPtest,171,r,true,590,2,r,,3,1,1,
rvw,RSVPtest,172,r,false,519.8999996185303,1,g,,3,1,1,
rvw,RSVPtest,173,r,true,575,1,g,,3,0,1,
rvw,RSVPtest,174,r,true,529.3999996185303,1,g,,0,0,2,
rvw,RSVPtest,175,r,true,374.8999996185303,2,r,,2,2,2,
rvw,RSVPtest,176,r,true,623.3999996185303,1,g,,0,1,1,
rvw,RSVPtest,177,r,false,593.2000007629395,1,g,,3,2,1,
rvw,RSVPtest,178,r,false,406.6000003814697,2,r,,1,1,2,
rvw,RSVPtest,179,r,true,757.8999996185303,2,r,,3,1,1,
rvw,RSVPtest,180,r,true,504.70000076293945,1,g,,1,1,2,
brk,brk,brk,brk,brk,brk,brk,brk,brk,brk,brk,brk,
rvw,RSVPtest,181,r,true,566.2999992370605,2,r,,1,0,1,
rvw,RSVPtest,182,r,false,650.8999996185303,1,g,,1,1,2,
rvw,RSVPtest,183,r,true,471,2,r,,3,1,1,
rvw,RSVPtest,184,r,true,549.1000003814697,2,r,,0,1,1,
rvw,RSVPtest,185,r,false,510.29999923706055,2,r,,3,1,1,
rvw,RSVPtest,186,r,false,430.1000003814697,0,b,,0,3,0,
rvw,RSVPtest,187,r,true,550.4000015258789,1,g,,0,2,1,
rvw,RSVPtest,188,r,false,695.1000003814697,1,g,,0,2,1,
rvw,RSVPtest,189,r,true,520.4000015258789,2,r,,2,1,1,
rvw,RSVPtest,190,r,false,549.6000003814697,1,g,,3,1,1,
rvw,RSVPtest,191,r,true,424.5,1,g,,2,2,2,
rvw,RSVPtest,192,r,true,544.7999992370605,0,b,,0,3,0,
rvw,RSVPtest,193,r,true,581.2999992370605,1,g,,3,2,1,
rvw,RSVPtest,194,r,true,524,1,g,,1,2,1,
rvw,RSVPtest,195,r,true,415.3999996185303,2,r,,1,2,1,
rvw,RSVPtest,196,r,false,533.8999996185303,2,r,,3,1,1,
rvw,RSVPtest,197,r,false,470,0,b,,3,3,0,
rvw,RSVPtest,198,r,true,582.6999988555908,2,r,,1,1,2,
rvw,RSVPtest,199,r,false,1002.2999992370605,0,b,,3,3,0,
rvw,RSVPtest,200,r,false,430.5,1,g,,0,0,2,
rvw,RSVPtest,201,r,true,525.7999992370605,0,b,,1,3,0,
rvw,RSVPtest,202,r,true,521.6000003814697,0,b,,3,3,0,
rvw,RSVPtest,203,r,true,439.8000011444092,1,g,,1,1,2,
rvw,RSVPtest,204,r,true,414.3999996185303,2,r,,2,0,1,
rvw,RSVPtest,205,r,true,550,2,r,,3,2,1,
rvw,RSVPtest,206,r,true,416.3999996185303,2,r,,1,1,2,
rvw,RSVPtest,207,r,true,494.8000011444092,1,g,,2,1,1,
rvw,RSVPtest,208,r,true,574.2999992370605,0,b,,0,3,0,
rvw,RSVPtest,209,r,false,510.70000076293945,1,g,,3,1,1,
rvw,RSVPtest,210,r,true,511.1999988555908,1,g,,2,2,2,
rvw,RSVPtest,211,r,false,582.5,1,g,,3,1,1,
rvw,RSVPtest,212,r,false,511.5999984741211,2,r,,2,2,2,
rvw,RSVPtest,213,r,false,381.79999923706055,0,b,,3,3,0,
rvw,RSVPtest,214,r,true,502.5999984741211,0,b,,2,3,0,
rvw,RSVPtest,215,r,false,675.8999996185303,0,b,,3,3,0,
rvw,RSVPtest,216,r,false,536.5,1,g,,3,1,1,
rvw,RSVPtest,217,r,false,645.5,1,g,,2,0,1,
rvw,RSVPtest,218,r,true,459.9000015258789,1,g,,3,0,1,
rvw,RSVPtest,219,r,true,507.6000003814697,0,b,,2,3,0,
rvw,RSVPtest,220,r,false,466.5,0,b,,3,3,0,
rvw,RSVPtest,221,r,false,520.5999984741211,2,r,,3,0,1,
rvw,RSVPtest,222,r,false,646.2999992370605,2,r,,2,0,1,
rvw,RSVPtest,223,r,true,582.2000007629395,1,g,,3,2,1,
rvw,RSVPtest,224,r,false,564.6000003814697,2,r,,3,1,1,
rvw,RSVPtest,225,r,true,705,2,r,,0,2,1,
rvw,RSVPtest,226,r,true,613.1999988555908,2,r,,2,2,2,
rvw,RSVPtest,227,r,false,399.8999996185303,1,g,,0,1,1,
rvw,RSVPtest,228,r,true,552.7999992370605,0,b,,3,3,0,
rvw,RSVPtest,229,r,true,591.1999988555908,2,r,,3,1,1,
rvw,RSVPtest,230,r,true,588.2999992370605,0,b,,2,3,0,
rvw,RSVPtest,231,r,false,590.1000003814697,2,r,,0,1,1,
rvw,RSVPtest,232,r,false,488.1999988555908,2,r,,3,2,1,
rvw,RSVPtest,233,r,true,525.3999996185303,1,g,,3,1,1,
rvw,RSVPtest,234,r,true,771.5999984741211,1,g,,2,0,1,
rvw,RSVPtest,235,r,true,446,1,g,,3,0,1,
rvw,RSVPtest,236,r,true,2175.2000007629395,2,r,,1,2,1,
rvw,RSVPtest,237,r,false,606.2000007629395,0,b,,3,3,0,
rvw,RSVPtest,238,r,true,431.6000003814697,1,g,,3,0,1,
rvw,RSVPtest,239,r,true,555.8999996185303,1,g,,3,0,1,
rvw,RSVPtest,240,r,false,619.7999992370605,2,r,,0,2,1,
