subID,trialType,trialNum,cntBalance,correct,rt,rwdType,tgtCol,tgtDir,tgtPos,colPos,colMatch,
4an,VDACtrain,0,r,null,null,1,g,v,0,,,
4an,VDACtrain,0,r,true,839.7000000476837,2,r,v,4,,,
4an,VDACtrain,0,r,null,null,2,r,h,2,,,
4an,VDACtrain,0,r,true,634.5,1,g,v,2,,,
4an,VDACtrain,0,r,false,605,2,r,v,3,,,
4an,VDACtrain,0,r,true,910.2000000476837,2,r,h,1,,,
4an,VDACtrain,0,r,null,null,2,r,h,0,,,
4an,VDACtrain,0,r,true,700.2000000476837,1,g,h,5,,,
4an,VDACtrain,0,r,true,894.2000000476837,1,g,v,5,,,
4an,VDACtrain,0,r,true,886.7999999523163,1,g,h,3,,,
4an,VDACtest,1,r,false,943.1999999284744,2,r,h,4,,,
4an,VDACtest,2,r,true,549.1999999284744,1,g,v,5,,,
4an,VDACtest,3,r,false,549.1000000238419,2,r,h,0,,,
4an,VDACtest,4,r,true,893.7999999523163,2,r,v,3,,,
4an,VDACtest,5,r,null,null,2,r,h,4,,,
4an,VDACtest,6,r,true,921.2999999523163,2,r,h,1,,,
4an,VDACtest,7,r,false,684.7999999523163,2,r,v,2,,,
4an,VDACtest,8,r,true,940.7999999523163,1,g,v,1,,,
4an,VDACtest,9,r,true,629.8999999761581,1,g,h,0,,,
4an,VDACtest,10,r,true,957.3000000715256,1,g,v,2,,,
4an,VDACtest,11,r,true,789,1,g,h,4,,,
4an,VDACtest,12,r,false,662.1000000238419,1,g,h,5,,,
4an,VDACtest,13,r,true,757.8000000715256,2,r,h,3,,,
4an,VDACtest,14,r,false,813.6000000238419,2,r,h,1,,,
4an,VDACtest,15,r,true,988.5,1,g,v,2,,,
4an,VDACtest,16,r,true,821.5,2,r,h,2,,,
4an,VDACtest,17,r,true,678.3000000715256,2,r,v,3,,,
4an,VDACtest,18,r,true,766.1000000238419,1,g,v,2,,,
4an,VDACtest,19,r,true,495.5,2,r,v,2,,,
4an,VDACtest,20,r,true,499.7999999523163,1,g,h,2,,,
4an,VDACtest,21,r,true,942.3999999761581,2,r,v,0,,,
4an,VDACtest,22,r,false,623.5999999046326,1,g,v,3,,,
4an,VDACtest,23,r,true,668.8999999761581,1,g,h,2,,,
4an,VDACtest,24,r,false,613.6999999284744,2,r,v,1,,,
4an,VDACtest,25,r,true,934.3999999761581,1,g,h,3,,,
4an,VDACtest,26,r,true,813.6999999284744,2,r,h,2,,,
4an,VDACtest,27,r,true,709.2999999523163,1,g,v,0,,,
4an,VDACtest,28,r,false,614.9000000953674,1,g,v,5,,,
4an,VDACtest,29,r,true,748.6000000238419,2,r,h,2,,,
4an,VDACtest,30,r,true,652.1999999284744,2,r,v,1,,,
4an,VDACtest,31,r,true,885.7999999523163,1,g,v,4,,,
4an,VDACtest,32,r,null,null,2,r,h,2,,,
4an,VDACtest,33,r,true,836.1000000238419,2,r,v,4,,,
4an,VDACtest,34,r,null,null,1,g,h,1,,,
4an,VDACtest,35,r,false,624.8000000715256,1,g,v,4,,,
4an,VDACtest,36,r,null,null,1,g,h,2,,,
4an,VDACtest,37,r,true,642.3999999761581,2,r,v,5,,,
4an,VDACtest,38,r,false,526,2,r,h,1,,,
4an,VDACtest,39,r,null,null,2,r,h,2,,,
4an,VDACtest,40,r,false,443.6999999284744,2,r,v,2,,,
4an,VDACtest,41,r,null,null,1,g,v,3,,,
4an,VDACtest,42,r,true,235.29999995231628,2,r,h,3,,,
4an,VDACtest,43,r,true,669.2999999523163,1,g,h,5,,,
4an,VDACtest,44,r,true,725.1000000238419,1,g,h,0,,,
4an,VDACtest,45,r,true,508.60000002384186,1,g,h,5,,,
4an,VDACtest,46,r,true,484.90000009536743,2,r,v,5,,,
4an,VDACtest,47,r,false,486.7999999523163,1,g,v,5,,,
4an,VDACtest,48,r,false,517,1,g,v,5,,,
4an,VDACtest,49,r,true,948.5,2,r,h,2,,,
4an,VDACtest,50,r,false,749.0999999046326,2,r,v,4,,,
brk,brk,brk,brk,brk,brk,brk,brk,brk,brk,brk,brk,
4an,VDACtest,51,r,true,936.5999999046326,1,g,v,0,,,
4an,VDACtest,52,r,true,660.8999999761581,2,r,h,4,,,
4an,VDACtest,53,r,true,678.8999999761581,1,g,h,1,,,
4an,VDACtest,54,r,true,589,1,g,v,0,,,
4an,VDACtest,55,r,true,708.6999999284744,2,r,v,5,,,
4an,VDACtest,56,r,true,749.2999999523163,2,r,h,4,,,
4an,VDACtest,57,r,null,null,1,g,h,2,,,
4an,VDACtest,58,r,true,836.0999999046326,1,g,h,3,,,
4an,VDACtest,59,r,true,655.1000000238419,2,r,h,0,,,
4an,VDACtest,60,r,true,677.5,2,r,v,3,,,
4an,VDACtest,61,r,false,805.5,2,r,v,1,,,
4an,VDACtest,62,r,true,766.2999999523163,1,g,h,5,,,
4an,VDACtest,63,r,true,806,1,g,h,4,,,
4an,VDACtest,64,r,true,789.6000000238419,2,r,v,2,,,
4an,VDACtest,65,r,true,732.9000000953674,2,r,v,5,,,
4an,VDACtest,66,r,true,657.3999999761581,2,r,v,0,,,
4an,VDACtest,67,r,true,749.9000000953674,1,g,v,2,,,
4an,VDACtest,68,r,true,534.5,2,r,v,4,,,
4an,VDACtest,69,r,true,765,1,g,v,1,,,
4an,VDACtest,70,r,true,509.89999997615814,1,g,v,0,,,
4an,VDACtest,71,r,true,564.7000000476837,2,r,h,5,,,
4an,VDACtest,72,r,true,613.1999999284744,2,r,v,4,,,
4an,VDACtest,73,r,true,758.1000000238419,2,r,h,1,,,
4an,VDACtest,74,r,true,589.7000000476837,1,g,v,1,,,
4an,VDACtest,75,r,true,517.7999999523163,2,r,v,5,,,
4an,VDACtest,76,r,true,533.6000000238419,1,g,v,0,,,
4an,VDACtest,77,r,true,598.5,1,g,v,2,,,
4an,VDACtest,78,r,true,549.8000000715256,2,r,h,0,,,
4an,VDACtest,79,r,true,637.3999999761581,1,g,h,1,,,
4an,VDACtest,80,r,true,526,1,g,v,1,,,
4an,VDACtest,81,r,false,630.6000000238419,1,g,v,4,,,
4an,VDACtest,82,r,true,805.5,2,r,h,4,,,
4an,VDACtest,83,r,true,588.5,1,g,v,4,,,
4an,VDACtest,84,r,true,606.3999999761581,1,g,h,5,,,
4an,VDACtest,85,r,true,484.3000000715256,2,r,v,0,,,
4an,VDACtest,86,r,true,539.7000000476837,1,g,v,3,,,
4an,VDACtest,87,r,true,498,1,g,h,2,,,
4an,VDACtest,88,r,true,423.3000000715256,2,r,v,0,,,
4an,VDACtest,89,r,true,445.60000002384186,2,r,v,2,,,
4an,VDACtest,90,r,false,644.6000000238419,2,r,h,0,,,
4an,VDACtest,91,r,true,694.7000000476837,2,r,v,5,,,
4an,VDACtest,92,r,true,628.8000000715256,2,r,h,3,,,
4an,VDACtest,93,r,true,540.7999999523163,1,g,h,3,,,
4an,VDACtest,94,r,true,484.7000000476837,2,r,h,5,,,
4an,VDACtest,95,r,true,541.8999999761581,2,r,h,5,,,
4an,VDACtest,96,r,true,390.2999999523163,2,r,v,1,,,
4an,VDACtest,97,r,true,660.6000000238419,1,g,v,1,,,
4an,VDACtest,98,r,true,589.2999999523163,1,g,h,2,,,
4an,VDACtest,99,r,true,605.4000000953674,1,g,v,0,,,
4an,VDACtest,100,r,true,526.2999999523163,2,r,v,1,,,
brk,brk,brk,brk,brk,brk,brk,brk,brk,brk,brk,brk,
4an,VDACtest,101,r,true,743.7000000476837,1,g,h,0,,,
4an,VDACtest,102,r,true,493.3000000715256,2,r,v,3,,,
4an,VDACtest,103,r,true,471.10000002384186,1,g,v,4,,,
4an,VDACtest,104,r,true,541.3999999761581,2,r,h,4,,,
4an,VDACtest,105,r,true,429.7000000476837,1,g,v,4,,,
4an,VDACtest,106,r,true,508.8000000715256,2,r,h,1,,,
4an,VDACtest,107,r,true,421.40000009536743,2,r,h,1,,,
4an,VDACtest,108,r,true,438.2000000476837,1,g,v,3,,,
4an,VDACtest,109,r,true,461.2000000476837,1,g,v,4,,,
4an,VDACtest,110,r,true,452.7000000476837,1,g,v,1,,,
4an,VDACtest,111,r,true,458.2999999523163,2,r,h,3,,,
4an,VDACtest,112,r,false,541.2999999523163,2,r,h,4,,,
4an,VDACtest,113,r,false,630.9000000953674,2,r,h,0,,,
4an,VDACtest,114,r,false,526.2999999523163,2,r,v,0,,,
4an,VDACtest,115,r,true,629.5999999046326,1,g,h,0,,,
4an,VDACtest,116,r,true,766.6000000238419,1,g,h,1,,,
4an,VDACtest,117,r,true,477.5,2,r,v,3,,,
4an,VDACtest,118,r,true,333.1999999284744,1,g,h,2,,,
4an,VDACtest,119,r,true,540.8999999761581,1,g,h,1,,,
4an,VDACtest,120,r,true,435.40000009536743,1,g,h,3,,,
4an,VDACtest,121,r,true,396.8000000715256,1,g,h,2,,,
4an,VDACtest,122,r,true,412.39999997615814,1,g,v,1,,,
4an,VDACtest,123,r,false,518,1,g,h,0,,,
4an,VDACtest,124,r,true,699.4000000953674,2,r,v,3,,,
4an,VDACtest,125,r,true,630,1,g,v,3,,,
4an,VDACtest,126,r,false,389.2000000476837,1,g,v,3,,,
4an,VDACtest,127,r,true,707,2,r,v,0,,,
4an,VDACtest,128,r,true,565.3999999761581,1,g,h,1,,,
4an,VDACtest,129,r,null,null,1,g,h,4,,,
4an,VDACtest,130,r,true,504.2000000476837,1,g,h,1,,,
4an,VDACtest,131,r,true,478.7000000476837,1,g,v,4,,,
4an,VDACtest,132,r,false,556.7999999523163,2,r,v,3,,,
4an,VDACtest,133,r,true,644.8999999761581,2,r,v,4,,,
4an,VDACtest,134,r,true,685.4000000953674,1,g,h,5,,,
4an,VDACtest,135,r,true,621.7999999523163,1,g,v,3,,,
4an,VDACtest,136,r,false,622.2999999523163,1,g,h,3,,,
4an,VDACtest,137,r,true,652.1000000238419,1,g,v,5,,,
4an,VDACtest,138,r,true,718.1999999284744,2,r,v,5,,,
4an,VDACtest,139,r,true,660.5,1,g,h,4,,,
4an,VDACtest,140,r,true,517.8999999761581,1,g,v,0,,,
4an,VDACtest,141,r,true,525.5,2,r,v,1,,,
4an,VDACtest,142,r,true,589.7000000476837,1,g,h,4,,,
4an,VDACtest,143,r,true,558.5,1,g,v,5,,,
4an,VDACtest,144,r,true,620,2,r,v,4,,,
4an,VDACtest,145,r,true,501.5,1,g,h,5,,,
4an,VDACtest,146,r,false,397.6999999284744,2,r,h,5,,,
4an,VDACtest,147,r,true,820.5,1,g,h,3,,,
4an,VDACtest,148,r,true,629,2,r,h,3,,,
4an,VDACtest,149,r,true,492.39999997615814,2,r,h,4,,,
4an,VDACtest,150,r,true,469.39999997615814,1,g,v,0,,,
brk,brk,brk,brk,brk,brk,brk,brk,brk,brk,brk,brk,
4an,VDACtest,151,r,false,652.5,1,g,h,0,,,
4an,VDACtest,152,r,true,677.8999999761581,2,r,h,3,,,
4an,VDACtest,153,r,true,589.1999999284744,2,r,h,4,,,
4an,VDACtest,154,r,true,815,2,r,v,2,,,
4an,VDACtest,155,r,true,636.5,2,r,v,3,,,
4an,VDACtest,156,r,true,613.6000000238419,2,r,v,2,,,
4an,VDACtest,157,r,true,582.7000000476837,1,g,v,2,,,
4an,VDACtest,158,r,false,333.7000000476837,2,r,h,0,,,
4an,VDACtest,159,r,true,675.9000000953674,2,r,v,2,,,
4an,VDACtest,160,r,true,613.1999999284744,1,g,h,1,,,
4an,VDACtest,161,r,false,605.8999999761581,2,r,v,4,,,
4an,VDACtest,162,r,false,621.5,2,r,v,1,,,
4an,VDACtest,163,r,true,701.1000000238419,2,r,h,5,,,
4an,VDACtest,164,r,true,549.7999999523163,1,g,v,5,,,
4an,VDACtest,165,r,true,461.59999990463257,1,g,v,1,,,
4an,VDACtest,166,r,true,589,2,r,h,5,,,
4an,VDACtest,167,r,false,508.2000000476837,2,r,h,1,,,
4an,VDACtest,168,r,true,725.6000000238419,2,r,h,1,,,
4an,VDACtest,169,r,true,531.5,2,r,v,4,,,
4an,VDACtest,170,r,true,508.39999997615814,1,g,v,4,,,
4an,VDACtest,171,r,false,541.7000000476837,1,g,v,5,,,
4an,VDACtest,172,r,true,508.7999999523163,2,r,v,4,,,
4an,VDACtest,173,r,true,525,2,r,v,5,,,
4an,VDACtest,174,r,true,469,1,g,h,1,,,
4an,VDACtest,175,r,null,null,1,g,h,4,,,
4an,VDACtest,176,r,true,665.2999999523163,1,g,h,4,,,
4an,VDACtest,177,r,false,534,2,r,h,3,,,
4an,VDACtest,178,r,true,694.5,1,g,h,3,,,
4an,VDACtest,179,r,true,676.9000000953674,2,r,h,1,,,
4an,VDACtest,180,r,true,419.60000002384186,2,r,h,2,,,
4an,VDACtest,181,r,true,516.5,2,r,h,0,,,
4an,VDACtest,182,r,true,565.1000000238419,2,r,h,3,,,
4an,VDACtest,183,r,false,741.6999999284744,1,g,v,3,,,
4an,VDACtest,184,r,true,453.8000000715256,2,r,v,0,,,
4an,VDACtest,185,r,false,502.2000000476837,2,r,h,2,,,
4an,VDACtest,186,r,true,662.6000000238419,1,g,h,0,,,
4an,VDACtest,187,r,true,604,1,g,v,1,,,
4an,VDACtest,188,r,true,998,1,g,h,3,,,
4an,VDACtest,189,r,true,710.2999999523163,1,g,v,2,,,
4an,VDACtest,190,r,true,643.1999999284744,2,r,v,0,,,
4an,VDACtest,191,r,true,715.0999999046326,1,g,h,4,,,
4an,VDACtest,192,r,true,974.5,1,g,h,4,,,
4an,VDACtest,193,r,true,755.5,2,r,h,5,,,
4an,VDACtest,194,r,true,557.8999999761581,2,r,h,5,,,
4an,VDACtest,195,r,true,661,1,g,v,2,,,
4an,VDACtest,196,r,true,500.60000002384186,1,g,h,5,,,
4an,VDACtest,197,r,true,683.2000000476837,1,g,h,0,,,
4an,VDACtest,198,r,false,477.89999997615814,2,r,h,0,,,
4an,VDACtest,199,r,true,789.0999999046326,2,r,v,1,,,
4an,VDACtest,200,r,true,637.4000000953674,2,r,v,1,,,
4an,RSVPtrain,0,r,null,null,1,g,,2,2,2,
4an,RSVPtrain,0,r,false,1447.1000000238419,0,b,,1,3,0,
4an,RSVPtrain,0,r,false,584.3999999761581,1,g,,3,0,1,
4an,RSVPtrain,0,r,true,801.2000000476837,2,r,,3,2,1,
4an,RSVPtrain,0,r,true,944.1999999284744,0,b,,3,3,0,
4an,RSVPtrain,0,r,true,832.2000000476837,1,g,,3,1,1,
4an,RSVPtrain,0,r,true,1040.4000000953674,2,r,,1,1,2,
4an,RSVPtrain,0,r,false,857.7000000476837,1,g,,1,0,1,
4an,RSVPtrain,0,r,true,1247.5,0,b,,0,3,0,
4an,RSVPtrain,0,r,true,1481.5,2,r,,0,0,2,
4an,RSVPtest,1,r,true,50.39999997615814,1,g,,1,2,1,
4an,RSVPtest,2,r,true,558.2999999523163,2,r,,3,2,1,
4an,RSVPtest,3,r,true,16.299999952316284,2,r,,0,0,2,
4an,RSVPtest,4,r,true,353.5,2,r,,1,0,1,
4an,RSVPtest,5,r,true,239.5,0,b,,3,3,0,
4an,RSVPtest,6,r,false,137,0,b,,1,3,0,
4an,RSVPtest,7,r,true,96.59999990463257,1,g,,0,0,2,
4an,RSVPtest,8,r,false,118.69999992847443,2,r,,3,2,1,
4an,RSVPtest,9,r,false,190.90000009536743,2,r,,0,2,1,
4an,RSVPtest,10,r,true,55.700000047683716,1,g,,3,1,1,
4an,RSVPtest,11,r,false,200.10000002384186,1,g,,2,0,1,
4an,RSVPtest,12,r,false,88.10000002384186,0,b,,3,3,0,
4an,RSVPtest,13,r,false,39,0,b,,1,3,0,
4an,RSVPtest,14,r,false,24.5,0,b,,1,3,0,
4an,RSVPtest,15,r,true,184.60000002384186,2,r,,2,2,2,
4an,RSVPtest,16,r,false,71.60000002384186,1,g,,2,0,1,
4an,RSVPtest,17,r,true,40.60000002384186,0,b,,3,3,0,
4an,RSVPtest,18,r,true,72.5,2,r,,3,1,1,
4an,RSVPtest,19,r,false,239.69999992847443,0,b,,3,3,0,
4an,RSVPtest,20,r,true,40.299999952316284,2,r,,3,2,1,
4an,RSVPtest,21,r,false,176.69999992847443,2,r,,2,0,1,
4an,RSVPtest,22,r,false,112.29999995231628,0,b,,0,3,0,
4an,RSVPtest,23,r,false,24.59999990463257,2,r,,0,2,1,
4an,RSVPtest,24,r,false,53.699999928474426,0,b,,2,3,0,
4an,RSVPtest,25,r,true,49.5,2,r,,1,1,2,
4an,RSVPtest,26,r,true,47.90000009536743,1,g,,3,1,1,
4an,RSVPtest,27,r,false,223.80000007152557,1,g,,3,0,1,
4an,RSVPtest,28,r,false,193,1,g,,0,1,1,
4an,RSVPtest,29,r,true,16.200000047683716,2,r,,2,0,1,
4an,RSVPtest,30,r,false,63.5,2,r,,3,1,1,
4an,RSVPtest,31,r,false,718.3999999761581,1,g,,2,2,2,
4an,RSVPtest,32,r,true,738.2000000476837,2,r,,1,1,2,
4an,RSVPtest,33,r,false,423.39999997615814,1,g,,2,2,2,
4an,RSVPtest,34,r,false,1354.1999999284744,0,b,,3,3,0,
4an,RSVPtest,35,r,true,1638,2,r,,3,0,1,
4an,RSVPtest,36,r,true,549.7999999523163,1,g,,1,0,1,
4an,RSVPtest,37,r,true,1841.2000000476837,1,g,,3,2,1,
4an,RSVPtest,38,r,true,1083.2999999523163,2,r,,1,0,1,
4an,RSVPtest,39,r,true,322.3000000715256,2,r,,2,0,1,
4an,RSVPtest,40,r,false,1780.3000000715256,2,r,,1,1,2,
4an,RSVPtest,41,r,false,38.39999997615814,0,b,,0,3,0,
4an,RSVPtest,42,r,true,62.200000047683716,2,r,,1,2,1,
4an,RSVPtest,43,r,true,830,2,r,,3,0,1,
4an,RSVPtest,44,r,true,639.2000000476837,2,r,,0,1,1,
4an,RSVPtest,45,r,true,184.40000009536743,1,g,,3,0,1,
4an,RSVPtest,46,r,true,53.200000047683716,1,g,,2,0,1,
4an,RSVPtest,47,r,false,61.5,0,b,,3,3,0,
4an,RSVPtest,48,r,true,180,0,b,,3,3,0,
4an,RSVPtest,49,r,true,203.20000004768372,2,r,,2,1,1,
4an,RSVPtest,50,r,false,165.30000007152557,1,g,,0,1,1,
4an,RSVPtest,51,r,false,46.39999997615814,0,b,,0,3,0,
4an,RSVPtest,52,r,false,54.60000002384186,1,g,,3,0,1,
4an,RSVPtest,53,r,false,524.0999999046326,0,b,,0,3,0,
4an,RSVPtest,54,r,true,144.40000009536743,1,g,,3,2,1,
4an,RSVPtest,55,r,true,62.60000002384186,0,b,,3,3,0,
4an,RSVPtest,56,r,false,191.10000002384186,2,r,,3,1,1,
4an,RSVPtest,57,r,true,679.1000000238419,2,r,,0,2,1,
4an,RSVPtest,58,r,false,231.70000004768372,2,r,,2,2,2,
4an,RSVPtest,59,r,false,302.40000009536743,0,b,,1,3,0,
4an,RSVPtest,60,r,true,312.2000000476837,2,r,,3,2,1,
brk,brk,brk,brk,brk,brk,brk,brk,brk,brk,brk,brk,
4an,RSVPtest,61,r,true,199.39999997615814,0,b,,3,3,0,
4an,RSVPtest,62,r,true,103.29999995231628,1,g,,1,2,1,
4an,RSVPtest,63,r,false,461.89999997615814,2,r,,0,1,1,
4an,RSVPtest,64,r,true,240,1,g,,0,2,1,
4an,RSVPtest,65,r,true,39.5,0,b,,0,3,0,
4an,RSVPtest,66,r,false,327.60000002384186,2,r,,3,1,1,
4an,RSVPtest,67,r,false,269.60000002384186,2,r,,0,0,2,
4an,RSVPtest,68,r,false,200.70000004768372,2,r,,3,2,1,
4an,RSVPtest,69,r,true,286,0,b,,2,3,0,
4an,RSVPtest,70,r,true,358.3000000715256,1,g,,3,0,1,
4an,RSVPtest,71,r,false,335.5,1,g,,1,0,1,
4an,RSVPtest,72,r,true,55.39999997615814,2,r,,2,0,1,
4an,RSVPtest,73,r,true,583.2999999523163,0,b,,0,3,0,
4an,RSVPtest,74,r,true,126.29999995231628,2,r,,1,0,1,
4an,RSVPtest,75,r,true,126.5,2,r,,2,2,2,
4an,RSVPtest,76,r,true,261.2999999523163,2,r,,3,1,1,
4an,RSVPtest,77,r,true,54.60000002384186,1,g,,0,1,1,
4an,RSVPtest,78,r,false,325.2999999523163,2,r,,3,0,1,
4an,RSVPtest,79,r,true,570.5999999046326,2,r,,3,0,1,
4an,RSVPtest,80,r,true,8.299999952316284,1,g,,2,1,1,
4an,RSVPtest,81,r,true,183.20000004768372,1,g,,0,2,1,
4an,RSVPtest,82,r,false,351.2000000476837,0,b,,3,3,0,
4an,RSVPtest,83,r,false,69.60000002384186,1,g,,1,2,1,
4an,RSVPtest,84,r,false,197.39999997615814,2,r,,0,2,1,
4an,RSVPtest,85,r,false,78.5,0,b,,3,3,0,
4an,RSVPtest,86,r,false,71.10000002384186,2,r,,1,1,2,
4an,RSVPtest,87,r,true,69.10000002384186,1,g,,3,1,1,
4an,RSVPtest,88,r,false,534.7999999523163,0,b,,3,3,0,
4an,RSVPtest,89,r,true,438.1999999284744,0,b,,0,3,0,
4an,RSVPtest,90,r,true,339.1999999284744,0,b,,3,3,0,
4an,RSVPtest,91,r,false,415.2999999523163,1,g,,0,0,2,
4an,RSVPtest,92,r,false,116.89999997615814,1,g,,3,1,1,
4an,RSVPtest,93,r,true,95.29999995231628,1,g,,2,2,2,
4an,RSVPtest,94,r,true,62,0,b,,0,3,0,
4an,RSVPtest,95,r,true,286.2999999523163,1,g,,1,1,2,
4an,RSVPtest,96,r,false,94.30000007152557,1,g,,3,1,1,
4an,RSVPtest,97,r,true,14.300000071525574,2,r,,3,0,1,
4an,RSVPtest,98,r,true,236.69999992847443,1,g,,1,0,1,
4an,RSVPtest,99,r,true,1285.8000000715256,2,r,,1,0,1,
4an,RSVPtest,100,r,true,1103,2,r,,3,2,1,
4an,RSVPtest,101,r,false,1053.6999999284744,1,g,,1,0,1,
4an,RSVPtest,102,r,true,237.39999997615814,2,r,,1,2,1,
4an,RSVPtest,103,r,false,832,1,g,,3,0,1,
4an,RSVPtest,104,r,false,389.39999997615814,2,r,,3,2,1,
4an,RSVPtest,105,r,true,107,1,g,,3,2,1,
4an,RSVPtest,106,r,false,273.39999997615814,0,b,,0,3,0,
4an,RSVPtest,107,r,true,37.60000002384186,1,g,,3,0,1,
4an,RSVPtest,108,r,true,46.199999928474426,2,r,,1,2,1,
4an,RSVPtest,109,r,false,37.299999952316284,2,r,,0,1,1,
4an,RSVPtest,110,r,false,22.59999990463257,1,g,,2,0,1,
4an,RSVPtest,111,r,true,260.89999997615814,2,r,,1,1,2,
4an,RSVPtest,112,r,false,326,1,g,,3,1,1,
4an,RSVPtest,113,r,true,318.8000000715256,2,r,,3,0,1,
4an,RSVPtest,114,r,true,1741.1000000238419,2,r,,2,1,1,
4an,RSVPtest,115,r,true,271,0,b,,3,3,0,
4an,RSVPtest,116,r,false,287.5,0,b,,3,3,0,
4an,RSVPtest,117,r,false,199.20000004768372,1,g,,1,2,1,
4an,RSVPtest,118,r,false,390.2000000476837,0,b,,1,3,0,
4an,RSVPtest,119,r,false,70,2,r,,1,2,1,
4an,RSVPtest,120,r,true,0.30000007152557373,1,g,,3,0,1,
brk,brk,brk,brk,brk,brk,brk,brk,brk,brk,brk,brk,
4an,RSVPtest,121,r,null,null,0,b,,2,3,0,
4an,RSVPtest,122,r,false,187.40000009536743,1,g,,1,2,1,
4an,RSVPtest,123,r,false,709.5,1,g,,3,0,1,
4an,RSVPtest,124,r,false,342.3000000715256,2,r,,0,0,2,
4an,RSVPtest,125,r,true,238.30000007152557,0,b,,2,3,0,
4an,RSVPtest,126,r,false,86.39999997615814,0,b,,3,3,0,
4an,RSVPtest,127,r,false,22.899999976158142,0,b,,2,3,0,
4an,RSVPtest,128,r,true,917.1000000238419,2,r,,3,1,1,
4an,RSVPtest,129,r,true,294,2,r,,3,2,1,
4an,RSVPtest,130,r,true,1020,2,r,,2,2,2,
4an,RSVPtest,131,r,true,1784.3000000715256,1,g,,1,1,2,
4an,RSVPtest,132,r,true,244.10000002384186,1,g,,2,1,1,
4an,RSVPtest,133,r,true,5.099999904632568,0,b,,0,3,0,
4an,RSVPtest,134,r,true,166.5,1,g,,1,1,2,
4an,RSVPtest,135,r,true,437,0,b,,1,3,0,
4an,RSVPtest,136,r,true,1949.8000000715256,2,r,,3,1,1,
4an,RSVPtest,137,r,false,348.40000009536743,2,r,,2,0,1,
4an,RSVPtest,138,r,true,373.10000002384186,2,r,,3,1,1,
4an,RSVPtest,139,r,false,60.700000047683716,1,g,,3,1,1,
4an,RSVPtest,140,r,true,67,1,g,,0,0,2,
4an,RSVPtest,141,r,true,67.30000007152557,2,r,,2,0,1,
4an,RSVPtest,142,r,false,117,1,g,,3,2,1,
4an,RSVPtest,143,r,true,5.599999904632568,1,g,,3,2,1,
4an,RSVPtest,144,r,true,16.399999976158142,1,g,,1,1,2,
4an,RSVPtest,145,r,true,23.100000023841858,1,g,,2,1,1,
4an,RSVPtest,146,r,true,182.29999995231628,1,g,,3,0,1,
4an,RSVPtest,147,r,false,13.5,1,g,,3,1,1,
4an,RSVPtest,148,r,true,14.199999928474426,1,g,,1,0,1,
4an,RSVPtest,149,r,false,83.29999995231628,2,r,,1,1,2,
4an,RSVPtest,150,r,false,100.29999995231628,1,g,,0,0,2,
4an,RSVPtest,151,r,true,284.1999999284744,2,r,,1,2,1,
4an,RSVPtest,152,r,true,164.80000007152557,0,b,,1,3,0,
4an,RSVPtest,153,r,false,110.89999997615814,1,g,,2,2,2,
4an,RSVPtest,154,r,true,19.5,2,r,,0,1,1,
4an,RSVPtest,155,r,true,0.19999992847442627,2,r,,3,1,1,
4an,RSVPtest,156,r,false,189.10000002384186,2,r,,2,1,1,
4an,RSVPtest,157,r,true,92.30000007152557,2,r,,3,1,1,
4an,RSVPtest,158,r,false,70.30000007152557,1,g,,3,0,1,
4an,RSVPtest,159,r,false,283.3000000715256,0,b,,3,3,0,
4an,RSVPtest,160,r,true,68.10000002384186,1,g,,1,0,1,
4an,RSVPtest,161,r,false,1132.7999999523163,1,g,,1,1,2,
4an,RSVPtest,162,r,true,644.1000000238419,2,r,,0,2,1,
4an,RSVPtest,163,r,true,99.89999997615814,2,r,,1,0,1,
4an,RSVPtest,164,r,false,230.09999990463257,0,b,,3,3,0,
4an,RSVPtest,165,r,true,13.199999928474426,0,b,,2,3,0,
4an,RSVPtest,166,r,false,198.29999995231628,1,g,,2,1,1,
4an,RSVPtest,167,r,false,1805.5,0,b,,1,3,0,
4an,RSVPtest,168,r,true,85.09999990463257,2,r,,3,0,1,
4an,RSVPtest,169,r,false,134.10000002384186,1,g,,3,0,1,
4an,RSVPtest,170,r,true,53.200000047683716,1,g,,3,2,1,
4an,RSVPtest,171,r,null,null,2,r,,3,2,1,
4an,RSVPtest,172,r,false,60.39999997615814,1,g,,3,1,1,
4an,RSVPtest,173,r,false,0.10000002384185791,1,g,,1,2,1,
4an,RSVPtest,174,r,true,200.20000004768372,1,g,,3,2,1,
4an,RSVPtest,175,r,false,19.600000023841858,2,r,,0,0,2,
4an,RSVPtest,176,r,false,1997.2999999523163,0,b,,1,3,0,
4an,RSVPtest,177,r,true,44.200000047683716,2,r,,3,0,1,
4an,RSVPtest,178,r,true,3.299999952316284,1,g,,0,2,1,
4an,RSVPtest,179,r,false,292.1999999284744,0,b,,3,3,0,
4an,RSVPtest,180,r,false,18.600000023841858,1,g,,2,2,2,
brk,brk,brk,brk,brk,brk,brk,brk,brk,brk,brk,brk,
4an,RSVPtest,181,r,null,null,2,r,,0,1,1,
4an,RSVPtest,182,r,true,1974.7000000476837,0,b,,2,3,0,
4an,RSVPtest,183,r,true,315.89999997615814,2,r,,3,1,1,
4an,RSVPtest,184,r,true,276.89999997615814,1,g,,0,0,2,
4an,RSVPtest,185,r,false,60.199999928474426,1,g,,0,2,1,
4an,RSVPtest,186,r,false,212.19999992847443,1,g,,3,2,1,
4an,RSVPtest,187,r,true,3.200000047683716,0,b,,3,3,0,
4an,RSVPtest,188,r,true,5.800000071525574,1,g,,3,2,1,
4an,RSVPtest,189,r,false,66.80000007152557,2,r,,3,2,1,
4an,RSVPtest,190,r,false,6.900000095367432,2,r,,2,2,2,
4an,RSVPtest,191,r,false,62,0,b,,2,3,0,
4an,RSVPtest,192,r,true,1173,0,b,,3,3,0,
4an,RSVPtest,193,r,true,5.100000023841858,0,b,,0,3,0,
4an,RSVPtest,194,r,false,126,1,g,,3,2,1,
4an,RSVPtest,195,r,false,117.5,1,g,,3,1,1,
4an,RSVPtest,196,r,true,36.39999997615814,2,r,,3,2,1,
4an,RSVPtest,197,r,null,null,2,r,,3,2,1,
4an,RSVPtest,198,r,false,484.10000002384186,1,g,,0,1,1,
4an,RSVPtest,199,r,false,1894,2,r,,3,0,1,
4an,RSVPtest,200,r,true,1394.3999999761581,2,r,,0,0,2,
4an,RSVPtest,201,r,true,1546.6999999284744,1,g,,3,1,1,
4an,RSVPtest,202,r,true,1501.1999999284744,2,r,,3,0,1,
4an,RSVPtest,203,r,true,1804,1,g,,0,1,1,
4an,RSVPtest,204,r,true,778.9000000953674,1,g,,3,1,1,
4an,RSVPtest,205,r,false,1890.6000000238419,1,g,,2,2,2,
4an,RSVPtest,206,r,null,null,1,g,,2,1,1,
4an,RSVPtest,207,r,true,819.2000000476837,1,g,,0,2,1,
4an,RSVPtest,208,r,false,556.6000000238419,0,b,,1,3,0,
4an,RSVPtest,209,r,false,516,1,g,,0,1,1,
4an,RSVPtest,210,r,false,1059.7000000476837,2,r,,1,2,1,
4an,RSVPtest,211,r,true,1862.1000000238419,1,g,,1,1,2,
4an,RSVPtest,212,r,true,2348.600000023842,0,b,,3,3,0,
4an,RSVPtest,213,r,true,1411.2000000476837,2,r,,0,1,1,
4an,RSVPtest,214,r,false,2227.7999999523163,0,b,,2,3,0,
4an,RSVPtest,215,r,false,162.5,0,b,,2,3,0,
4an,RSVPtest,216,r,false,126,2,r,,0,2,1,
4an,RSVPtest,217,r,true,101.19999992847443,1,g,,0,0,2,
4an,RSVPtest,218,r,true,156,0,b,,2,3,0,
4an,RSVPtest,219,r,false,147.19999992847443,2,r,,2,1,1,
4an,RSVPtest,220,r,true,70.09999990463257,1,g,,2,0,1,
4an,RSVPtest,221,r,false,38,1,g,,3,2,1,
4an,RSVPtest,222,r,true,52.5,1,g,,2,0,1,
4an,RSVPtest,223,r,true,67.89999997615814,1,g,,2,1,1,
4an,RSVPtest,224,r,true,197.5,2,r,,3,0,1,
4an,RSVPtest,225,r,true,84.10000002384186,0,b,,0,3,0,
4an,RSVPtest,226,r,false,195.5,1,g,,3,0,1,
4an,RSVPtest,227,r,true,307.6999999284744,2,r,,2,1,1,
4an,RSVPtest,228,r,true,2411.899999976158,2,r,,2,2,2,
4an,RSVPtest,229,r,true,28.299999952316284,1,g,,0,2,1,
4an,RSVPtest,230,r,false,5.600000023841858,2,r,,0,0,2,
4an,RSVPtest,231,r,true,3.399999976158142,0,b,,3,3,0,
4an,RSVPtest,232,r,true,74,0,b,,1,3,0,
4an,RSVPtest,233,r,true,89.39999997615814,0,b,,2,3,0,
4an,RSVPtest,234,r,false,66.89999997615814,2,r,,1,0,1,
4an,RSVPtest,235,r,false,11.100000023841858,2,r,,3,1,1,
4an,RSVPtest,236,r,false,50.700000047683716,2,r,,2,1,1,
4an,RSVPtest,237,r,false,219.39999997615814,0,b,,3,3,0,
4an,RSVPtest,238,r,false,123.80000007152557,0,b,,1,3,0,
4an,RSVPtest,239,r,false,13.100000023841858,2,r,,3,0,1,
4an,RSVPtest,240,r,true,123.29999995231628,1,g,,3,2,1,
