subID,trialType,trialNum,cntBalance,correct,rt,rwdType,tgtCol,tgtDir,tgtPos,colPos,colMatch,
go4,VDACtrain,0,r,null,null,2,r,h,0,,,
go4,VDACtrain,0,r,true,884.7000007629395,1,g,h,3,,,
go4,VDACtrain,0,r,false,816.1999988555908,1,g,h,5,,,
go4,VDACtrain,0,r,null,null,2,r,h,1,,,
go4,VDACtrain,0,r,true,839,2,r,v,3,,,
go4,VDACtrain,0,r,true,808.1000003814697,1,g,v,5,,,
go4,VDACtrain,0,r,null,null,2,r,h,2,,,
go4,VDACtrain,0,r,true,752.7000007629395,1,g,v,0,,,
go4,VDACtrain,0,r,true,544.1999988555908,2,r,v,4,,,
go4,VDACtrain,0,r,true,672.6999988555908,1,g,v,2,,,
go4,VDACtrain,0,r,true,807.7999992370605,2,r,v,4,,,
go4,VDACtrain,0,r,true,657.5,2,r,v,3,,,
go4,VDACtrain,0,r,false,480.3000011444092,1,g,h,5,,,
go4,VDACtrain,0,r,true,800.2000007629395,1,g,v,2,,,
go4,VDACtrain,0,r,true,712.5,2,r,h,2,,,
go4,VDACtrain,0,r,true,592.1000003814697,1,g,v,0,,,
go4,VDACtrain,0,r,true,920.9000015258789,2,r,h,1,,,
go4,VDACtrain,0,r,true,592.5,2,r,h,0,,,
go4,VDACtrain,0,r,true,504.3999996185303,1,g,v,5,,,
go4,VDACtrain,0,r,true,527.5999984741211,1,g,h,3,,,
go4,VDACtest,1,r,true,654.6000003814697,1,g,v,1,,,
go4,VDACtest,2,r,true,607.7000007629395,2,r,v,1,,,
go4,VDACtest,3,r,true,480.3999996185303,1,g,h,0,,,
go4,VDACtest,4,r,true,528.2999992370605,1,g,h,5,,,
go4,VDACtest,5,r,true,609.1000003814697,1,g,h,3,,,
go4,VDACtest,6,r,true,639.3999996185303,2,r,h,1,,,
go4,VDACtest,7,r,true,487.8999996185303,2,r,v,1,,,
go4,VDACtest,8,r,false,544.6999988555908,2,r,v,2,,,
go4,VDACtest,9,r,true,568.6000003814697,1,g,v,3,,,
go4,VDACtest,10,r,true,839.7999992370605,2,r,v,5,,,
go4,VDACtest,11,r,true,576.5,2,r,h,2,,,
go4,VDACtest,12,r,true,583.5,1,g,v,4,,,
go4,VDACtest,13,r,true,592.6000003814697,1,g,h,2,,,
go4,VDACtest,14,r,true,488.0999984741211,1,g,h,3,,,
go4,VDACtest,15,r,false,553.4000015258789,1,g,h,5,,,
go4,VDACtest,16,r,true,520.6000003814697,2,r,h,0,,,
go4,VDACtest,17,r,true,758.5,2,r,v,1,,,
go4,VDACtest,18,r,false,463.8999996185303,1,g,h,4,,,
go4,VDACtest,19,r,true,608.7999992370605,1,g,h,2,,,
go4,VDACtest,20,r,true,655.6999988555908,2,r,v,1,,,
go4,VDACtest,21,r,true,504.4000015258789,1,g,v,2,,,
go4,VDACtest,22,r,true,710.9000015258789,2,r,v,0,,,
go4,VDACtest,23,r,true,998.9000015258789,2,r,v,5,,,
go4,VDACtest,24,r,true,631.3999996185303,2,r,h,3,,,
go4,VDACtest,25,r,true,631.8999996185303,2,r,h,1,,,
go4,VDACtest,26,r,false,455.70000076293945,1,g,h,0,,,
go4,VDACtest,27,r,true,649.7999992370605,2,r,h,4,,,
go4,VDACtest,28,r,true,776.3999996185303,2,r,v,2,,,
go4,VDACtest,29,r,true,549.5,1,g,h,0,,,
go4,VDACtest,30,r,true,836.2999992370605,1,g,h,1,,,
go4,VDACtest,31,r,true,597.3999996185303,2,r,h,2,,,
go4,VDACtest,32,r,true,645.8999996185303,1,g,h,1,,,
go4,VDACtest,33,r,true,750.7999992370605,1,g,h,3,,,
go4,VDACtest,34,r,true,558.5,2,r,h,3,,,
go4,VDACtest,35,r,true,485.6999988555908,2,r,v,4,,,
go4,VDACtest,36,r,false,758.1000003814697,2,r,h,5,,,
go4,VDACtest,37,r,true,677.8000011444092,2,r,v,3,,,
go4,VDACtest,38,r,true,541.2999992370605,2,r,h,3,,,
go4,VDACtest,39,r,true,942.3000011444092,1,g,v,4,,,
go4,VDACtest,40,r,true,710.7999992370605,2,r,v,5,,,
go4,VDACtest,41,r,true,804.8999996185303,1,g,h,5,,,
go4,VDACtest,42,r,null,null,2,r,h,2,,,
go4,VDACtest,43,r,true,570.1000003814697,1,g,h,3,,,
go4,VDACtest,44,r,true,628.5,2,r,h,0,,,
go4,VDACtest,45,r,true,549.2000007629395,1,g,h,2,,,
go4,VDACtest,46,r,true,549,1,g,v,0,,,
go4,VDACtest,47,r,true,741,1,g,v,1,,,
go4,VDACtest,48,r,true,691.3000011444092,1,g,h,5,,,
go4,VDACtest,49,r,true,445.79999923706055,2,r,v,3,,,
go4,VDACtest,50,r,false,404.8000011444092,2,r,v,3,,,
brk,brk,brk,brk,brk,brk,brk,brk,brk,brk,brk,brk,
go4,VDACtest,51,r,null,null,1,g,v,0,,,
go4,VDACtest,52,r,false,591,1,g,v,3,,,
go4,VDACtest,53,r,true,518.0999984741211,1,g,v,3,,,
go4,VDACtest,54,r,false,468.6000003814697,1,g,h,1,,,
go4,VDACtest,55,r,false,564.1000003814697,2,r,h,1,,,
go4,VDACtest,56,r,true,467.6999988555908,2,r,h,4,,,
go4,VDACtest,57,r,true,438.3000011444092,2,r,v,5,,,
go4,VDACtest,58,r,false,438.5,1,g,v,2,,,
go4,VDACtest,59,r,false,413.0999984741211,2,r,h,0,,,
go4,VDACtest,60,r,true,548.7999992370605,2,r,h,4,,,
go4,VDACtest,61,r,true,542.2999992370605,2,r,h,3,,,
go4,VDACtest,62,r,true,437.6000003814697,1,g,v,5,,,
go4,VDACtest,63,r,true,421.6999988555908,1,g,h,3,,,
go4,VDACtest,64,r,true,460.5999984741211,2,r,v,0,,,
go4,VDACtest,65,r,false,404.9000015258789,2,r,v,2,,,
go4,VDACtest,66,r,true,557.6999988555908,2,r,h,1,,,
go4,VDACtest,67,r,true,539.8999996185303,2,r,h,5,,,
go4,VDACtest,68,r,true,477.20000076293945,2,r,h,5,,,
go4,VDACtest,69,r,true,566.1000003814697,1,g,h,0,,,
go4,VDACtest,70,r,true,381.3999996185303,1,g,v,5,,,
go4,VDACtest,71,r,true,590.8999996185303,2,r,h,4,,,
go4,VDACtest,72,r,false,477.29999923706055,2,r,h,0,,,
go4,VDACtest,73,r,true,492.5,1,g,v,5,,,
go4,VDACtest,74,r,false,540.2999992370605,1,g,v,1,,,
go4,VDACtest,75,r,false,646,2,r,v,2,,,
go4,VDACtest,76,r,true,492.8999996185303,1,g,h,4,,,
go4,VDACtest,77,r,true,557.1999988555908,2,r,h,0,,,
go4,VDACtest,78,r,true,398.3000011444092,2,r,v,5,,,
go4,VDACtest,79,r,true,429.0999984741211,2,r,h,3,,,
go4,VDACtest,80,r,true,405.6999988555908,2,r,v,5,,,
go4,VDACtest,81,r,true,581.1000003814697,1,g,h,4,,,
go4,VDACtest,82,r,true,405.8000011444092,2,r,v,5,,,
go4,VDACtest,83,r,true,757.5,2,r,h,3,,,
go4,VDACtest,84,r,false,509.20000076293945,2,r,v,1,,,
go4,VDACtest,85,r,true,602.5,2,r,h,4,,,
go4,VDACtest,86,r,true,539.8999996185303,2,r,v,0,,,
go4,VDACtest,87,r,false,517.7000007629395,1,g,v,0,,,
go4,VDACtest,88,r,true,596.2999992370605,2,r,v,0,,,
go4,VDACtest,89,r,true,516.8999996185303,1,g,v,3,,,
go4,VDACtest,90,r,true,613.2999992370605,2,r,h,1,,,
go4,VDACtest,91,r,true,669.9000015258789,2,r,h,0,,,
go4,VDACtest,92,r,true,438.3000011444092,1,g,v,2,,,
go4,VDACtest,93,r,true,525.7999992370605,2,r,h,5,,,
go4,VDACtest,94,r,true,405.5,2,r,v,0,,,
go4,VDACtest,95,r,true,420.70000076293945,2,r,v,4,,,
go4,VDACtest,96,r,true,478.1999988555908,1,g,v,0,,,
go4,VDACtest,97,r,false,428.1000003814697,2,r,v,4,,,
go4,VDACtest,98,r,true,422.70000076293945,2,r,h,5,,,
go4,VDACtest,99,r,true,380.5,2,r,v,3,,,
go4,VDACtest,100,r,true,524.3000011444092,2,r,v,2,,,
brk,brk,brk,brk,brk,brk,brk,brk,brk,brk,brk,brk,
go4,VDACtest,101,r,true,468,2,r,h,5,,,
go4,VDACtest,102,r,true,559,1,g,h,3,,,
go4,VDACtest,103,r,true,435.79999923706055,1,g,v,4,,,
go4,VDACtest,104,r,true,452.5,1,g,v,0,,,
go4,VDACtest,105,r,true,381.70000076293945,1,g,h,0,,,
go4,VDACtest,106,r,true,571.6999988555908,1,g,h,4,,,
go4,VDACtest,107,r,true,508.5,1,g,h,4,,,
go4,VDACtest,108,r,true,548.3000011444092,1,g,h,4,,,
go4,VDACtest,109,r,true,444.20000076293945,2,r,h,0,,,
go4,VDACtest,110,r,true,501.5999984741211,2,r,v,0,,,
go4,VDACtest,111,r,true,477.3999996185303,1,g,h,1,,,
go4,VDACtest,112,r,false,420.5,2,r,v,3,,,
go4,VDACtest,113,r,true,573.4000015258789,1,g,h,1,,,
go4,VDACtest,114,r,true,452.79999923706055,1,g,h,3,,,
go4,VDACtest,115,r,true,524.6000003814697,1,g,v,5,,,
go4,VDACtest,116,r,true,421,1,g,v,4,,,
go4,VDACtest,117,r,false,404.8999996185303,2,r,v,3,,,
go4,VDACtest,118,r,false,644.2000007629395,1,g,v,1,,,
go4,VDACtest,119,r,true,444.70000076293945,1,g,v,0,,,
go4,VDACtest,120,r,true,636.5,1,g,h,2,,,
go4,VDACtest,121,r,true,725.3000011444092,1,g,h,2,,,
go4,VDACtest,122,r,null,null,2,r,h,4,,,
go4,VDACtest,123,r,true,497.5,1,g,h,2,,,
go4,VDACtest,124,r,true,894.3999996185303,2,r,h,2,,,
go4,VDACtest,125,r,true,636,1,g,h,1,,,
go4,VDACtest,126,r,true,482,1,g,v,3,,,
go4,VDACtest,127,r,true,571.2999992370605,2,r,h,3,,,
go4,VDACtest,128,r,true,429.20000076293945,2,r,h,1,,,
go4,VDACtest,129,r,true,445.8999996185303,1,g,v,2,,,
go4,VDACtest,130,r,true,492.79999923706055,2,r,v,4,,,
go4,VDACtest,131,r,true,581.2999992370605,1,g,v,2,,,
go4,VDACtest,132,r,true,525.7000007629395,2,r,v,4,,,
go4,VDACtest,133,r,true,515.7999992370605,2,r,v,1,,,
go4,VDACtest,134,r,false,460.29999923706055,1,g,h,4,,,
go4,VDACtest,135,r,false,596.7000007629395,2,r,v,0,,,
go4,VDACtest,136,r,true,444.5999984741211,2,r,v,4,,,
go4,VDACtest,137,r,true,414.5999984741211,1,g,v,4,,,
go4,VDACtest,138,r,true,468.0999984741211,2,r,h,1,,,
go4,VDACtest,139,r,true,427.5,2,r,v,4,,,
go4,VDACtest,140,r,true,565.9000015258789,2,r,h,2,,,
go4,VDACtest,141,r,true,388.6000003814697,1,g,v,4,,,
go4,VDACtest,142,r,false,453.3000011444092,1,g,v,3,,,
go4,VDACtest,143,r,false,733,1,g,v,1,,,
go4,VDACtest,144,r,true,454.5,2,r,v,0,,,
go4,VDACtest,145,r,true,455.6000003814697,1,g,v,1,,,
go4,VDACtest,146,r,true,421.5,1,g,v,1,,,
go4,VDACtest,147,r,true,587.7999992370605,1,g,h,5,,,
go4,VDACtest,148,r,true,421.3000011444092,1,g,v,0,,,
go4,VDACtest,149,r,true,446.6000003814697,1,g,v,2,,,
go4,VDACtest,150,r,true,526.3999996185303,1,g,h,3,,,
brk,brk,brk,brk,brk,brk,brk,brk,brk,brk,brk,brk,
go4,VDACtest,151,r,true,761.5999984741211,2,r,v,1,,,
go4,VDACtest,152,r,true,411.3999996185303,1,g,h,4,,,
go4,VDACtest,153,r,false,484.79999923706055,2,r,h,1,,,
go4,VDACtest,154,r,true,564.3999996185303,1,g,v,3,,,
go4,VDACtest,155,r,true,404.1999988555908,1,g,v,5,,,
go4,VDACtest,156,r,true,438.0999984741211,1,g,h,1,,,
go4,VDACtest,157,r,true,445.8999996185303,1,g,v,1,,,
go4,VDACtest,158,r,true,478.79999923706055,1,g,v,3,,,
go4,VDACtest,159,r,true,454.0999984741211,2,r,v,1,,,
go4,VDACtest,160,r,true,468.3000011444092,2,r,v,2,,,
go4,VDACtest,161,r,true,524.0999984741211,1,g,h,1,,,
go4,VDACtest,162,r,true,548.2999992370605,2,r,h,5,,,
go4,VDACtest,163,r,true,653,1,g,h,2,,,
go4,VDACtest,164,r,true,413,2,r,v,2,,,
go4,VDACtest,165,r,true,461,1,g,v,2,,,
go4,VDACtest,166,r,true,507.70000076293945,1,g,h,5,,,
go4,VDACtest,167,r,false,421.1000003814697,2,r,h,4,,,
go4,VDACtest,168,r,true,413.6000003814697,1,g,v,1,,,
go4,VDACtest,169,r,true,493.6999988555908,2,r,v,1,,,
go4,VDACtest,170,r,true,451.70000076293945,2,r,h,4,,,
go4,VDACtest,171,r,true,406,2,r,v,4,,,
go4,VDACtest,172,r,true,419.8999996185303,1,g,v,4,,,
go4,VDACtest,173,r,true,629.3999996185303,1,g,h,1,,,
go4,VDACtest,174,r,true,420.1999988555908,1,g,v,4,,,
go4,VDACtest,175,r,true,379.8999996185303,2,r,v,4,,,
go4,VDACtest,176,r,true,508.8999996185303,2,r,v,3,,,
go4,VDACtest,177,r,false,572.8999996185303,1,g,v,2,,,
go4,VDACtest,178,r,true,436.1999988555908,2,r,v,3,,,
go4,VDACtest,179,r,false,419.8999996185303,1,g,h,4,,,
go4,VDACtest,180,r,true,691.7999992370605,1,g,v,0,,,
go4,VDACtest,181,r,true,526.7000007629395,1,g,h,5,,,
go4,VDACtest,182,r,true,524.0999984741211,1,g,h,0,,,
go4,VDACtest,183,r,true,563.2999992370605,2,r,h,0,,,
go4,VDACtest,184,r,true,542.3000011444092,2,r,h,2,,,
go4,VDACtest,185,r,true,427.29999923706055,1,g,v,5,,,
go4,VDACtest,186,r,true,557,1,g,h,0,,,
go4,VDACtest,187,r,true,501.5,2,r,h,1,,,
go4,VDACtest,188,r,true,515.8999996185303,2,r,h,5,,,
go4,VDACtest,189,r,true,516.7999992370605,1,g,h,0,,,
go4,VDACtest,190,r,true,380.20000076293945,1,g,v,5,,,
go4,VDACtest,191,r,true,419,1,g,h,5,,,
go4,VDACtest,192,r,true,405.6000003814697,2,r,h,4,,,
go4,VDACtest,193,r,true,605.1000003814697,2,r,h,3,,,
go4,VDACtest,194,r,true,467.5,2,r,h,2,,,
go4,VDACtest,195,r,true,429.20000076293945,1,g,v,5,,,
go4,VDACtest,196,r,true,460.3999996185303,2,r,h,2,,,
go4,VDACtest,197,r,true,420.6000003814697,1,g,v,4,,,
go4,VDACtest,198,r,false,422.1000003814697,2,r,v,2,,,
go4,VDACtest,199,r,true,550.4000015258789,2,r,v,5,,,
go4,VDACtest,200,r,true,482.3999996185303,1,g,h,2,,,
go4,RSVPtrain,0,r,true,1638.3000011444092,0,b,,3,3,0,
go4,RSVPtrain,0,r,true,1029.7999992370605,1,g,,2,2,2,
go4,RSVPtrain,0,r,true,1712.8999996185303,1,g,,3,1,1,
go4,RSVPtrain,0,r,false,2135.300001144409,2,r,,1,1,2,
go4,RSVPtrain,0,r,true,1193.7000007629395,0,b,,0,3,0,
go4,RSVPtrain,0,r,true,1926.900001525879,1,g,,1,0,1,
go4,RSVPtrain,0,r,true,1465.2000007629395,1,g,,3,0,1,
go4,RSVPtrain,0,r,true,1790.5,0,b,,1,3,0,
go4,RSVPtrain,0,r,true,1265.2999992370605,2,r,,3,2,1,
go4,RSVPtrain,0,r,true,1047.7000007629395,2,r,,0,0,2,
go4,RSVPtest,1,r,true,878.3000011444092,2,r,,2,0,1,
go4,RSVPtest,2,r,true,1518.2000007629395,2,r,,3,2,1,
go4,RSVPtest,3,r,false,1366.6000003814697,2,r,,1,1,2,
go4,RSVPtest,4,r,true,1973.1999988555908,0,b,,0,3,0,
go4,RSVPtest,5,r,true,1421.3000011444092,1,g,,0,2,1,
go4,RSVPtest,6,r,false,1154,1,g,,3,2,1,
go4,RSVPtest,7,r,true,1215.5,0,b,,0,3,0,
go4,RSVPtest,8,r,true,844.7999992370605,0,b,,0,3,0,
go4,RSVPtest,9,r,true,1376,2,r,,2,0,1,
go4,RSVPtest,10,r,true,902.2999992370605,1,g,,1,0,1,
go4,RSVPtest,11,r,true,1467.3999996185303,1,g,,3,2,1,
go4,RSVPtest,12,r,true,960.1000003814697,1,g,,3,2,1,
go4,RSVPtest,13,r,true,1887.5,0,b,,2,3,0,
go4,RSVPtest,14,r,true,711,2,r,,3,0,1,
go4,RSVPtest,15,r,true,1295.7999992370605,1,g,,0,1,1,
go4,RSVPtest,16,r,true,982.5,2,r,,3,1,1,
go4,RSVPtest,17,r,true,584,0,b,,2,3,0,
go4,RSVPtest,18,r,true,616.6000003814697,2,r,,1,1,2,
go4,RSVPtest,19,r,true,736.8000011444092,1,g,,3,0,1,
go4,RSVPtest,20,r,true,456.5,1,g,,1,1,2,
go4,RSVPtest,21,r,true,647.3000011444092,1,g,,3,1,1,
go4,RSVPtest,22,r,true,983.1000003814697,1,g,,3,2,1,
go4,RSVPtest,23,r,true,830.3000011444092,2,r,,3,0,1,
go4,RSVPtest,24,r,true,1532.8999996185303,0,b,,1,3,0,
go4,RSVPtest,25,r,true,657,0,b,,3,3,0,
go4,RSVPtest,26,r,true,726.2999992370605,0,b,,3,3,0,
go4,RSVPtest,27,r,true,653.1000003814697,0,b,,3,3,0,
go4,RSVPtest,28,r,true,640.4000015258789,2,r,,2,0,1,
go4,RSVPtest,29,r,true,823.3999996185303,1,g,,3,1,1,
go4,RSVPtest,30,r,true,439.29999923706055,0,b,,3,3,0,
go4,RSVPtest,31,r,true,696.7000007629395,0,b,,3,3,0,
go4,RSVPtest,32,r,true,884.4000015258789,0,b,,0,3,0,
go4,RSVPtest,33,r,true,463.29999923706055,2,r,,0,2,1,
go4,RSVPtest,34,r,true,2175.1000003814697,2,r,,2,1,1,
go4,RSVPtest,35,r,true,559.8999996185303,0,b,,2,3,0,
go4,RSVPtest,36,r,true,1206.2000007629395,2,r,,3,2,1,
go4,RSVPtest,37,r,true,783.7999992370605,1,g,,0,2,1,
go4,RSVPtest,38,r,true,446,1,g,,2,0,1,
go4,RSVPtest,39,r,true,632.5,2,r,,0,2,1,
go4,RSVPtest,40,r,true,799.7000007629395,1,g,,0,2,1,
go4,RSVPtest,41,r,true,607.9000015258789,2,r,,1,2,1,
go4,RSVPtest,42,r,false,1055.7999992370605,2,r,,2,2,2,
go4,RSVPtest,43,r,true,614.1000003814697,1,g,,1,0,1,
go4,RSVPtest,44,r,true,694.6000003814697,2,r,,0,0,2,
go4,RSVPtest,45,r,false,2153.3999996185303,2,r,,3,1,1,
go4,RSVPtest,46,r,true,615.0999984741211,0,b,,1,3,0,
go4,RSVPtest,47,r,true,465.6000003814697,2,r,,2,0,1,
go4,RSVPtest,48,r,true,444.8999996185303,1,g,,2,1,1,
go4,RSVPtest,49,r,true,655,1,g,,3,0,1,
go4,RSVPtest,50,r,true,1966,2,r,,3,2,1,
go4,RSVPtest,51,r,false,640,1,g,,3,1,1,
go4,RSVPtest,52,r,true,773.8000011444092,1,g,,3,1,1,
go4,RSVPtest,53,r,true,1038.099998474121,0,b,,0,3,0,
go4,RSVPtest,54,r,true,591.1000003814697,1,g,,1,0,1,
go4,RSVPtest,55,r,true,790.0999984741211,2,r,,3,2,1,
go4,RSVPtest,56,r,true,935.1000003814697,1,g,,3,1,1,
go4,RSVPtest,57,r,true,743.6000003814697,2,r,,1,0,1,
go4,RSVPtest,58,r,true,773.5,1,g,,3,1,1,
go4,RSVPtest,59,r,true,781.3000011444092,2,r,,3,2,1,
go4,RSVPtest,60,r,true,1085.6999988555908,1,g,,0,1,1,
brk,brk,brk,brk,brk,brk,brk,brk,brk,brk,brk,brk,
go4,RSVPtest,61,r,true,789.2000007629395,1,g,,0,1,1,
go4,RSVPtest,62,r,true,1860,2,r,,3,1,1,
go4,RSVPtest,63,r,true,1206.3999996185303,0,b,,3,3,0,
go4,RSVPtest,64,r,true,558.1000003814697,2,r,,1,2,1,
go4,RSVPtest,65,r,true,798.8999996185303,0,b,,3,3,0,
go4,RSVPtest,66,r,false,1334.8000011444092,1,g,,3,2,1,
go4,RSVPtest,67,r,true,1030.1999988555908,1,g,,3,0,1,
go4,RSVPtest,68,r,true,1004.9000015258789,2,r,,2,1,1,
go4,RSVPtest,69,r,true,748.8000011444092,1,g,,1,2,1,
go4,RSVPtest,70,r,true,716.3999996185303,1,g,,3,1,1,
go4,RSVPtest,71,r,true,832.5,1,g,,2,2,2,
go4,RSVPtest,72,r,true,1350.1999988555908,1,g,,2,2,2,
go4,RSVPtest,73,r,true,958.6000003814697,0,b,,2,3,0,
go4,RSVPtest,74,r,true,844,0,b,,0,3,0,
go4,RSVPtest,75,r,true,632,0,b,,1,3,0,
go4,RSVPtest,76,r,true,679.7999992370605,1,g,,2,2,2,
go4,RSVPtest,77,r,true,421.5,1,g,,2,1,1,
go4,RSVPtest,78,r,true,557.7999992370605,1,g,,3,1,1,
go4,RSVPtest,79,r,true,430.20000076293945,1,g,,0,0,2,
go4,RSVPtest,80,r,true,710.3999996185303,0,b,,3,3,0,
go4,RSVPtest,81,r,true,1163.6000003814697,2,r,,3,0,1,
go4,RSVPtest,82,r,true,757.3000011444092,2,r,,3,1,1,
go4,RSVPtest,83,r,false,1101.7999992370605,2,r,,3,0,1,
go4,RSVPtest,84,r,false,861.8999996185303,0,b,,3,3,0,
go4,RSVPtest,85,r,true,1342.2999992370605,0,b,,3,3,0,
go4,RSVPtest,86,r,false,632.3999996185303,1,g,,2,0,1,
go4,RSVPtest,87,r,true,644.2999992370605,0,b,,1,3,0,
go4,RSVPtest,88,r,true,917.8999996185303,2,r,,0,2,1,
go4,RSVPtest,89,r,true,548.0999984741211,2,r,,0,2,1,
go4,RSVPtest,90,r,true,600.8999996185303,0,b,,2,3,0,
go4,RSVPtest,91,r,true,446,2,r,,1,2,1,
go4,RSVPtest,92,r,true,835.2999992370605,1,g,,3,0,1,
go4,RSVPtest,93,r,true,629.7000007629395,0,b,,3,3,0,
go4,RSVPtest,94,r,true,1078.1000003814697,1,g,,3,0,1,
go4,RSVPtest,95,r,true,687.2000007629395,2,r,,2,0,1,
go4,RSVPtest,96,r,true,669.5,1,g,,2,1,1,
go4,RSVPtest,97,r,true,1158.6000003814697,1,g,,3,2,1,
go4,RSVPtest,98,r,true,595.6000003814697,1,g,,3,0,1,
go4,RSVPtest,99,r,true,1045.5,2,r,,3,0,1,
go4,RSVPtest,100,r,false,571.7999992370605,1,g,,0,0,2,
go4,RSVPtest,101,r,true,451.3000011444092,2,r,,0,1,1,
go4,RSVPtest,102,r,true,739.5,0,b,,1,3,0,
go4,RSVPtest,103,r,true,495.1999988555908,1,g,,0,1,1,
go4,RSVPtest,104,r,true,523.2000007629395,1,g,,0,2,1,
go4,RSVPtest,105,r,true,718,1,g,,0,0,2,
go4,RSVPtest,106,r,true,612.8000011444092,2,r,,1,1,2,
go4,RSVPtest,107,r,true,559,2,r,,1,0,1,
go4,RSVPtest,108,r,true,487,1,g,,1,1,2,
go4,RSVPtest,109,r,true,837.2000007629395,0,b,,3,3,0,
go4,RSVPtest,110,r,true,1412.7000007629395,0,b,,2,3,0,
go4,RSVPtest,111,r,true,622.6000003814697,2,r,,3,0,1,
go4,RSVPtest,112,r,true,626.8999996185303,1,g,,1,2,1,
go4,RSVPtest,113,r,true,853,2,r,,2,1,1,
go4,RSVPtest,114,r,true,516.2999992370605,1,g,,0,0,2,
go4,RSVPtest,115,r,true,516.3999996185303,2,r,,2,2,2,
go4,RSVPtest,116,r,true,948,0,b,,3,3,0,
go4,RSVPtest,117,r,true,779.6000003814697,0,b,,3,3,0,
go4,RSVPtest,118,r,true,1068.6999988555908,2,r,,3,2,1,
go4,RSVPtest,119,r,true,1013.6000003814697,2,r,,3,1,1,
go4,RSVPtest,120,r,true,629.2000007629395,2,r,,2,1,1,
brk,brk,brk,brk,brk,brk,brk,brk,brk,brk,brk,brk,
go4,RSVPtest,121,r,true,684.3999996185303,1,g,,3,0,1,
go4,RSVPtest,122,r,true,1508.8999996185303,1,g,,3,2,1,
go4,RSVPtest,123,r,false,608.9000015258789,1,g,,2,2,2,
go4,RSVPtest,124,r,true,1136.3999996185303,0,b,,3,3,0,
go4,RSVPtest,125,r,true,540.3000011444092,2,r,,1,2,1,
go4,RSVPtest,126,r,true,1086.5,2,r,,0,1,1,
go4,RSVPtest,127,r,true,924.4000015258789,2,r,,3,2,1,
go4,RSVPtest,128,r,true,1068.6999988555908,0,b,,0,3,0,
go4,RSVPtest,129,r,true,2031,2,r,,0,2,1,
go4,RSVPtest,130,r,false,989.6999988555908,2,r,,3,2,1,
go4,RSVPtest,131,r,false,1919.6000003814697,2,r,,1,0,1,
go4,RSVPtest,132,r,true,787.3000011444092,0,b,,2,3,0,
go4,RSVPtest,133,r,true,710.1000003814697,2,r,,3,1,1,
go4,RSVPtest,134,r,true,763.7000007629395,0,b,,3,3,0,
go4,RSVPtest,135,r,true,620.1000003814697,1,g,,1,2,1,
go4,RSVPtest,136,r,true,1090.2000007629395,2,r,,3,0,1,
go4,RSVPtest,137,r,null,null,2,r,,3,0,1,
go4,RSVPtest,138,r,true,507,2,r,,2,1,1,
go4,RSVPtest,139,r,true,702.5,1,g,,3,0,1,
go4,RSVPtest,140,r,true,571.8999996185303,1,g,,3,1,1,
go4,RSVPtest,141,r,true,452.29999923706055,0,b,,2,3,0,
go4,RSVPtest,142,r,true,1060.099998474121,0,b,,0,3,0,
go4,RSVPtest,143,r,false,710,2,r,,1,2,1,
go4,RSVPtest,144,r,true,475.20000076293945,1,g,,1,2,1,
go4,RSVPtest,145,r,true,756.5999984741211,0,b,,3,3,0,
go4,RSVPtest,146,r,true,1285.1999988555908,0,b,,0,3,0,
go4,RSVPtest,147,r,true,572.2999992370605,1,g,,1,1,2,
go4,RSVPtest,148,r,true,476.8999996185303,0,b,,0,3,0,
go4,RSVPtest,149,r,true,401.6999988555908,0,b,,0,3,0,
go4,RSVPtest,150,r,true,740,2,r,,1,0,1,
go4,RSVPtest,151,r,true,555.5,2,r,,1,1,2,
go4,RSVPtest,152,r,true,477.6000003814697,2,r,,1,2,1,
go4,RSVPtest,153,r,true,707.1000003814697,1,g,,0,0,2,
go4,RSVPtest,154,r,true,565.2999992370605,2,r,,1,1,2,
go4,RSVPtest,155,r,true,445.8000011444092,1,g,,2,0,1,
go4,RSVPtest,156,r,true,659.2999992370605,2,r,,3,2,1,
go4,RSVPtest,157,r,true,612.2000007629395,0,b,,1,3,0,
go4,RSVPtest,158,r,true,621.1999988555908,1,g,,3,1,1,
go4,RSVPtest,159,r,true,550.1000003814697,1,g,,1,0,1,
go4,RSVPtest,160,r,true,466.79999923706055,2,r,,0,1,1,
go4,RSVPtest,161,r,false,757.6000003814697,1,g,,2,0,1,
go4,RSVPtest,162,r,true,702.2999992370605,1,g,,3,0,1,
go4,RSVPtest,163,r,true,691.3999996185303,1,g,,3,0,1,
go4,RSVPtest,164,r,true,759,1,g,,2,2,2,
go4,RSVPtest,165,r,true,707,2,r,,3,0,1,
go4,RSVPtest,166,r,true,654.1000003814697,1,g,,3,2,1,
go4,RSVPtest,167,r,true,517.5999984741211,2,r,,2,2,2,
go4,RSVPtest,168,r,true,662,2,r,,3,1,1,
go4,RSVPtest,169,r,false,916.5,1,g,,1,1,2,
go4,RSVPtest,170,r,false,1036.7000007629395,1,g,,3,1,1,
go4,RSVPtest,171,r,true,1240,1,g,,2,2,2,
go4,RSVPtest,172,r,true,613.1999988555908,2,r,,3,0,1,
go4,RSVPtest,173,r,true,916.3999996185303,1,g,,1,1,2,
go4,RSVPtest,174,r,true,508.4000015258789,2,r,,1,0,1,
go4,RSVPtest,175,r,true,588.6000003814697,2,r,,2,2,2,
go4,RSVPtest,176,r,true,684.7999992370605,0,b,,3,3,0,
go4,RSVPtest,177,r,false,619.8000011444092,0,b,,1,3,0,
go4,RSVPtest,178,r,true,558.6000003814697,2,r,,3,0,1,
go4,RSVPtest,179,r,true,707.2999992370605,1,g,,3,2,1,
go4,RSVPtest,180,r,true,716.8999996185303,2,r,,3,1,1,
brk,brk,brk,brk,brk,brk,brk,brk,brk,brk,brk,brk,
go4,RSVPtest,181,r,true,479.70000076293945,1,g,,2,0,1,
go4,RSVPtest,182,r,false,587.8000011444092,0,b,,2,3,0,
go4,RSVPtest,183,r,true,532.6000003814697,0,b,,3,3,0,
go4,RSVPtest,184,r,true,628.6999988555908,2,r,,3,2,1,
go4,RSVPtest,185,r,true,861.6000003814697,1,g,,3,0,1,
go4,RSVPtest,186,r,true,492.8000011444092,1,g,,1,2,1,
go4,RSVPtest,187,r,true,579.5,0,b,,3,3,0,
go4,RSVPtest,188,r,true,410.6000003814697,1,g,,0,2,1,
go4,RSVPtest,189,r,true,605.7999992370605,2,r,,3,1,1,
go4,RSVPtest,190,r,true,506.20000076293945,1,g,,0,2,1,
go4,RSVPtest,191,r,true,692,2,r,,2,0,1,
go4,RSVPtest,192,r,true,927.7000007629395,1,g,,3,2,1,
go4,RSVPtest,193,r,true,605.2000007629395,0,b,,0,3,0,
go4,RSVPtest,194,r,true,379.3999996185303,0,b,,2,3,0,
go4,RSVPtest,195,r,true,541,2,r,,3,2,1,
go4,RSVPtest,196,r,false,1679.7999992370605,1,g,,2,0,1,
go4,RSVPtest,197,r,true,637.7999992370605,2,r,,0,0,2,
go4,RSVPtest,198,r,true,435.6999988555908,0,b,,1,3,0,
go4,RSVPtest,199,r,false,715.5,1,g,,2,1,1,
go4,RSVPtest,200,r,true,660.0999984741211,1,g,,3,0,1,
go4,RSVPtest,201,r,true,659.6000003814697,2,r,,0,1,1,
go4,RSVPtest,202,r,true,742.8000011444092,2,r,,0,0,2,
go4,RSVPtest,203,r,true,773.8999996185303,0,b,,3,3,0,
go4,RSVPtest,204,r,false,596.1999988555908,2,r,,1,1,2,
go4,RSVPtest,205,r,true,514.2000007629395,0,b,,1,3,0,
go4,RSVPtest,206,r,true,482.1999988555908,1,g,,3,2,1,
go4,RSVPtest,207,r,true,620.5,1,g,,1,2,1,
go4,RSVPtest,208,r,true,562.7000007629395,2,r,,3,1,1,
go4,RSVPtest,209,r,false,588.3999996185303,1,g,,2,1,1,
go4,RSVPtest,210,r,true,443.8000011444092,0,b,,2,3,0,
go4,RSVPtest,211,r,true,563.8999996185303,2,r,,3,2,1,
go4,RSVPtest,212,r,true,653.1000003814697,0,b,,3,3,0,
go4,RSVPtest,213,r,true,613.5999984741211,1,g,,1,1,2,
go4,RSVPtest,214,r,true,534,2,r,,3,0,1,
go4,RSVPtest,215,r,false,675.5,1,g,,0,1,1,
go4,RSVPtest,216,r,true,475.6000003814697,0,b,,1,3,0,
go4,RSVPtest,217,r,true,484.8000011444092,1,g,,1,0,1,
go4,RSVPtest,218,r,false,571.6999988555908,1,g,,2,1,1,
go4,RSVPtest,219,r,true,595,1,g,,3,1,1,
go4,RSVPtest,220,r,true,594,1,g,,3,2,1,
go4,RSVPtest,221,r,true,507.1000003814697,0,b,,3,3,0,
go4,RSVPtest,222,r,true,778.1000003814697,2,r,,3,1,1,
go4,RSVPtest,223,r,false,611.3000011444092,1,g,,1,0,1,
go4,RSVPtest,224,r,true,908,2,r,,2,1,1,
go4,RSVPtest,225,r,true,427.6999988555908,2,r,,2,2,2,
go4,RSVPtest,226,r,true,425.70000076293945,1,g,,0,0,2,
go4,RSVPtest,227,r,false,476.5,2,r,,0,1,1,
go4,RSVPtest,228,r,true,456.4000015258789,1,g,,0,1,1,
go4,RSVPtest,229,r,true,466.79999923706055,2,r,,0,1,1,
go4,RSVPtest,230,r,true,684.2000007629395,2,r,,3,1,1,
go4,RSVPtest,231,r,false,667.1000003814697,0,b,,1,3,0,
go4,RSVPtest,232,r,true,817.7000007629395,0,b,,2,3,0,
go4,RSVPtest,233,r,true,612.3999996185303,2,r,,2,2,2,
go4,RSVPtest,234,r,true,754.6000003814697,2,r,,0,2,1,
go4,RSVPtest,235,r,true,644.5,2,r,,0,0,2,
go4,RSVPtest,236,r,false,724.5,0,b,,3,3,0,
go4,RSVPtest,237,r,true,530.7000007629395,2,r,,0,0,2,
go4,RSVPtest,238,r,true,641.3999996185303,2,r,,1,0,1,
go4,RSVPtest,239,r,true,784.5,0,b,,1,3,0,
go4,RSVPtest,240,r,true,484.6000003814697,2,r,,0,0,2,
