subID,trialType,trialNum,cntBalance,correct,rt,rwdType,tgtCol,tgtDir,tgtPos,colPos,colMatch,
akm,VDACtrain,0,r,null,null,2,r,h,0,,,
akm,VDACtrain,0,r,null,null,2,r,v,4,,,
akm,VDACtrain,0,r,null,null,1,g,v,2,,,
akm,VDACtrain,0,r,true,618.2999999970198,1,g,v,0,,,
akm,VDACtrain,0,r,true,746.4000000059605,2,r,h,2,,,
akm,VDACtrain,0,r,null,null,1,g,h,3,,,
akm,VDACtrain,0,r,null,null,2,r,h,1,,,
akm,VDACtrain,0,r,true,934.9000000059605,1,g,h,5,,,
akm,VDACtrain,0,r,true,620.2999999970198,2,r,v,3,,,
akm,VDACtrain,0,r,null,null,1,g,v,5,,,
akm,VDACtrain,0,r,null,null,2,r,h,1,,,
akm,VDACtrain,0,r,true,663.5,1,g,v,5,,,
akm,VDACtrain,0,r,null,null,2,r,v,3,,,
akm,VDACtrain,0,r,null,null,2,r,h,2,,,
akm,VDACtrain,0,r,false,868.7999999970198,1,g,h,3,,,
akm,VDACtrain,0,r,false,762.1000000089407,1,g,v,2,,,
akm,VDACtrain,0,r,null,null,2,r,h,0,,,
akm,VDACtrain,0,r,true,732.4000000059605,1,g,h,5,,,
akm,VDACtrain,0,r,true,712.4000000059605,1,g,v,0,,,
akm,VDACtrain,0,r,false,740.5,2,r,v,4,,,
akm,VDACtest,1,r,true,974.7000000029802,1,g,v,4,,,
akm,VDACtest,2,r,false,730,2,r,v,0,,,
akm,VDACtest,3,r,true,835.4000000059605,1,g,v,4,,,
akm,VDACtest,4,r,true,803,1,g,v,2,,,
akm,VDACtest,5,r,true,683.0999999940395,2,r,h,3,,,
akm,VDACtest,6,r,true,858.5,1,g,v,1,,,
akm,VDACtest,7,r,true,540.7999999970198,2,r,h,4,,,
akm,VDACtest,8,r,false,451.09999999403954,1,g,h,4,,,
akm,VDACtest,9,r,true,538.8999999910593,1,g,h,5,,,
akm,VDACtest,10,r,true,568.8000000119209,2,r,v,2,,,
akm,VDACtest,11,r,true,802.8999999910593,1,g,v,2,,,
akm,VDACtest,12,r,true,529.7999999970198,1,g,v,2,,,
akm,VDACtest,13,r,true,758.9000000059605,1,g,v,1,,,
akm,VDACtest,14,r,true,533.0999999940395,1,g,v,1,,,
akm,VDACtest,15,r,true,386.8999999910593,1,g,v,4,,,
akm,VDACtest,16,r,true,554.5999999940395,2,r,h,5,,,
akm,VDACtest,17,r,true,578.5999999940395,2,r,v,3,,,
akm,VDACtest,18,r,true,578.2999999970198,1,g,h,4,,,
akm,VDACtest,19,r,true,562.7999999970198,1,g,v,3,,,
akm,VDACtest,20,r,true,682.3999999910593,1,g,v,2,,,
akm,VDACtest,21,r,true,564.2999999970198,1,g,v,5,,,
akm,VDACtest,22,r,true,643.1000000089407,1,g,h,2,,,
akm,VDACtest,23,r,true,672.6999999880791,2,r,h,4,,,
akm,VDACtest,24,r,false,507.29999999701977,1,g,h,1,,,
akm,VDACtest,25,r,true,850.5999999940395,1,g,h,2,,,
akm,VDACtest,26,r,true,657.6999999880791,1,g,h,4,,,
akm,VDACtest,27,r,true,499.6000000089407,1,g,v,4,,,
akm,VDACtest,28,r,false,682.7999999970198,1,g,h,2,,,
akm,VDACtest,29,r,true,746.5999999940395,1,g,h,5,,,
akm,VDACtest,30,r,true,761,1,g,v,2,,,
akm,VDACtest,31,r,true,562.7999999970198,2,r,v,0,,,
akm,VDACtest,32,r,true,601.7000000029802,2,r,h,2,,,
akm,VDACtest,33,r,true,955.2000000029802,1,g,v,3,,,
akm,VDACtest,34,r,false,577.1999999880791,2,r,v,0,,,
akm,VDACtest,35,r,true,729.6999999880791,2,r,v,5,,,
akm,VDACtest,36,r,true,539.2999999970198,1,g,v,0,,,
akm,VDACtest,37,r,true,451.30000001192093,1,g,v,0,,,
akm,VDACtest,38,r,true,604.6000000089407,1,g,h,3,,,
akm,VDACtest,39,r,true,523.2000000029802,1,g,h,0,,,
akm,VDACtest,40,r,true,522.9000000059605,1,g,v,2,,,
akm,VDACtest,41,r,true,450.5,1,g,v,5,,,
akm,VDACtest,42,r,true,542.3999999910593,2,r,h,4,,,
akm,VDACtest,43,r,true,675.7999999970198,1,g,h,0,,,
akm,VDACtest,44,r,false,617.6000000089407,1,g,h,4,,,
akm,VDACtest,45,r,true,634.2000000029802,1,g,h,1,,,
akm,VDACtest,46,r,true,659.0999999940395,1,g,h,2,,,
akm,VDACtest,47,r,true,690.6000000089407,2,r,v,5,,,
akm,VDACtest,48,r,true,562.2999999970198,1,g,h,5,,,
akm,VDACtest,49,r,true,643.1000000089407,2,r,h,2,,,
akm,VDACtest,50,r,true,602.9000000059605,1,g,v,4,,,
brk,brk,brk,brk,brk,brk,brk,brk,brk,brk,brk,brk,
akm,VDACtest,51,r,true,870.4000000059605,1,g,v,4,,,
akm,VDACtest,52,r,true,874.9000000059605,2,r,v,3,,,
akm,VDACtest,53,r,true,642.5,1,g,h,0,,,
akm,VDACtest,54,r,true,708.0999999940395,2,r,v,3,,,
akm,VDACtest,55,r,true,627.3000000119209,2,r,v,2,,,
akm,VDACtest,56,r,true,875.2999999970198,1,g,v,5,,,
akm,VDACtest,57,r,true,737.2999999970198,1,g,v,2,,,
akm,VDACtest,58,r,true,810.8999999910593,2,r,h,3,,,
akm,VDACtest,59,r,true,691.6000000089407,1,g,h,2,,,
akm,VDACtest,60,r,true,714.9000000059605,1,g,h,3,,,
akm,VDACtest,61,r,true,585.7999999970198,2,r,h,0,,,
akm,VDACtest,62,r,true,571.1000000089407,2,r,v,2,,,
akm,VDACtest,63,r,true,698.2999999970198,2,r,h,1,,,
akm,VDACtest,64,r,true,641.9000000059605,2,r,h,0,,,
akm,VDACtest,65,r,true,546.5,2,r,v,4,,,
akm,VDACtest,66,r,true,618.7000000029802,2,r,h,1,,,
akm,VDACtest,67,r,true,706.3000000119209,2,r,v,4,,,
akm,VDACtest,68,r,true,514.4000000059605,2,r,h,3,,,
akm,VDACtest,69,r,null,null,1,g,v,3,,,
akm,VDACtest,70,r,true,643.1000000089407,2,r,h,3,,,
akm,VDACtest,71,r,true,568.5999999940395,1,g,v,3,,,
akm,VDACtest,72,r,true,643.3999999910593,2,r,h,4,,,
akm,VDACtest,73,r,true,682.5999999940395,2,r,v,2,,,
akm,VDACtest,74,r,true,512.7000000029802,1,g,h,4,,,
akm,VDACtest,75,r,false,786.2999999970198,2,r,v,1,,,
akm,VDACtest,76,r,true,579.7999999970198,1,g,v,1,,,
akm,VDACtest,77,r,true,649,2,r,h,1,,,
akm,VDACtest,78,r,true,730.9000000059605,2,r,v,1,,,
akm,VDACtest,79,r,true,715.0999999940395,1,g,v,4,,,
akm,VDACtest,80,r,true,594.8000000119209,2,r,v,4,,,
akm,VDACtest,81,r,true,611.5,1,g,h,3,,,
akm,VDACtest,82,r,true,667.0999999940395,2,r,h,5,,,
akm,VDACtest,83,r,true,601.5999999940395,2,r,v,5,,,
akm,VDACtest,84,r,true,811,2,r,v,0,,,
akm,VDACtest,85,r,true,826.7999999970198,2,r,v,4,,,
akm,VDACtest,86,r,true,538.7000000029802,1,g,v,0,,,
akm,VDACtest,87,r,true,715.5999999940395,1,g,h,0,,,
akm,VDACtest,88,r,true,610.2000000029802,1,g,v,3,,,
akm,VDACtest,89,r,true,649.9000000059605,2,r,h,4,,,
akm,VDACtest,90,r,true,642.2000000029802,2,r,v,4,,,
akm,VDACtest,91,r,true,675.5,1,g,h,1,,,
akm,VDACtest,92,r,true,545.2999999970198,1,g,h,3,,,
akm,VDACtest,93,r,true,658.3000000119209,2,r,v,4,,,
akm,VDACtest,94,r,true,602.2999999970198,2,r,h,0,,,
akm,VDACtest,95,r,true,722.0999999940395,1,g,h,1,,,
akm,VDACtest,96,r,true,723.7000000029802,1,g,h,2,,,
akm,VDACtest,97,r,true,722.5999999940395,1,g,v,3,,,
akm,VDACtest,98,r,true,920.0999999940395,1,g,v,5,,,
akm,VDACtest,99,r,true,475.1000000089407,1,g,h,0,,,
akm,VDACtest,100,r,true,680.6999999880791,2,r,h,2,,,
brk,brk,brk,brk,brk,brk,brk,brk,brk,brk,brk,brk,
akm,VDACtest,101,r,true,944.1000000089407,1,g,h,1,,,
akm,VDACtest,102,r,true,818.5999999940395,1,g,h,5,,,
akm,VDACtest,103,r,true,661.5,2,r,h,5,,,
akm,VDACtest,104,r,true,538,1,g,v,1,,,
akm,VDACtest,105,r,true,586,2,r,v,2,,,
akm,VDACtest,106,r,true,586.4000000059605,2,r,v,1,,,
akm,VDACtest,107,r,true,626.8000000119209,2,r,h,1,,,
akm,VDACtest,108,r,false,771.6000000089407,1,g,h,3,,,
akm,VDACtest,109,r,true,825.5999999940395,1,g,v,5,,,
akm,VDACtest,110,r,true,730.3000000119209,2,r,v,1,,,
akm,VDACtest,111,r,true,690.1000000089407,2,r,h,4,,,
akm,VDACtest,112,r,true,850.1000000089407,1,g,h,4,,,
akm,VDACtest,113,r,true,826,2,r,v,3,,,
akm,VDACtest,114,r,true,754.2999999970198,2,r,h,2,,,
akm,VDACtest,115,r,true,849.8999999910593,1,g,h,1,,,
akm,VDACtest,116,r,true,739.2000000029802,1,g,v,2,,,
akm,VDACtest,117,r,true,793.0999999940395,1,g,v,0,,,
akm,VDACtest,118,r,true,600.9000000059605,1,g,h,0,,,
akm,VDACtest,119,r,true,939.2000000029802,2,r,h,3,,,
akm,VDACtest,120,r,true,841.5,1,g,h,0,,,
akm,VDACtest,121,r,true,734.7999999970198,2,r,v,5,,,
akm,VDACtest,122,r,true,722,1,g,h,4,,,
akm,VDACtest,123,r,true,898.7000000029802,1,g,h,3,,,
akm,VDACtest,124,r,true,746.2000000029802,1,g,h,0,,,
akm,VDACtest,125,r,true,626.2999999970198,2,r,v,1,,,
akm,VDACtest,126,r,true,826.7000000029802,2,r,v,1,,,
akm,VDACtest,127,r,true,594.9000000059605,1,g,v,5,,,
akm,VDACtest,128,r,true,618.7999999970198,1,g,h,2,,,
akm,VDACtest,129,r,false,811.4000000059605,2,r,v,2,,,
akm,VDACtest,130,r,true,570.8000000119209,1,g,v,4,,,
akm,VDACtest,131,r,true,539,2,r,v,3,,,
akm,VDACtest,132,r,true,530.4000000059605,1,g,v,3,,,
akm,VDACtest,133,r,true,601.8000000119209,1,g,v,0,,,
akm,VDACtest,134,r,true,537.7999999970198,2,r,h,2,,,
akm,VDACtest,135,r,true,623.7999999970198,1,g,v,5,,,
akm,VDACtest,136,r,true,522.8999999910593,2,r,h,4,,,
akm,VDACtest,137,r,true,593.5,2,r,v,5,,,
akm,VDACtest,138,r,true,578.5,1,g,v,5,,,
akm,VDACtest,139,r,true,539.4000000059605,2,r,h,5,,,
akm,VDACtest,140,r,true,538.1999999880791,1,g,v,4,,,
akm,VDACtest,141,r,true,859.2000000029802,2,r,h,1,,,
akm,VDACtest,142,r,true,731,2,r,v,0,,,
akm,VDACtest,143,r,true,626.7999999970198,2,r,v,3,,,
akm,VDACtest,144,r,true,642.8999999910593,2,r,v,5,,,
akm,VDACtest,145,r,true,633.7000000029802,2,r,v,0,,,
akm,VDACtest,146,r,true,545.6999999880791,2,r,v,0,,,
akm,VDACtest,147,r,true,803.2000000029802,1,g,h,5,,,
akm,VDACtest,148,r,true,577.9000000059605,2,r,h,0,,,
akm,VDACtest,149,r,true,665.2999999970198,2,r,h,3,,,
akm,VDACtest,150,r,true,490.70000000298023,1,g,v,0,,,
brk,brk,brk,brk,brk,brk,brk,brk,brk,brk,brk,brk,
akm,VDACtest,151,r,null,null,2,r,v,4,,,
akm,VDACtest,152,r,true,905.9000000059605,2,r,v,0,,,
akm,VDACtest,153,r,true,699.0999999940395,1,g,h,3,,,
akm,VDACtest,154,r,true,610.5,2,r,v,1,,,
akm,VDACtest,155,r,true,554.5,2,r,h,1,,,
akm,VDACtest,156,r,true,682.5999999940395,1,g,h,1,,,
akm,VDACtest,157,r,true,547.0999999940395,2,r,h,2,,,
akm,VDACtest,158,r,true,521.5,2,r,h,4,,,
akm,VDACtest,159,r,true,547.7000000029802,2,r,h,2,,,
akm,VDACtest,160,r,true,593.5999999940395,1,g,v,3,,,
akm,VDACtest,161,r,true,497.79999999701977,2,r,v,3,,,
akm,VDACtest,162,r,true,506.59999999403954,2,r,v,4,,,
akm,VDACtest,163,r,true,483.29999999701977,1,g,h,4,,,
akm,VDACtest,164,r,true,576.7000000029802,1,g,h,1,,,
akm,VDACtest,165,r,true,546.7999999970198,2,r,h,3,,,
akm,VDACtest,166,r,true,459.1000000089407,2,r,h,4,,,
akm,VDACtest,167,r,true,434.69999998807907,2,r,v,1,,,
akm,VDACtest,168,r,true,586.2999999970198,2,r,v,2,,,
akm,VDACtest,169,r,true,569.7999999970198,2,r,h,5,,,
akm,VDACtest,170,r,true,498.20000000298023,1,g,v,1,,,
akm,VDACtest,171,r,true,458.29999999701977,1,g,v,1,,,
akm,VDACtest,172,r,true,521.5999999940395,2,r,h,0,,,
akm,VDACtest,173,r,true,553.7000000029802,2,r,h,0,,,
akm,VDACtest,174,r,true,467.29999999701977,1,g,v,1,,,
akm,VDACtest,175,r,true,601.7000000029802,2,r,h,5,,,
akm,VDACtest,176,r,true,553.8999999910593,2,r,v,3,,,
akm,VDACtest,177,r,true,592.5999999940395,1,g,v,1,,,
akm,VDACtest,178,r,true,417.5,2,r,h,0,,,
akm,VDACtest,179,r,false,624.3999999910593,1,g,h,4,,,
akm,VDACtest,180,r,true,530.4000000059605,2,r,h,5,,,
akm,VDACtest,181,r,true,449.40000000596046,2,r,v,2,,,
akm,VDACtest,182,r,true,489.70000000298023,2,r,v,5,,,
akm,VDACtest,183,r,true,753.4000000059605,1,g,h,1,,,
akm,VDACtest,184,r,true,515.4000000059605,2,r,h,1,,,
akm,VDACtest,185,r,true,483,1,g,h,5,,,
akm,VDACtest,186,r,true,521.3999999910593,2,r,h,1,,,
akm,VDACtest,187,r,true,474.5,2,r,v,5,,,
akm,VDACtest,188,r,true,711.7000000029802,1,g,v,0,,,
akm,VDACtest,189,r,true,433.8999999910593,2,r,h,1,,,
akm,VDACtest,190,r,true,498.20000000298023,1,g,h,5,,,
akm,VDACtest,191,r,true,467.19999998807907,2,r,h,2,,,
akm,VDACtest,192,r,true,466.79999999701977,2,r,h,3,,,
akm,VDACtest,193,r,true,537.7000000029802,2,r,v,4,,,
akm,VDACtest,194,r,true,433.19999998807907,1,g,h,3,,,
akm,VDACtest,195,r,true,610.2999999970198,2,r,v,1,,,
akm,VDACtest,196,r,true,458.59999999403954,1,g,v,0,,,
akm,VDACtest,197,r,true,487.6000000089407,2,r,h,0,,,
akm,VDACtest,198,r,true,481.09999999403954,1,g,h,5,,,
akm,VDACtest,199,r,true,754.2000000029802,1,g,h,2,,,
akm,VDACtest,200,r,true,514.7999999970198,2,r,h,5,,,
akm,RSVPtrain,0,r,false,1675.300000011921,0,b,,1,3,0,
akm,RSVPtrain,0,r,false,988.0999999940395,0,b,,0,3,0,
akm,RSVPtrain,0,r,true,795.8999999910593,1,g,,3,0,1,
akm,RSVPtrain,0,r,true,1221.7999999970198,1,g,,1,0,1,
akm,RSVPtrain,0,r,false,822.0999999940395,1,g,,2,2,2,
akm,RSVPtrain,0,r,false,1188.7000000029802,0,b,,3,3,0,
akm,RSVPtrain,0,r,true,1156.300000011921,2,r,,0,0,2,
akm,RSVPtrain,0,r,false,790.7999999970198,2,r,,1,1,2,
akm,RSVPtrain,0,r,true,706.5,2,r,,3,2,1,
akm,RSVPtrain,0,r,true,755,1,g,,3,1,1,
akm,RSVPtest,1,r,true,630.3999999910593,0,b,,3,3,0,
akm,RSVPtest,2,r,true,613,2,r,,3,1,1,
akm,RSVPtest,3,r,true,1285.7999999970198,1,g,,3,1,1,
akm,RSVPtest,4,r,true,660.9000000059605,1,g,,0,2,1,
akm,RSVPtest,5,r,true,803,1,g,,1,2,1,
akm,RSVPtest,6,r,false,780.3000000119209,0,b,,2,3,0,
akm,RSVPtest,7,r,true,717,0,b,,2,3,0,
akm,RSVPtest,8,r,true,610.4000000059605,2,r,,1,0,1,
akm,RSVPtest,9,r,true,671.2999999970198,0,b,,2,3,0,
akm,RSVPtest,10,r,true,836.9000000059605,0,b,,0,3,0,
akm,RSVPtest,11,r,true,592.7999999970198,2,r,,1,2,1,
akm,RSVPtest,12,r,false,891,2,r,,1,1,2,
akm,RSVPtest,13,r,true,885.5,2,r,,3,2,1,
akm,RSVPtest,14,r,true,756.5999999940395,0,b,,3,3,0,
akm,RSVPtest,15,r,true,837.2999999970198,2,r,,3,1,1,
akm,RSVPtest,16,r,true,579.6999999880791,0,b,,2,3,0,
akm,RSVPtest,17,r,true,860.8999999910593,2,r,,2,1,1,
akm,RSVPtest,18,r,false,772.7999999970198,2,r,,3,0,1,
akm,RSVPtest,19,r,true,861.5,2,r,,1,2,1,
akm,RSVPtest,20,r,true,827.7999999970198,1,g,,2,2,2,
akm,RSVPtest,21,r,true,646.5,2,r,,3,0,1,
akm,RSVPtest,22,r,true,949.0999999940395,2,r,,0,2,1,
akm,RSVPtest,23,r,true,533.8000000119209,0,b,,1,3,0,
akm,RSVPtest,24,r,true,717.7999999970198,2,r,,3,2,1,
akm,RSVPtest,25,r,true,637.5999999940395,1,g,,3,2,1,
akm,RSVPtest,26,r,true,596.6999999880791,0,b,,3,3,0,
akm,RSVPtest,27,r,true,636.2000000029802,0,b,,3,3,0,
akm,RSVPtest,28,r,true,967.6999999880791,1,g,,2,0,1,
akm,RSVPtest,29,r,true,620.3000000119209,0,b,,0,3,0,
akm,RSVPtest,30,r,true,469.40000000596046,2,r,,0,1,1,
akm,RSVPtest,31,r,true,579.2000000029802,2,r,,2,1,1,
akm,RSVPtest,32,r,true,628.9000000059605,1,g,,1,0,1,
akm,RSVPtest,33,r,true,829.7999999970198,2,r,,3,1,1,
akm,RSVPtest,34,r,false,668,0,b,,3,3,0,
akm,RSVPtest,35,r,true,629,1,g,,3,1,1,
akm,RSVPtest,36,r,true,492,1,g,,2,2,2,
akm,RSVPtest,37,r,true,564.7000000029802,2,r,,3,2,1,
akm,RSVPtest,38,r,true,742.7999999970198,1,g,,2,0,1,
akm,RSVPtest,39,r,true,566.5,2,r,,2,1,1,
akm,RSVPtest,40,r,true,539.9000000059605,1,g,,1,0,1,
akm,RSVPtest,41,r,true,468.8999999910593,1,g,,2,1,1,
akm,RSVPtest,42,r,true,651.7999999970198,0,b,,1,3,0,
akm,RSVPtest,43,r,true,605.4000000059605,1,g,,3,2,1,
akm,RSVPtest,44,r,true,596.1999999880791,1,g,,2,2,2,
akm,RSVPtest,45,r,true,676.3999999910593,1,g,,0,2,1,
akm,RSVPtest,46,r,true,883,1,g,,2,2,2,
akm,RSVPtest,47,r,true,474.40000000596046,0,b,,0,3,0,
akm,RSVPtest,48,r,true,628.1000000089407,1,g,,2,0,1,
akm,RSVPtest,49,r,true,917.4000000059605,0,b,,2,3,0,
akm,RSVPtest,50,r,true,630.7000000029802,2,r,,1,0,1,
akm,RSVPtest,51,r,false,574.2999999970198,2,r,,3,1,1,
akm,RSVPtest,52,r,true,781.7999999970198,2,r,,2,2,2,
akm,RSVPtest,53,r,true,624.7999999970198,2,r,,0,1,1,
akm,RSVPtest,54,r,true,707.2000000029802,0,b,,3,3,0,
akm,RSVPtest,55,r,true,389,2,r,,0,0,2,
akm,RSVPtest,56,r,true,587.7000000029802,1,g,,3,1,1,
akm,RSVPtest,57,r,false,684.5999999940395,0,b,,3,3,0,
akm,RSVPtest,58,r,true,508.40000000596046,1,g,,0,2,1,
akm,RSVPtest,59,r,true,878.2999999970198,1,g,,3,1,1,
akm,RSVPtest,60,r,true,748.5,1,g,,3,0,1,
brk,brk,brk,brk,brk,brk,brk,brk,brk,brk,brk,brk,
akm,RSVPtest,61,r,true,545,1,g,,1,2,1,
akm,RSVPtest,62,r,true,592.4000000059605,2,r,,2,1,1,
akm,RSVPtest,63,r,true,610.7999999970198,2,r,,2,2,2,
akm,RSVPtest,64,r,true,803.8000000119209,0,b,,3,3,0,
akm,RSVPtest,65,r,true,706.9000000059605,0,b,,3,3,0,
akm,RSVPtest,66,r,true,852.9000000059605,1,g,,1,1,2,
akm,RSVPtest,67,r,true,604.6000000089407,2,r,,3,1,1,
akm,RSVPtest,68,r,true,514.6999999880791,0,b,,1,3,0,
akm,RSVPtest,69,r,true,572.1000000089407,2,r,,3,2,1,
akm,RSVPtest,70,r,true,747.2000000029802,2,r,,1,1,2,
akm,RSVPtest,71,r,false,666.5,0,b,,3,3,0,
akm,RSVPtest,72,r,true,693,1,g,,3,1,1,
akm,RSVPtest,73,r,true,465.5,0,b,,1,3,0,
akm,RSVPtest,74,r,false,810,2,r,,3,2,1,
akm,RSVPtest,75,r,true,708.7999999970198,1,g,,2,1,1,
akm,RSVPtest,76,r,true,564.5999999940395,2,r,,1,1,2,
akm,RSVPtest,77,r,true,665.2999999970198,1,g,,3,2,1,
akm,RSVPtest,78,r,false,545,1,g,,1,1,2,
akm,RSVPtest,79,r,true,442.5,0,b,,0,3,0,
akm,RSVPtest,80,r,true,508.79999999701977,2,r,,0,1,1,
akm,RSVPtest,81,r,true,603.5,2,r,,3,2,1,
akm,RSVPtest,82,r,true,674.2999999970198,2,r,,2,2,2,
akm,RSVPtest,83,r,true,569.9000000059605,0,b,,3,3,0,
akm,RSVPtest,84,r,true,476.79999999701977,0,b,,0,3,0,
akm,RSVPtest,85,r,true,620.7000000029802,2,r,,3,2,1,
akm,RSVPtest,86,r,true,475.79999999701977,2,r,,0,1,1,
akm,RSVPtest,87,r,true,530.8999999910593,2,r,,3,1,1,
akm,RSVPtest,88,r,true,565.4000000059605,2,r,,3,1,1,
akm,RSVPtest,89,r,true,618.4000000059605,1,g,,0,0,2,
akm,RSVPtest,90,r,true,796.0999999940395,1,g,,2,0,1,
akm,RSVPtest,91,r,true,955.5,2,r,,3,0,1,
akm,RSVPtest,92,r,true,617.2999999970198,0,b,,3,3,0,
akm,RSVPtest,93,r,false,626.6000000089407,2,r,,2,1,1,
akm,RSVPtest,94,r,true,607.1999999880791,1,g,,2,1,1,
akm,RSVPtest,95,r,true,837.2000000029802,0,b,,3,3,0,
akm,RSVPtest,96,r,true,571,0,b,,0,3,0,
akm,RSVPtest,97,r,true,676.2000000029802,2,r,,3,0,1,
akm,RSVPtest,98,r,false,514.5,2,r,,3,0,1,
akm,RSVPtest,99,r,true,508,2,r,,1,2,1,
akm,RSVPtest,100,r,true,482.3999999910593,0,b,,0,3,0,
akm,RSVPtest,101,r,true,518.5,2,r,,2,0,1,
akm,RSVPtest,102,r,true,482.1000000089407,1,g,,0,1,1,
akm,RSVPtest,103,r,true,732.3000000119209,1,g,,1,1,2,
akm,RSVPtest,104,r,true,836.4000000059605,2,r,,0,2,1,
akm,RSVPtest,105,r,true,620.1999999880791,1,g,,3,2,1,
akm,RSVPtest,106,r,true,508.5,2,r,,1,2,1,
akm,RSVPtest,107,r,true,587.1000000089407,2,r,,3,1,1,
akm,RSVPtest,108,r,true,499.79999999701977,1,g,,1,2,1,
akm,RSVPtest,109,r,true,628.4000000059605,0,b,,2,3,0,
akm,RSVPtest,110,r,true,451.5,2,r,,0,2,1,
akm,RSVPtest,111,r,true,547,2,r,,0,0,2,
akm,RSVPtest,112,r,true,566,2,r,,3,0,1,
akm,RSVPtest,113,r,true,547.2999999970198,1,g,,0,1,1,
akm,RSVPtest,114,r,true,450.79999999701977,1,g,,0,2,1,
akm,RSVPtest,115,r,false,708.2000000029802,2,r,,1,0,1,
akm,RSVPtest,116,r,true,569.5,0,b,,3,3,0,
akm,RSVPtest,117,r,true,618,0,b,,3,3,0,
akm,RSVPtest,118,r,false,529.2999999970198,1,g,,3,0,1,
akm,RSVPtest,119,r,true,563.6999999880791,2,r,,2,2,2,
akm,RSVPtest,120,r,false,955.8000000119209,1,g,,3,0,1,
brk,brk,brk,brk,brk,brk,brk,brk,brk,brk,brk,brk,
akm,RSVPtest,121,r,true,439.40000000596046,2,r,,3,0,1,
akm,RSVPtest,122,r,true,432.90000000596046,0,b,,2,3,0,
akm,RSVPtest,123,r,true,545.9000000059605,2,r,,3,0,1,
akm,RSVPtest,124,r,true,376.5,2,r,,2,1,1,
akm,RSVPtest,125,r,true,625.8999999910593,2,r,,2,2,2,
akm,RSVPtest,126,r,true,561.9000000059605,2,r,,1,0,1,
akm,RSVPtest,127,r,false,755.2999999970198,1,g,,3,0,1,
akm,RSVPtest,128,r,true,698.2000000029802,1,g,,3,2,1,
akm,RSVPtest,129,r,true,441,0,b,,1,3,0,
akm,RSVPtest,130,r,true,427.09999999403954,0,b,,0,3,0,
akm,RSVPtest,131,r,true,771.5,0,b,,2,3,0,
akm,RSVPtest,132,r,true,809.7999999970198,2,r,,3,2,1,
akm,RSVPtest,133,r,true,681.5999999940395,0,b,,3,3,0,
akm,RSVPtest,134,r,true,618.5,1,g,,3,2,1,
akm,RSVPtest,135,r,true,513.8000000119209,0,b,,1,3,0,
akm,RSVPtest,136,r,true,585.2000000029802,1,g,,3,0,1,
akm,RSVPtest,137,r,true,451.29999999701977,1,g,,0,0,2,
akm,RSVPtest,138,r,true,755.5,1,g,,3,2,1,
akm,RSVPtest,139,r,false,620.2999999970198,1,g,,0,1,1,
akm,RSVPtest,140,r,true,849.5999999940395,2,r,,3,2,1,
akm,RSVPtest,141,r,false,651.5999999940395,1,g,,3,1,1,
akm,RSVPtest,142,r,true,399.5,0,b,,1,3,0,
akm,RSVPtest,143,r,true,563.7999999970198,1,g,,3,2,1,
akm,RSVPtest,144,r,true,777.5,2,r,,3,0,1,
akm,RSVPtest,145,r,true,515.1000000089407,0,b,,1,3,0,
akm,RSVPtest,146,r,true,738.3999999910593,2,r,,3,0,1,
akm,RSVPtest,147,r,false,698.3000000119209,2,r,,3,1,1,
akm,RSVPtest,148,r,true,655.4000000059605,2,r,,0,1,1,
akm,RSVPtest,149,r,true,523,1,g,,0,0,2,
akm,RSVPtest,150,r,true,418.59999999403954,0,b,,0,3,0,
akm,RSVPtest,151,r,true,824.9000000059605,0,b,,3,3,0,
akm,RSVPtest,152,r,true,881.5,2,r,,3,0,1,
akm,RSVPtest,153,r,true,795.1000000089407,1,g,,2,1,1,
akm,RSVPtest,154,r,false,594.3999999910593,1,g,,1,0,1,
akm,RSVPtest,155,r,true,401.70000000298023,1,g,,1,0,1,
akm,RSVPtest,156,r,true,545.2999999970198,1,g,,3,0,1,
akm,RSVPtest,157,r,true,571.2000000029802,2,r,,3,1,1,
akm,RSVPtest,158,r,true,601.8999999910593,1,g,,0,1,1,
akm,RSVPtest,159,r,true,459.09999999403954,1,g,,1,0,1,
akm,RSVPtest,160,r,true,660.2000000029802,0,b,,1,3,0,
akm,RSVPtest,161,r,true,401.09999999403954,1,g,,2,2,2,
akm,RSVPtest,162,r,true,561.3999999910593,1,g,,3,1,1,
akm,RSVPtest,163,r,true,416.20000000298023,1,g,,1,0,1,
akm,RSVPtest,164,r,true,530,2,r,,1,0,1,
akm,RSVPtest,165,r,true,618.2999999970198,2,r,,3,1,1,
akm,RSVPtest,166,r,true,645.7999999970198,0,b,,3,3,0,
akm,RSVPtest,167,r,true,631.6999999880791,1,g,,0,1,1,
akm,RSVPtest,168,r,true,495.70000000298023,1,g,,1,1,2,
akm,RSVPtest,169,r,true,593.7999999970198,1,g,,3,1,1,
akm,RSVPtest,170,r,true,699,0,b,,2,3,0,
akm,RSVPtest,171,r,true,783.7999999970198,0,b,,2,3,0,
akm,RSVPtest,172,r,false,618.7000000029802,0,b,,3,3,0,
akm,RSVPtest,173,r,false,791.5,0,b,,3,3,0,
akm,RSVPtest,174,r,true,690.7000000029802,1,g,,2,0,1,
akm,RSVPtest,175,r,true,492.70000000298023,1,g,,2,1,1,
akm,RSVPtest,176,r,true,514.2000000029802,1,g,,2,1,1,
akm,RSVPtest,177,r,true,535.5999999940395,2,r,,0,0,2,
akm,RSVPtest,178,r,true,849.7999999970198,1,g,,3,1,1,
akm,RSVPtest,179,r,true,449.3999999910593,1,g,,1,1,2,
akm,RSVPtest,180,r,true,940.4000000059605,1,g,,3,2,1,
brk,brk,brk,brk,brk,brk,brk,brk,brk,brk,brk,brk,
akm,RSVPtest,181,r,true,526.2000000029802,2,r,,2,0,1,
akm,RSVPtest,182,r,true,485.30000001192093,1,g,,0,0,2,
akm,RSVPtest,183,r,true,563.0999999940395,1,g,,3,0,1,
akm,RSVPtest,184,r,false,624.9000000059605,0,b,,3,3,0,
akm,RSVPtest,185,r,true,546.3999999910593,0,b,,3,3,0,
akm,RSVPtest,186,r,true,500,1,g,,1,2,1,
akm,RSVPtest,187,r,true,626.5,1,g,,3,1,1,
akm,RSVPtest,188,r,true,656.7000000029802,2,r,,3,2,1,
akm,RSVPtest,189,r,false,597,0,b,,2,3,0,
akm,RSVPtest,190,r,false,919,1,g,,2,0,1,
akm,RSVPtest,191,r,true,730,1,g,,3,0,1,
akm,RSVPtest,192,r,true,392.09999999403954,2,r,,0,1,1,
akm,RSVPtest,193,r,true,615.2999999970198,0,b,,1,3,0,
akm,RSVPtest,194,r,true,433.59999999403954,1,g,,0,2,1,
akm,RSVPtest,195,r,true,656.2000000029802,2,r,,0,0,2,
akm,RSVPtest,196,r,false,505.70000000298023,1,g,,3,0,1,
akm,RSVPtest,197,r,true,578.2000000029802,1,g,,0,2,1,
akm,RSVPtest,198,r,true,667.7999999970198,2,r,,2,0,1,
akm,RSVPtest,199,r,true,793.8000000119209,1,g,,0,0,2,
akm,RSVPtest,200,r,false,751.7000000029802,2,r,,3,2,1,
akm,RSVPtest,201,r,true,512.7000000029802,0,b,,2,3,0,
akm,RSVPtest,202,r,true,631.5,1,g,,3,0,1,
akm,RSVPtest,203,r,true,570.6000000089407,2,r,,1,1,2,
akm,RSVPtest,204,r,true,608.7999999970198,2,r,,2,0,1,
akm,RSVPtest,205,r,false,650.1000000089407,2,r,,0,2,1,
akm,RSVPtest,206,r,true,690.3999999910593,2,r,,3,1,1,
akm,RSVPtest,207,r,true,599.0999999940395,2,r,,1,1,2,
akm,RSVPtest,208,r,true,530,0,b,,1,3,0,
akm,RSVPtest,209,r,false,512.5999999940395,2,r,,2,0,1,
akm,RSVPtest,210,r,true,555.0999999940395,2,r,,0,2,1,
akm,RSVPtest,211,r,false,976.3000000119209,1,g,,1,2,1,
akm,RSVPtest,212,r,true,522.7000000029802,0,b,,0,3,0,
akm,RSVPtest,213,r,true,552.3000000119209,2,r,,0,2,1,
akm,RSVPtest,214,r,true,612.3999999910593,2,r,,1,0,1,
akm,RSVPtest,215,r,true,486.90000000596046,2,r,,2,0,1,
akm,RSVPtest,216,r,true,576.2000000029802,0,b,,0,3,0,
akm,RSVPtest,217,r,true,551.7999999970198,2,r,,1,2,1,
akm,RSVPtest,218,r,false,553.1999999880791,1,g,,3,1,1,
akm,RSVPtest,219,r,true,617.4000000059605,1,g,,3,1,1,
akm,RSVPtest,220,r,true,392.5,2,r,,2,2,2,
akm,RSVPtest,221,r,false,684.5,1,g,,1,2,1,
akm,RSVPtest,222,r,true,646.2999999970198,1,g,,3,0,1,
akm,RSVPtest,223,r,true,440.59999999403954,2,r,,1,2,1,
akm,RSVPtest,224,r,false,1280.2999999970198,1,g,,3,2,1,
akm,RSVPtest,225,r,true,779.9000000059605,2,r,,3,2,1,
akm,RSVPtest,226,r,true,634.2000000029802,0,b,,0,3,0,
akm,RSVPtest,227,r,true,694.5,1,g,,0,1,1,
akm,RSVPtest,228,r,true,601.3999999910593,0,b,,3,3,0,
akm,RSVPtest,229,r,true,520.5999999940395,0,b,,3,3,0,
akm,RSVPtest,230,r,true,419.70000000298023,1,g,,1,1,2,
akm,RSVPtest,231,r,true,663.5999999940395,1,g,,3,2,1,
akm,RSVPtest,232,r,true,680.5,2,r,,0,0,2,
akm,RSVPtest,233,r,true,801.9000000059605,2,r,,1,1,2,
akm,RSVPtest,234,r,true,593.9000000059605,1,g,,3,2,1,
akm,RSVPtest,235,r,true,504.59999999403954,1,g,,2,2,2,
akm,RSVPtest,236,r,false,561,0,b,,1,3,0,
akm,RSVPtest,237,r,true,680.7999999970198,2,r,,3,0,1,
akm,RSVPtest,238,r,true,422.70000000298023,1,g,,0,0,2,
akm,RSVPtest,239,r,true,561.0999999940395,2,r,,0,0,2,
akm,RSVPtest,240,r,false,608.5999999940395,1,g,,3,0,1,
