subID,trialType,trialNum,cntBalance,correct,rt,rwdType,tgtCol,tgtDir,tgtPos,colPos,colMatch,
2rd,VDACtrain,0,r,null,null,2,r,v,3,,,
2rd,VDACtrain,0,r,true,558.1999999880791,1,g,h,5,,,
2rd,VDACtrain,0,r,true,421.29999999701977,2,r,v,4,,,
2rd,VDACtrain,0,r,true,461.5,2,r,h,0,,,
2rd,VDACtrain,0,r,true,462.1000000089407,1,g,v,0,,,
2rd,VDACtrain,0,r,true,383.20000000298023,2,r,h,2,,,
2rd,VDACtrain,0,r,true,526.8999999910593,2,r,h,1,,,
2rd,VDACtrain,0,r,true,414.5,1,g,v,5,,,
2rd,VDACtrain,0,r,true,686.1000000089407,1,g,h,3,,,
2rd,VDACtrain,0,r,true,614.9000000059605,1,g,v,2,,,
2rd,VDACtest,1,r,true,608,1,g,v,4,,,
2rd,VDACtest,2,r,true,628.7000000029802,2,r,v,0,,,
2rd,VDACtest,3,r,true,565.6000000089407,2,r,h,3,,,
2rd,VDACtest,4,r,true,654.1999999880791,2,r,h,0,,,
2rd,VDACtest,5,r,true,581.7999999970198,2,r,v,1,,,
2rd,VDACtest,6,r,true,428.79999999701977,1,g,v,0,,,
2rd,VDACtest,7,r,true,454.29999999701977,2,r,v,1,,,
2rd,VDACtest,8,r,true,423.29999999701977,2,r,h,0,,,
2rd,VDACtest,9,r,true,532.5999999940395,2,r,v,2,,,
2rd,VDACtest,10,r,true,743.5,1,g,v,4,,,
2rd,VDACtest,11,r,true,526.6000000089407,1,g,h,4,,,
2rd,VDACtest,12,r,false,798.2000000029802,2,r,h,2,,,
2rd,VDACtest,13,r,true,621.8999999910593,1,g,v,5,,,
2rd,VDACtest,14,r,true,535,1,g,v,2,,,
2rd,VDACtest,15,r,true,437.20000000298023,2,r,h,1,,,
2rd,VDACtest,16,r,true,509.3999999910593,2,r,v,3,,,
2rd,VDACtest,17,r,true,447,2,r,h,0,,,
2rd,VDACtest,18,r,false,428.70000000298023,1,g,h,1,,,
2rd,VDACtest,19,r,true,654.8999999910593,2,r,h,4,,,
2rd,VDACtest,20,r,true,501.90000000596046,2,r,v,2,,,
2rd,VDACtest,21,r,true,469.6000000089407,1,g,v,4,,,
2rd,VDACtest,22,r,true,516.5,1,g,h,3,,,
2rd,VDACtest,23,r,true,933.9000000059605,1,g,h,1,,,
2rd,VDACtest,24,r,true,582.7999999970198,1,g,v,4,,,
2rd,VDACtest,25,r,false,590.2000000029802,2,r,v,3,,,
2rd,VDACtest,26,r,true,661.9000000059605,1,g,v,2,,,
2rd,VDACtest,27,r,true,549.8999999910593,1,g,h,4,,,
2rd,VDACtest,28,r,true,551.2000000029802,2,r,v,3,,,
2rd,VDACtest,29,r,true,541.4000000059605,2,r,v,2,,,
2rd,VDACtest,30,r,true,468.79999999701977,1,g,v,2,,,
2rd,VDACtest,31,r,true,541.1000000089407,2,r,v,4,,,
2rd,VDACtest,32,r,true,479,1,g,h,2,,,
2rd,VDACtest,33,r,true,414.5,2,r,v,4,,,
2rd,VDACtest,34,r,true,435,1,g,v,2,,,
2rd,VDACtest,35,r,true,654.3999999910593,2,r,v,4,,,
2rd,VDACtest,36,r,true,549.0999999940395,1,g,h,0,,,
2rd,VDACtest,37,r,true,485.5,2,r,v,0,,,
2rd,VDACtest,38,r,true,535.1999999880791,2,r,h,5,,,
2rd,VDACtest,39,r,true,405,1,g,v,5,,,
2rd,VDACtest,40,r,true,477.5,1,g,v,4,,,
2rd,VDACtest,41,r,true,406.8999999910593,2,r,v,4,,,
2rd,VDACtest,42,r,true,517.7000000029802,1,g,h,4,,,
2rd,VDACtest,43,r,true,455.20000000298023,2,r,v,2,,,
2rd,VDACtest,44,r,true,596.7999999970198,2,r,h,2,,,
2rd,VDACtest,45,r,true,539.4000000059605,2,r,h,5,,,
2rd,VDACtest,46,r,true,542,1,g,h,0,,,
2rd,VDACtest,47,r,true,406.79999999701977,1,g,v,5,,,
2rd,VDACtest,48,r,true,541,2,r,v,3,,,
2rd,VDACtest,49,r,true,521.5,1,g,v,3,,,
2rd,VDACtest,50,r,true,718.2999999970198,2,r,h,1,,,
brk,brk,brk,brk,brk,brk,brk,brk,brk,brk,brk,brk,
2rd,VDACtest,51,r,true,708.7999999970198,2,r,h,1,,,
2rd,VDACtest,52,r,true,690.8000000119209,2,r,h,4,,,
2rd,VDACtest,53,r,false,463.5,1,g,h,0,,,
2rd,VDACtest,54,r,true,558.5999999940395,1,g,v,1,,,
2rd,VDACtest,55,r,true,589.9000000059605,2,r,v,0,,,
2rd,VDACtest,56,r,true,590,1,g,h,5,,,
2rd,VDACtest,57,r,true,494.59999999403954,2,r,h,5,,,
2rd,VDACtest,58,r,true,606.5,2,r,v,1,,,
2rd,VDACtest,59,r,true,510.40000000596046,1,g,h,1,,,
2rd,VDACtest,60,r,true,733.5999999940395,1,g,v,4,,,
2rd,VDACtest,61,r,true,870.6000000089407,1,g,h,0,,,
2rd,VDACtest,62,r,true,493.8999999910593,1,g,v,2,,,
2rd,VDACtest,63,r,true,518.2999999970198,1,g,v,3,,,
2rd,VDACtest,64,r,true,548.4000000059605,2,r,h,3,,,
2rd,VDACtest,65,r,true,558.0999999940395,2,r,v,2,,,
2rd,VDACtest,66,r,true,478,2,r,v,3,,,
2rd,VDACtest,67,r,true,539.8999999910593,2,r,h,0,,,
2rd,VDACtest,68,r,true,549.5999999940395,2,r,h,3,,,
2rd,VDACtest,69,r,true,704.7999999970198,2,r,h,2,,,
2rd,VDACtest,70,r,true,567.0999999940395,2,r,h,4,,,
2rd,VDACtest,71,r,true,469.20000000298023,1,g,v,4,,,
2rd,VDACtest,72,r,true,428.70000000298023,1,g,v,3,,,
2rd,VDACtest,73,r,true,477.20000000298023,1,g,h,5,,,
2rd,VDACtest,74,r,true,606.7999999970198,1,g,h,3,,,
2rd,VDACtest,75,r,true,614.5999999940395,2,r,h,0,,,
2rd,VDACtest,76,r,true,470,2,r,v,0,,,
2rd,VDACtest,77,r,true,557.1000000089407,2,r,h,1,,,
2rd,VDACtest,78,r,true,509.40000000596046,2,r,h,4,,,
2rd,VDACtest,79,r,true,492,2,r,h,3,,,
2rd,VDACtest,80,r,false,501.79999999701977,1,g,h,1,,,
2rd,VDACtest,81,r,true,596.9000000059605,1,g,v,3,,,
2rd,VDACtest,82,r,true,494,1,g,h,2,,,
2rd,VDACtest,83,r,true,462.20000000298023,1,g,v,1,,,
2rd,VDACtest,84,r,true,671.5,1,g,h,0,,,
2rd,VDACtest,85,r,true,517.2000000029802,2,r,v,4,,,
2rd,VDACtest,86,r,true,726,1,g,v,1,,,
2rd,VDACtest,87,r,true,774.4000000059605,1,g,h,5,,,
2rd,VDACtest,88,r,true,565.1999999880791,2,r,h,4,,,
2rd,VDACtest,89,r,true,676.9000000059605,2,r,v,3,,,
2rd,VDACtest,90,r,true,438.20000000298023,1,g,v,5,,,
2rd,VDACtest,91,r,true,468.8999999910593,2,r,h,0,,,
2rd,VDACtest,92,r,true,677,2,r,h,1,,,
2rd,VDACtest,93,r,true,574.2000000029802,1,g,h,2,,,
2rd,VDACtest,94,r,true,421.19999998807907,1,g,h,5,,,
2rd,VDACtest,95,r,true,813.2999999970198,2,r,v,4,,,
2rd,VDACtest,96,r,true,454.09999999403954,2,r,h,3,,,
2rd,VDACtest,97,r,true,468.69999998807907,2,r,v,5,,,
2rd,VDACtest,98,r,true,541.7999999970198,1,g,v,1,,,
2rd,VDACtest,99,r,true,446.09999999403954,1,g,v,5,,,
2rd,VDACtest,100,r,true,494.20000000298023,2,r,h,0,,,
brk,brk,brk,brk,brk,brk,brk,brk,brk,brk,brk,brk,
2rd,VDACtest,101,r,true,588.3999999910593,2,r,v,1,,,
2rd,VDACtest,102,r,true,548.9000000059605,2,r,v,3,,,
2rd,VDACtest,103,r,true,533.5999999940395,1,g,h,4,,,
2rd,VDACtest,104,r,null,null,2,r,h,2,,,
2rd,VDACtest,105,r,true,520.0999999940395,2,r,h,4,,,
2rd,VDACtest,106,r,true,556.2999999970198,1,g,h,1,,,
2rd,VDACtest,107,r,true,566.5,2,r,v,4,,,
2rd,VDACtest,108,r,true,445.90000000596046,2,r,h,1,,,
2rd,VDACtest,109,r,true,516.4000000059605,1,g,h,1,,,
2rd,VDACtest,110,r,true,438,2,r,v,5,,,
2rd,VDACtest,111,r,true,445.29999999701977,1,g,v,0,,,
2rd,VDACtest,112,r,true,492.70000000298023,1,g,h,4,,,
2rd,VDACtest,113,r,true,463.09999999403954,1,g,h,4,,,
2rd,VDACtest,114,r,true,476.69999998807907,2,r,v,5,,,
2rd,VDACtest,115,r,true,524.2000000029802,1,g,h,5,,,
2rd,VDACtest,116,r,true,405.70000000298023,1,g,v,0,,,
2rd,VDACtest,117,r,true,438.6000000089407,2,r,v,4,,,
2rd,VDACtest,118,r,true,454,2,r,h,3,,,
2rd,VDACtest,119,r,true,556.8999999910593,1,g,v,1,,,
2rd,VDACtest,120,r,true,493.20000000298023,2,r,v,1,,,
2rd,VDACtest,121,r,true,517.7999999970198,1,g,h,0,,,
2rd,VDACtest,122,r,true,685.5999999940395,1,g,h,4,,,
2rd,VDACtest,123,r,true,468.29999999701977,1,g,v,2,,,
2rd,VDACtest,124,r,true,485,1,g,v,2,,,
2rd,VDACtest,125,r,true,381.09999999403954,1,g,v,0,,,
2rd,VDACtest,126,r,true,469.40000000596046,2,r,h,2,,,
2rd,VDACtest,127,r,true,621.5,1,g,h,3,,,
2rd,VDACtest,128,r,true,470.20000000298023,2,r,v,0,,,
2rd,VDACtest,129,r,true,424,1,g,v,0,,,
2rd,VDACtest,130,r,true,557.8999999910593,1,g,h,0,,,
2rd,VDACtest,131,r,true,390.1000000089407,1,g,v,0,,,
2rd,VDACtest,132,r,true,396.8999999910593,2,r,h,2,,,
2rd,VDACtest,133,r,true,469.3999999910593,1,g,v,3,,,
2rd,VDACtest,134,r,true,557.9000000059605,1,g,v,1,,,
2rd,VDACtest,135,r,true,524.9000000059605,1,g,h,4,,,
2rd,VDACtest,136,r,true,542.5999999940395,2,r,h,4,,,
2rd,VDACtest,137,r,true,462.90000000596046,2,r,v,5,,,
2rd,VDACtest,138,r,true,451.40000000596046,2,r,v,5,,,
2rd,VDACtest,139,r,true,494.29999999701977,1,g,h,1,,,
2rd,VDACtest,140,r,true,487.59999999403954,1,g,v,1,,,
2rd,VDACtest,141,r,true,404.8999999910593,1,g,v,1,,,
2rd,VDACtest,142,r,false,380.29999999701977,1,g,v,3,,,
2rd,VDACtest,143,r,true,494.09999999403954,1,g,h,1,,,
2rd,VDACtest,144,r,true,515.8000000119209,1,g,v,2,,,
2rd,VDACtest,145,r,true,526.2000000029802,2,r,v,5,,,
2rd,VDACtest,146,r,true,375.20000000298023,2,r,v,2,,,
2rd,VDACtest,147,r,true,468.29999999701977,1,g,h,2,,,
2rd,VDACtest,148,r,true,542.2999999970198,1,g,h,5,,,
2rd,VDACtest,149,r,true,445.6000000089407,2,r,h,5,,,
2rd,VDACtest,150,r,false,589.7000000029802,2,r,v,1,,,
brk,brk,brk,brk,brk,brk,brk,brk,brk,brk,brk,brk,
2rd,VDACtest,151,r,true,626.9000000059605,1,g,v,4,,,
2rd,VDACtest,152,r,true,428.29999999701977,2,r,v,5,,,
2rd,VDACtest,153,r,true,597.3000000119209,2,r,h,1,,,
2rd,VDACtest,154,r,true,405.59999999403954,2,r,v,0,,,
2rd,VDACtest,155,r,true,414,2,r,h,2,,,
2rd,VDACtest,156,r,true,531,1,g,h,4,,,
2rd,VDACtest,157,r,true,486.20000000298023,2,r,h,5,,,
2rd,VDACtest,158,r,true,541.7999999970198,1,g,h,3,,,
2rd,VDACtest,159,r,true,469.5,1,g,h,5,,,
2rd,VDACtest,160,r,true,442.09999999403954,1,g,v,0,,,
2rd,VDACtest,161,r,true,461.79999999701977,2,r,h,0,,,
2rd,VDACtest,162,r,true,405,2,r,v,1,,,
2rd,VDACtest,163,r,false,429.5,1,g,h,5,,,
2rd,VDACtest,164,r,true,526.1000000089407,2,r,h,4,,,
2rd,VDACtest,165,r,true,582.2999999970198,1,g,v,0,,,
2rd,VDACtest,166,r,false,437.90000000596046,2,r,v,2,,,
2rd,VDACtest,167,r,true,546.7999999970198,2,r,h,3,,,
2rd,VDACtest,168,r,true,702,1,g,h,2,,,
2rd,VDACtest,169,r,true,573.2999999970198,1,g,v,5,,,
2rd,VDACtest,170,r,true,501.6000000089407,2,r,v,3,,,
2rd,VDACtest,171,r,true,540.6999999880791,1,g,v,4,,,
2rd,VDACtest,172,r,true,517.9000000059605,2,r,h,4,,,
2rd,VDACtest,173,r,true,517.6999999880791,2,r,h,1,,,
2rd,VDACtest,174,r,true,452.8999999910593,2,r,v,0,,,
2rd,VDACtest,175,r,true,461.29999999701977,1,g,v,5,,,
2rd,VDACtest,176,r,true,509.29999999701977,2,r,v,1,,,
2rd,VDACtest,177,r,true,494,2,r,h,5,,,
2rd,VDACtest,178,r,true,494,2,r,v,2,,,
2rd,VDACtest,179,r,false,500.1000000089407,1,g,h,2,,,
2rd,VDACtest,180,r,true,499.1000000089407,1,g,v,3,,,
2rd,VDACtest,181,r,true,557.7999999970198,2,r,h,3,,,
2rd,VDACtest,182,r,true,558.2000000029802,2,r,v,5,,,
2rd,VDACtest,183,r,true,430.5,1,g,v,5,,,
2rd,VDACtest,184,r,true,589.2000000029802,1,g,h,2,,,
2rd,VDACtest,185,r,true,518.5,1,g,h,3,,,
2rd,VDACtest,186,r,true,501.20000000298023,1,g,h,3,,,
2rd,VDACtest,187,r,true,469.69999998807907,2,r,v,4,,,
2rd,VDACtest,188,r,true,581.7000000029802,1,g,h,2,,,
2rd,VDACtest,189,r,true,668.6000000089407,1,g,h,1,,,
2rd,VDACtest,190,r,true,574.0999999940395,2,r,h,2,,,
2rd,VDACtest,191,r,true,523.9000000059605,2,r,v,0,,,
2rd,VDACtest,192,r,true,501.5,1,g,h,0,,,
2rd,VDACtest,193,r,true,510.20000000298023,2,r,h,5,,,
2rd,VDACtest,194,r,true,476.70000000298023,2,r,h,5,,,
2rd,VDACtest,195,r,true,574.5,1,g,h,3,,,
2rd,VDACtest,196,r,true,606,2,r,h,1,,,
2rd,VDACtest,197,r,true,492.09999999403954,2,r,v,1,,,
2rd,VDACtest,198,r,true,420.5,1,g,v,1,,,
2rd,VDACtest,199,r,true,549.3000000119209,1,g,v,3,,,
2rd,VDACtest,200,r,true,519.2000000029802,1,g,h,3,,,
2rd,RSVPtrain,0,r,false,1957.4000000059605,0,b,,0,3,0,
2rd,RSVPtrain,0,r,false,2460.7999999970198,1,g,,3,1,1,
2rd,RSVPtrain,0,r,true,1619.7000000029802,1,g,,3,0,1,
2rd,RSVPtrain,0,r,true,1096.5999999940395,2,r,,1,1,2,
2rd,RSVPtrain,0,r,true,1131.199999988079,1,g,,1,0,1,
2rd,RSVPtrain,0,r,false,1663.2000000029802,1,g,,2,2,2,
2rd,RSVPtrain,0,r,true,1469.5999999940395,2,r,,0,0,2,
2rd,RSVPtrain,0,r,true,1178,2,r,,3,2,1,
2rd,RSVPtrain,0,r,true,1199.0999999940395,0,b,,1,3,0,
2rd,RSVPtrain,0,r,true,1177.7000000029802,0,b,,3,3,0,
2rd,RSVPtest,1,r,true,2380.7000000029802,2,r,,2,1,1,
2rd,RSVPtest,2,r,true,1415.8999999910593,1,g,,1,2,1,
2rd,RSVPtest,3,r,false,1310.8999999910593,2,r,,2,0,1,
2rd,RSVPtest,4,r,true,1173.7999999970198,2,r,,3,2,1,
2rd,RSVPtest,5,r,false,1866.4000000059605,1,g,,2,2,2,
2rd,RSVPtest,6,r,true,1006.5999999940395,0,b,,3,3,0,
2rd,RSVPtest,7,r,true,1024.5,1,g,,3,2,1,
2rd,RSVPtest,8,r,true,976.4000000059605,0,b,,2,3,0,
2rd,RSVPtest,9,r,true,1736.4000000059605,2,r,,3,1,1,
2rd,RSVPtest,10,r,true,1166.7000000029802,0,b,,3,3,0,
2rd,RSVPtest,11,r,true,1487.2000000029802,1,g,,2,1,1,
2rd,RSVPtest,12,r,true,927.5999999940395,0,b,,0,3,0,
2rd,RSVPtest,13,r,true,944,1,g,,1,2,1,
2rd,RSVPtest,14,r,false,1207.300000011921,1,g,,2,1,1,
2rd,RSVPtest,15,r,true,1526,2,r,,3,0,1,
2rd,RSVPtest,16,r,true,824.1000000089407,0,b,,3,3,0,
2rd,RSVPtest,17,r,true,970.1000000089407,1,g,,1,2,1,
2rd,RSVPtest,18,r,false,1623.800000011921,1,g,,0,1,1,
2rd,RSVPtest,19,r,true,2103.2000000029802,2,r,,3,1,1,
2rd,RSVPtest,20,r,true,969.7000000029802,0,b,,1,3,0,
2rd,RSVPtest,21,r,true,1082.0999999940395,2,r,,1,0,1,
2rd,RSVPtest,22,r,true,1231.9000000059605,2,r,,1,1,2,
2rd,RSVPtest,23,r,true,1071.7999999970198,0,b,,0,3,0,
2rd,RSVPtest,24,r,true,863.1000000089407,2,r,,2,0,1,
2rd,RSVPtest,25,r,true,2016.0999999940395,1,g,,3,2,1,
2rd,RSVPtest,26,r,true,727.7000000029802,1,g,,2,1,1,
2rd,RSVPtest,27,r,true,1026.4000000059605,1,g,,0,2,1,
2rd,RSVPtest,28,r,true,1015.5999999940395,2,r,,3,2,1,
2rd,RSVPtest,29,r,true,849.9000000059605,0,b,,0,3,0,
2rd,RSVPtest,30,r,true,942.1000000089407,2,r,,3,2,1,
2rd,RSVPtest,31,r,true,2409.4000000059605,1,g,,2,2,2,
2rd,RSVPtest,32,r,true,1117.1000000089407,0,b,,3,3,0,
2rd,RSVPtest,33,r,false,2425.199999988079,2,r,,2,1,1,
2rd,RSVPtest,34,r,true,1045.3999999910593,1,g,,0,2,1,
2rd,RSVPtest,35,r,true,1135.7999999970198,2,r,,1,2,1,
2rd,RSVPtest,36,r,true,1096.5,2,r,,3,0,1,
2rd,RSVPtest,37,r,true,1361.5,2,r,,0,0,2,
2rd,RSVPtest,38,r,true,1168.2000000029802,2,r,,3,2,1,
2rd,RSVPtest,39,r,true,1239.7999999970198,1,g,,0,0,2,
2rd,RSVPtest,40,r,null,null,1,g,,0,1,1,
2rd,RSVPtest,41,r,true,871,2,r,,0,1,1,
2rd,RSVPtest,42,r,true,911.3999999910593,2,r,,0,0,2,
2rd,RSVPtest,43,r,true,1093.9000000059605,0,b,,2,3,0,
2rd,RSVPtest,44,r,true,821.5,0,b,,3,3,0,
2rd,RSVPtest,45,r,true,1193.2000000029802,0,b,,3,3,0,
2rd,RSVPtest,46,r,true,736.7000000029802,0,b,,3,3,0,
2rd,RSVPtest,47,r,true,606.9000000059605,2,r,,1,2,1,
2rd,RSVPtest,48,r,true,1303.0999999940395,1,g,,3,0,1,
2rd,RSVPtest,49,r,false,1886.3999999910593,0,b,,2,3,0,
2rd,RSVPtest,50,r,true,911.2000000029802,2,r,,0,2,1,
2rd,RSVPtest,51,r,true,976.5,0,b,,1,3,0,
2rd,RSVPtest,52,r,true,812.5999999940395,2,r,,0,2,1,
2rd,RSVPtest,53,r,true,683.9000000059605,1,g,,0,1,1,
2rd,RSVPtest,54,r,true,669.7000000029802,1,g,,1,0,1,
2rd,RSVPtest,55,r,true,695.8000000119209,2,r,,0,2,1,
2rd,RSVPtest,56,r,true,655.5999999940395,0,b,,1,3,0,
2rd,RSVPtest,57,r,true,1600.800000011921,0,b,,1,3,0,
2rd,RSVPtest,58,r,true,1305.2999999970198,1,g,,3,0,1,
2rd,RSVPtest,59,r,true,1053.5999999940395,1,g,,1,1,2,
2rd,RSVPtest,60,r,true,1534.5,2,r,,1,0,1,
brk,brk,brk,brk,brk,brk,brk,brk,brk,brk,brk,brk,
2rd,RSVPtest,61,r,false,1765.2999999970198,0,b,,0,3,0,
2rd,RSVPtest,62,r,true,862.0999999940395,1,g,,3,2,1,
2rd,RSVPtest,63,r,true,846.3999999910593,2,r,,2,2,2,
2rd,RSVPtest,64,r,true,840.7999999970198,1,g,,2,1,1,
2rd,RSVPtest,65,r,false,1224.2000000029802,1,g,,3,1,1,
2rd,RSVPtest,66,r,true,822.7000000029802,2,r,,3,1,1,
2rd,RSVPtest,67,r,true,1184.4000000059605,2,r,,0,0,2,
2rd,RSVPtest,68,r,true,1248.0999999940395,2,r,,0,0,2,
2rd,RSVPtest,69,r,true,718.2000000029802,0,b,,3,3,0,
2rd,RSVPtest,70,r,true,851.4000000059605,2,r,,1,0,1,
2rd,RSVPtest,71,r,true,927.1999999880791,0,b,,2,3,0,
2rd,RSVPtest,72,r,true,669.2999999970198,1,g,,0,2,1,
2rd,RSVPtest,73,r,true,749.7000000029802,2,r,,2,0,1,
2rd,RSVPtest,74,r,true,951.4000000059605,2,r,,3,2,1,
2rd,RSVPtest,75,r,true,989.7000000029802,2,r,,3,0,1,
2rd,RSVPtest,76,r,true,958.5,1,g,,3,2,1,
2rd,RSVPtest,77,r,false,1335.7999999970198,2,r,,3,0,1,
2rd,RSVPtest,78,r,true,1343.1000000089407,0,b,,3,3,0,
2rd,RSVPtest,79,r,true,717.8999999910593,2,r,,3,1,1,
2rd,RSVPtest,80,r,true,757.2000000029802,1,g,,3,2,1,
2rd,RSVPtest,81,r,true,1014.2999999970198,2,r,,3,1,1,
2rd,RSVPtest,82,r,true,862.5999999940395,2,r,,1,1,2,
2rd,RSVPtest,83,r,false,1160.2000000029802,1,g,,1,1,2,
2rd,RSVPtest,84,r,true,831.7000000029802,2,r,,1,2,1,
2rd,RSVPtest,85,r,true,737.2000000029802,1,g,,3,2,1,
2rd,RSVPtest,86,r,true,766.7999999970198,0,b,,0,3,0,
2rd,RSVPtest,87,r,true,765,2,r,,3,2,1,
2rd,RSVPtest,88,r,true,991.2999999970198,1,g,,0,0,2,
2rd,RSVPtest,89,r,true,1037.7999999970198,2,r,,3,0,1,
2rd,RSVPtest,90,r,true,931.2000000029802,2,r,,2,2,2,
2rd,RSVPtest,91,r,true,1021.7999999970198,0,b,,2,3,0,
2rd,RSVPtest,92,r,true,958.2000000029802,1,g,,3,0,1,
2rd,RSVPtest,93,r,true,1029.7000000029802,0,b,,1,3,0,
2rd,RSVPtest,94,r,true,695.2000000029802,1,g,,2,0,1,
2rd,RSVPtest,95,r,true,896.2000000029802,0,b,,0,3,0,
2rd,RSVPtest,96,r,true,733.7000000029802,0,b,,3,3,0,
2rd,RSVPtest,97,r,true,911.2999999970198,1,g,,1,0,1,
2rd,RSVPtest,98,r,true,756.7999999970198,0,b,,3,3,0,
2rd,RSVPtest,99,r,true,918.9000000059605,2,r,,3,2,1,
2rd,RSVPtest,100,r,true,805.5999999940395,2,r,,3,2,1,
2rd,RSVPtest,101,r,true,877.1000000089407,1,g,,3,0,1,
2rd,RSVPtest,102,r,true,1071.2999999970198,1,g,,1,0,1,
2rd,RSVPtest,103,r,true,630.5,0,b,,0,3,0,
2rd,RSVPtest,104,r,true,789.4000000059605,1,g,,1,0,1,
2rd,RSVPtest,105,r,true,1205.1000000089407,0,b,,2,3,0,
2rd,RSVPtest,106,r,true,781.5,2,r,,0,0,2,
2rd,RSVPtest,107,r,true,1231.7999999970198,2,r,,3,1,1,
2rd,RSVPtest,108,r,true,830.3000000119209,0,b,,3,3,0,
2rd,RSVPtest,109,r,true,853,1,g,,2,1,1,
2rd,RSVPtest,110,r,true,662,0,b,,1,3,0,
2rd,RSVPtest,111,r,true,741,1,g,,3,1,1,
2rd,RSVPtest,112,r,true,661.5999999940395,1,g,,3,2,1,
2rd,RSVPtest,113,r,true,696.7999999970198,2,r,,3,0,1,
2rd,RSVPtest,114,r,true,821.6999999880791,2,r,,3,2,1,
2rd,RSVPtest,115,r,true,803.2000000029802,1,g,,3,0,1,
2rd,RSVPtest,116,r,true,631.6999999880791,0,b,,3,3,0,
2rd,RSVPtest,117,r,true,927.8999999910593,1,g,,1,0,1,
2rd,RSVPtest,118,r,true,764.7999999970198,2,r,,1,2,1,
2rd,RSVPtest,119,r,true,1118.2999999970198,1,g,,2,0,1,
2rd,RSVPtest,120,r,true,983.4000000059605,0,b,,3,3,0,
brk,brk,brk,brk,brk,brk,brk,brk,brk,brk,brk,brk,
2rd,RSVPtest,121,r,false,910.7000000029802,1,g,,2,0,1,
2rd,RSVPtest,122,r,true,773.2000000029802,2,r,,2,2,2,
2rd,RSVPtest,123,r,true,1055.5,1,g,,3,1,1,
2rd,RSVPtest,124,r,true,622.2999999970198,1,g,,1,2,1,
2rd,RSVPtest,125,r,true,700.5,2,r,,0,2,1,
2rd,RSVPtest,126,r,true,702.1999999880791,1,g,,3,0,1,
2rd,RSVPtest,127,r,true,758.4000000059605,2,r,,3,2,1,
2rd,RSVPtest,128,r,true,830.7000000029802,0,b,,1,3,0,
2rd,RSVPtest,129,r,true,701.2999999970198,2,r,,0,0,2,
2rd,RSVPtest,130,r,true,607.2000000029802,2,r,,1,2,1,
2rd,RSVPtest,131,r,true,617.4000000059605,0,b,,0,3,0,
2rd,RSVPtest,132,r,true,972.7000000029802,0,b,,2,3,0,
2rd,RSVPtest,133,r,true,740.3999999910593,2,r,,0,1,1,
2rd,RSVPtest,134,r,true,741,1,g,,0,1,1,
2rd,RSVPtest,135,r,true,1165.5,0,b,,2,3,0,
2rd,RSVPtest,136,r,true,620.6000000089407,1,g,,0,0,2,
2rd,RSVPtest,137,r,true,564.9000000059605,2,r,,0,2,1,
2rd,RSVPtest,138,r,true,1470.2000000029802,1,g,,2,2,2,
2rd,RSVPtest,139,r,true,1140.800000011921,2,r,,3,1,1,
2rd,RSVPtest,140,r,true,797.1999999880791,2,r,,2,0,1,
2rd,RSVPtest,141,r,true,1054.5,1,g,,3,0,1,
2rd,RSVPtest,142,r,true,812.7999999970198,0,b,,3,3,0,
2rd,RSVPtest,143,r,true,694.5,0,b,,3,3,0,
2rd,RSVPtest,144,r,true,779.5,1,g,,2,0,1,
2rd,RSVPtest,145,r,true,1076.7000000029802,2,r,,1,2,1,
2rd,RSVPtest,146,r,true,789.7000000029802,1,g,,3,1,1,
2rd,RSVPtest,147,r,true,1028.5999999940395,2,r,,3,0,1,
2rd,RSVPtest,148,r,true,1061.5,1,g,,0,2,1,
2rd,RSVPtest,149,r,true,909.2999999970198,1,g,,0,0,2,
2rd,RSVPtest,150,r,true,766.7999999970198,2,r,,1,1,2,
2rd,RSVPtest,151,r,true,1325.5999999940395,1,g,,3,1,1,
2rd,RSVPtest,152,r,true,603.2000000029802,2,r,,0,1,1,
2rd,RSVPtest,153,r,true,772.6999999880791,1,g,,3,0,1,
2rd,RSVPtest,154,r,false,1429.7000000029802,1,g,,2,2,2,
2rd,RSVPtest,155,r,false,868,0,b,,0,3,0,
2rd,RSVPtest,156,r,true,893,1,g,,3,0,1,
2rd,RSVPtest,157,r,true,732.7000000029802,1,g,,1,0,1,
2rd,RSVPtest,158,r,true,589,0,b,,1,3,0,
2rd,RSVPtest,159,r,false,1436.2999999970198,1,g,,0,1,1,
2rd,RSVPtest,160,r,true,663.2000000029802,1,g,,3,1,1,
2rd,RSVPtest,161,r,true,964.7000000029802,0,b,,0,3,0,
2rd,RSVPtest,162,r,true,1134.9000000059605,2,r,,0,1,1,
2rd,RSVPtest,163,r,true,1475.8999999910593,2,r,,3,2,1,
2rd,RSVPtest,164,r,true,773.1000000089407,0,b,,2,3,0,
2rd,RSVPtest,165,r,true,744.7000000029802,2,r,,3,0,1,
2rd,RSVPtest,166,r,true,931.7999999970198,0,b,,1,3,0,
2rd,RSVPtest,167,r,true,653.8999999910593,0,b,,1,3,0,
2rd,RSVPtest,168,r,true,740,1,g,,1,2,1,
2rd,RSVPtest,169,r,false,1223.5,1,g,,3,0,1,
2rd,RSVPtest,170,r,true,732.4000000059605,1,g,,0,2,1,
2rd,RSVPtest,171,r,true,774,0,b,,3,3,0,
2rd,RSVPtest,172,r,true,734.1000000089407,1,g,,0,2,1,
2rd,RSVPtest,173,r,true,884.7000000029802,2,r,,2,1,1,
2rd,RSVPtest,174,r,true,773.6999999880791,0,b,,3,3,0,
2rd,RSVPtest,175,r,true,1003.5,2,r,,2,0,1,
2rd,RSVPtest,176,r,true,716.1000000089407,1,g,,3,2,1,
2rd,RSVPtest,177,r,true,1008.3000000119209,1,g,,3,2,1,
2rd,RSVPtest,178,r,true,707.5999999940395,0,b,,0,3,0,
2rd,RSVPtest,179,r,true,1244.7000000029802,2,r,,2,2,2,
2rd,RSVPtest,180,r,false,1492,2,r,,2,2,2,
brk,brk,brk,brk,brk,brk,brk,brk,brk,brk,brk,brk,
2rd,RSVPtest,181,r,true,1399.9000000059605,2,r,,3,0,1,
2rd,RSVPtest,182,r,true,1515.7999999970198,1,g,,2,2,2,
2rd,RSVPtest,183,r,true,922.7999999970198,1,g,,2,0,1,
2rd,RSVPtest,184,r,true,900.7999999970198,2,r,,2,1,1,
2rd,RSVPtest,185,r,true,768.0999999940395,1,g,,3,0,1,
2rd,RSVPtest,186,r,true,1517,2,r,,3,0,1,
2rd,RSVPtest,187,r,true,868.3999999910593,2,r,,1,1,2,
2rd,RSVPtest,188,r,true,917.7000000029802,2,r,,1,0,1,
2rd,RSVPtest,189,r,true,726.6000000089407,2,r,,0,2,1,
2rd,RSVPtest,190,r,true,971.7000000029802,1,g,,1,1,2,
2rd,RSVPtest,191,r,true,789.3000000119209,1,g,,3,1,1,
2rd,RSVPtest,192,r,true,844.0999999940395,2,r,,3,1,1,
2rd,RSVPtest,193,r,true,908.1000000089407,1,g,,3,1,1,
2rd,RSVPtest,194,r,true,935.1000000089407,2,r,,2,2,2,
2rd,RSVPtest,195,r,true,877.7000000029802,1,g,,1,1,2,
2rd,RSVPtest,196,r,true,1036.699999988079,2,r,,3,2,1,
2rd,RSVPtest,197,r,true,844.2999999970198,1,g,,3,1,1,
2rd,RSVPtest,198,r,true,846.9000000059605,2,r,,3,1,1,
2rd,RSVPtest,199,r,true,867.5,1,g,,0,0,2,
2rd,RSVPtest,200,r,true,709.6999999880791,2,r,,0,1,1,
2rd,RSVPtest,201,r,true,771.4000000059605,1,g,,3,1,1,
2rd,RSVPtest,202,r,true,1038.0999999940395,1,g,,3,1,1,
2rd,RSVPtest,203,r,true,1269,0,b,,0,3,0,
2rd,RSVPtest,204,r,true,913.2000000029802,2,r,,3,1,1,
2rd,RSVPtest,205,r,true,860.6000000089407,2,r,,3,0,1,
2rd,RSVPtest,206,r,true,741.5,0,b,,3,3,0,
2rd,RSVPtest,207,r,true,861.0999999940395,1,g,,3,0,1,
2rd,RSVPtest,208,r,true,771.3999999910593,0,b,,3,3,0,
2rd,RSVPtest,209,r,true,900.8999999910593,2,r,,2,1,1,
2rd,RSVPtest,210,r,true,731.6000000089407,0,b,,2,3,0,
2rd,RSVPtest,211,r,true,998.3000000119209,1,g,,2,2,2,
2rd,RSVPtest,212,r,true,900.9000000059605,2,r,,3,1,1,
2rd,RSVPtest,213,r,true,740,1,g,,3,2,1,
2rd,RSVPtest,214,r,true,909.7000000029802,0,b,,2,3,0,
2rd,RSVPtest,215,r,true,770.8999999910593,0,b,,3,3,0,
2rd,RSVPtest,216,r,true,1420.7999999970198,1,g,,3,2,1,
2rd,RSVPtest,217,r,true,683.9000000059605,2,r,,1,0,1,
2rd,RSVPtest,218,r,true,699,1,g,,1,1,2,
2rd,RSVPtest,219,r,true,717.5,1,g,,0,0,2,
2rd,RSVPtest,220,r,true,765.9000000059605,2,r,,0,1,1,
2rd,RSVPtest,221,r,false,1426.5999999940395,2,r,,3,1,1,
2rd,RSVPtest,222,r,true,709,0,b,,3,3,0,
2rd,RSVPtest,223,r,true,588.6000000089407,1,g,,1,1,2,
2rd,RSVPtest,224,r,true,603.2000000029802,0,b,,1,3,0,
2rd,RSVPtest,225,r,true,860.0999999940395,1,g,,3,1,1,
2rd,RSVPtest,226,r,true,820.5999999940395,2,r,,2,1,1,
2rd,RSVPtest,227,r,true,884.2999999970198,0,b,,3,3,0,
2rd,RSVPtest,228,r,true,1114.2000000029802,2,r,,1,0,1,
2rd,RSVPtest,229,r,true,819,1,g,,3,2,1,
2rd,RSVPtest,230,r,true,816.7999999970198,0,b,,2,3,0,
2rd,RSVPtest,231,r,true,635.9000000059605,1,g,,2,1,1,
2rd,RSVPtest,232,r,true,722.2999999970198,1,g,,2,0,1,
2rd,RSVPtest,233,r,true,538.7000000029802,2,r,,1,1,2,
2rd,RSVPtest,234,r,true,595.4000000059605,0,b,,1,3,0,
2rd,RSVPtest,235,r,true,658.8999999910593,1,g,,1,2,1,
2rd,RSVPtest,236,r,true,556.3000000119209,1,g,,0,1,1,
2rd,RSVPtest,237,r,true,682.8999999910593,2,r,,1,1,2,
2rd,RSVPtest,238,r,true,698.2999999970198,2,r,,2,0,1,
2rd,RSVPtest,239,r,true,812.0999999940395,2,r,,3,0,1,
2rd,RSVPtest,240,r,true,791.7000000029802,0,b,,3,3,0,
