subID,trialType,trialNum,cntBalance,correct,rt,rwdType,tgtCol,tgtDir,tgtPos,colPos,colMatch,
jn8,RSVPtrain,0,r,true,1085.3999998569489,1,g,,2,2,2,
jn8,RSVPtrain,0,r,true,986.2000000476837,2,r,,1,1,2,
jn8,RSVPtrain,0,r,false,1122.9000000953674,1,g,,3,1,1,
jn8,RSVPtrain,0,r,true,1014.2999999523163,2,r,,3,2,1,
jn8,RSVPtrain,0,r,false,1428,2,r,,0,0,2,
jn8,RSVPtrain,0,r,false,898.6000001430511,0,b,,1,3,0,
jn8,RSVPtrain,0,r,true,732.6000001430511,1,g,,1,0,1,
jn8,RSVPtrain,0,r,true,1188.3999998569489,0,b,,0,3,0,
jn8,RSVPtrain,0,r,true,660.1000001430511,1,g,,3,0,1,
jn8,RSVPtrain,0,r,false,1721.6999998092651,0,b,,3,3,0,
jn8,RSVPtest,1,r,true,980,2,r,,2,2,2,
jn8,RSVPtest,2,r,false,1044.5,2,r,,2,2,2,
jn8,RSVPtest,3,r,false,1914.3000001907349,2,r,,0,2,1,
jn8,RSVPtest,4,r,true,1467.4000000953674,0,b,,2,3,0,
jn8,RSVPtest,5,r,true,1132.3000001907349,0,b,,0,3,0,
jn8,RSVPtest,6,r,true,1252.4000000953674,1,g,,1,1,2,
jn8,RSVPtest,7,r,false,1685.7000000476837,2,r,,3,0,1,
jn8,RSVPtest,8,r,true,1093.4000000953674,0,b,,2,3,0,
jn8,RSVPtest,9,r,true,805.9000000953674,1,g,,3,0,1,
jn8,RSVPtest,10,r,false,1213.5,2,r,,3,1,1,
jn8,RSVPtest,11,r,true,1620.5,1,g,,2,2,2,
jn8,RSVPtest,12,r,true,859.5999999046326,0,b,,3,3,0,
jn8,RSVPtest,13,r,true,974.2000000476837,2,r,,3,0,1,
jn8,RSVPtest,14,r,true,1396.6000001430511,0,b,,1,3,0,
jn8,RSVPtest,15,r,true,1285.3000001907349,2,r,,1,1,2,
jn8,RSVPtest,16,r,true,1307.4000000953674,2,r,,0,2,1,
jn8,RSVPtest,17,r,true,1005,1,g,,3,1,1,
jn8,RSVPtest,18,r,true,1308.2999999523163,1,g,,0,2,1,
jn8,RSVPtest,19,r,true,955.2000000476837,1,g,,3,1,1,
jn8,RSVPtest,20,r,false,1018.7000000476837,1,g,,2,0,1,
jn8,RSVPtest,21,r,true,868.5999999046326,2,r,,3,0,1,
jn8,RSVPtest,22,r,true,809.5,2,r,,3,1,1,
jn8,RSVPtest,23,r,true,1131.5,2,r,,0,2,1,
jn8,RSVPtest,24,r,true,940.5,0,b,,0,3,0,
jn8,RSVPtest,25,r,false,1171.1999998092651,1,g,,2,0,1,
jn8,RSVPtest,26,r,true,827.5999999046326,1,g,,3,1,1,
jn8,RSVPtest,27,r,true,810.2000000476837,0,b,,0,3,0,
jn8,RSVPtest,28,r,true,948.5,1,g,,2,1,1,
jn8,RSVPtest,29,r,true,722.5,2,r,,2,1,1,
jn8,RSVPtest,30,r,true,932.9000000953674,1,g,,1,2,1,
jn8,RSVPtest,31,r,true,995.2000000476837,2,r,,0,1,1,
jn8,RSVPtest,32,r,true,898.6999998092651,2,r,,2,1,1,
jn8,RSVPtest,33,r,true,882.3000001907349,0,b,,0,3,0,
jn8,RSVPtest,34,r,true,665.7999999523163,0,b,,3,3,0,
jn8,RSVPtest,35,r,true,1004.7999999523163,0,b,,0,3,0,
jn8,RSVPtest,36,r,true,1576.7000000476837,0,b,,3,3,0,
jn8,RSVPtest,37,r,true,714.6000001430511,0,b,,3,3,0,
jn8,RSVPtest,38,r,false,801.9000000953674,0,b,,0,3,0,
jn8,RSVPtest,39,r,false,731.7999999523163,1,g,,2,1,1,
jn8,RSVPtest,40,r,true,682.7999999523163,1,g,,0,2,1,
jn8,RSVPtest,41,r,true,777.2999999523163,1,g,,3,2,1,
jn8,RSVPtest,42,r,true,818.3999998569489,1,g,,1,1,2,
jn8,RSVPtest,43,r,true,873.8999998569489,0,b,,1,3,0,
jn8,RSVPtest,44,r,true,771.9000000953674,0,b,,3,3,0,
jn8,RSVPtest,45,r,true,1762.8999998569489,2,r,,0,0,2,
jn8,RSVPtest,46,r,true,714.5,1,g,,3,2,1,
jn8,RSVPtest,47,r,true,772.2999999523163,0,b,,3,3,0,
jn8,RSVPtest,48,r,true,804.1999998092651,1,g,,2,2,2,
jn8,RSVPtest,49,r,true,766.8999998569489,2,r,,3,2,1,
jn8,RSVPtest,50,r,true,1124,1,g,,0,1,1,
jn8,RSVPtest,51,r,false,1461.7999999523163,0,b,,0,3,0,
jn8,RSVPtest,52,r,true,684.0999999046326,2,r,,3,1,1,
jn8,RSVPtest,53,r,true,668.9000000953674,0,b,,1,3,0,
jn8,RSVPtest,54,r,false,708.5,1,g,,0,0,2,
jn8,RSVPtest,55,r,true,617.9000000953674,0,b,,3,3,0,
jn8,RSVPtest,56,r,false,975,2,r,,0,1,1,
jn8,RSVPtest,57,r,false,636.4000000953674,2,r,,2,1,1,
jn8,RSVPtest,58,r,true,852.5,0,b,,3,3,0,
jn8,RSVPtest,59,r,false,809.9000000953674,2,r,,3,2,1,
jn8,RSVPtest,60,r,true,699.3999998569489,2,r,,3,0,1,
brk,brk,brk,brk,brk,brk,brk,brk,brk,brk,brk,brk,
jn8,RSVPtest,61,r,true,666.5999999046326,1,g,,3,2,1,
jn8,RSVPtest,62,r,true,865.4000000953674,2,r,,0,1,1,
jn8,RSVPtest,63,r,false,1028.0999999046326,2,r,,2,2,2,
jn8,RSVPtest,64,r,false,1114,1,g,,1,0,1,
jn8,RSVPtest,65,r,true,682,2,r,,3,2,1,
jn8,RSVPtest,66,r,true,778.8999998569489,1,g,,1,0,1,
jn8,RSVPtest,67,r,true,763.8000001907349,2,r,,2,2,2,
jn8,RSVPtest,68,r,true,587.5,2,r,,3,0,1,
jn8,RSVPtest,69,r,true,494.2000000476837,1,g,,0,2,1,
jn8,RSVPtest,70,r,true,635.7999999523163,1,g,,3,0,1,
jn8,RSVPtest,71,r,true,560.7999999523163,2,r,,3,2,1,
jn8,RSVPtest,72,r,true,788.5999999046326,2,r,,1,0,1,
jn8,RSVPtest,73,r,true,717.7999999523163,0,b,,1,3,0,
jn8,RSVPtest,74,r,true,753.7000000476837,1,g,,0,1,1,
jn8,RSVPtest,75,r,true,745.5999999046326,2,r,,1,2,1,
jn8,RSVPtest,76,r,true,635.4000000953674,0,b,,3,3,0,
jn8,RSVPtest,77,r,false,592.6000001430511,1,g,,3,2,1,
jn8,RSVPtest,78,r,true,570.2999999523163,1,g,,1,2,1,
jn8,RSVPtest,79,r,true,644.2000000476837,2,r,,1,2,1,
jn8,RSVPtest,80,r,true,674.5999999046326,1,g,,3,0,1,
jn8,RSVPtest,81,r,true,730.8000001907349,1,g,,3,2,1,
jn8,RSVPtest,82,r,true,602.4000000953674,1,g,,3,0,1,
jn8,RSVPtest,83,r,true,864.4000000953674,2,r,,0,0,2,
jn8,RSVPtest,84,r,true,595,2,r,,1,0,1,
jn8,RSVPtest,85,r,true,697.7999999523163,0,b,,3,3,0,
jn8,RSVPtest,86,r,true,625,1,g,,3,0,1,
jn8,RSVPtest,87,r,true,1427.2000000476837,0,b,,3,3,0,
jn8,RSVPtest,88,r,true,1016.7000000476837,0,b,,2,3,0,
jn8,RSVPtest,89,r,true,840.7999999523163,0,b,,2,3,0,
jn8,RSVPtest,90,r,true,538.2000000476837,2,r,,3,2,1,
jn8,RSVPtest,91,r,true,690.3999998569489,1,g,,2,1,1,
jn8,RSVPtest,92,r,true,641.4000000953674,2,r,,3,1,1,
jn8,RSVPtest,93,r,true,658.6999998092651,0,b,,1,3,0,
jn8,RSVPtest,94,r,false,617.0999999046326,2,r,,2,0,1,
jn8,RSVPtest,95,r,false,1033,0,b,,0,3,0,
jn8,RSVPtest,96,r,true,1186.2999999523163,2,r,,3,1,1,
jn8,RSVPtest,97,r,true,817.5,2,r,,1,1,2,
jn8,RSVPtest,98,r,true,602.7000000476837,1,g,,3,2,1,
jn8,RSVPtest,99,r,true,673.7999999523163,2,r,,3,1,1,
jn8,RSVPtest,100,r,true,624.3999998569489,1,g,,0,2,1,
jn8,RSVPtest,101,r,true,682.5999999046326,2,r,,3,1,1,
jn8,RSVPtest,102,r,true,778,0,b,,0,3,0,
jn8,RSVPtest,103,r,true,722,0,b,,1,3,0,
jn8,RSVPtest,104,r,true,595.7000000476837,1,g,,1,2,1,
jn8,RSVPtest,105,r,false,965.2999999523163,0,b,,2,3,0,
jn8,RSVPtest,106,r,true,587.9000000953674,2,r,,3,0,1,
jn8,RSVPtest,107,r,false,1003,2,r,,2,2,2,
jn8,RSVPtest,108,r,true,1009.5,2,r,,3,0,1,
jn8,RSVPtest,109,r,true,786.0999999046326,1,g,,2,1,1,
jn8,RSVPtest,110,r,true,643.7999999523163,2,r,,1,1,2,
jn8,RSVPtest,111,r,true,1011.1999998092651,1,g,,3,1,1,
jn8,RSVPtest,112,r,true,604,1,g,,1,2,1,
jn8,RSVPtest,113,r,true,906.3000001907349,2,r,,3,2,1,
jn8,RSVPtest,114,r,true,620.1999998092651,1,g,,3,2,1,
jn8,RSVPtest,115,r,true,682.5999999046326,0,b,,1,3,0,
jn8,RSVPtest,116,r,false,883.5999999046326,0,b,,2,3,0,
jn8,RSVPtest,117,r,true,612.0999999046326,0,b,,0,3,0,
jn8,RSVPtest,118,r,true,683.2000000476837,0,b,,1,3,0,
jn8,RSVPtest,119,r,true,1234.7000000476837,1,g,,3,2,1,
jn8,RSVPtest,120,r,true,1466,1,g,,2,2,2,
brk,brk,brk,brk,brk,brk,brk,brk,brk,brk,brk,brk,
jn8,RSVPtest,121,r,true,853.7000000476837,2,r,,1,2,1,
jn8,RSVPtest,122,r,true,866.1999998092651,2,r,,0,0,2,
jn8,RSVPtest,123,r,true,809.4000000953674,2,r,,3,1,1,
jn8,RSVPtest,124,r,true,458.59999990463257,1,g,,1,2,1,
jn8,RSVPtest,125,r,true,682.7999999523163,1,g,,0,1,1,
jn8,RSVPtest,126,r,true,944.2000000476837,2,r,,2,2,2,
jn8,RSVPtest,127,r,true,753,1,g,,3,1,1,
jn8,RSVPtest,128,r,true,850.9000000953674,0,b,,2,3,0,
jn8,RSVPtest,129,r,true,795.2000000476837,0,b,,2,3,0,
jn8,RSVPtest,130,r,true,592.4000000953674,1,g,,0,1,1,
jn8,RSVPtest,131,r,true,666.7999999523163,2,r,,0,1,1,
jn8,RSVPtest,132,r,false,698.5,0,b,,3,3,0,
jn8,RSVPtest,133,r,true,666,1,g,,3,2,1,
jn8,RSVPtest,134,r,true,995.0999999046326,1,g,,3,1,1,
jn8,RSVPtest,135,r,true,873.3000001907349,2,r,,0,0,2,
jn8,RSVPtest,136,r,false,1088.2000000476837,1,g,,3,2,1,
jn8,RSVPtest,137,r,true,687.6000001430511,2,r,,2,1,1,
jn8,RSVPtest,138,r,true,767.2999999523163,2,r,,3,2,1,
jn8,RSVPtest,139,r,true,1281.7999999523163,2,r,,2,1,1,
jn8,RSVPtest,140,r,true,640.9000000953674,2,r,,0,2,1,
jn8,RSVPtest,141,r,true,994.0999999046326,1,g,,1,1,2,
jn8,RSVPtest,142,r,false,894.9000000953674,0,b,,1,3,0,
jn8,RSVPtest,143,r,true,883,0,b,,3,3,0,
jn8,RSVPtest,144,r,true,696.3999998569489,0,b,,3,3,0,
jn8,RSVPtest,145,r,true,969.4000000953674,2,r,,1,0,1,
jn8,RSVPtest,146,r,true,983.3999998569489,1,g,,0,2,1,
jn8,RSVPtest,147,r,true,1056.5,1,g,,3,0,1,
jn8,RSVPtest,148,r,true,985.5,1,g,,1,0,1,
jn8,RSVPtest,149,r,true,690.2999999523163,0,b,,2,3,0,
jn8,RSVPtest,150,r,true,886.6000001430511,2,r,,0,0,2,
jn8,RSVPtest,151,r,true,906.7000000476837,1,g,,3,1,1,
jn8,RSVPtest,152,r,true,1041.6999998092651,1,g,,3,0,1,
jn8,RSVPtest,153,r,true,897.4000000953674,1,g,,2,1,1,
jn8,RSVPtest,154,r,true,783.5,1,g,,2,1,1,
jn8,RSVPtest,155,r,true,672.0999999046326,1,g,,0,0,2,
jn8,RSVPtest,156,r,true,810.4000000953674,0,b,,3,3,0,
jn8,RSVPtest,157,r,false,1008.6000001430511,1,g,,0,0,2,
jn8,RSVPtest,158,r,true,823.5,1,g,,3,1,1,
jn8,RSVPtest,159,r,true,1001.5999999046326,1,g,,2,0,1,
jn8,RSVPtest,160,r,true,849.7000000476837,0,b,,3,3,0,
jn8,RSVPtest,161,r,true,616.2000000476837,2,r,,3,1,1,
jn8,RSVPtest,162,r,false,1129.5999999046326,1,g,,2,2,2,
jn8,RSVPtest,163,r,true,1051.6999998092651,2,r,,0,1,1,
jn8,RSVPtest,164,r,true,642.9000000953674,2,r,,3,0,1,
jn8,RSVPtest,165,r,false,1065.2000000476837,1,g,,2,2,2,
jn8,RSVPtest,166,r,true,761.7000000476837,2,r,,3,1,1,
jn8,RSVPtest,167,r,true,732.6000001430511,2,r,,3,2,1,
jn8,RSVPtest,168,r,true,858.4000000953674,2,r,,0,0,2,
jn8,RSVPtest,169,r,true,801.2999999523163,1,g,,0,0,2,
jn8,RSVPtest,170,r,true,600.9000000953674,2,r,,3,0,1,
jn8,RSVPtest,171,r,true,867.0999999046326,0,b,,2,3,0,
jn8,RSVPtest,172,r,true,872.4000000953674,0,b,,3,3,0,
jn8,RSVPtest,173,r,true,585.8999998569489,2,r,,3,2,1,
jn8,RSVPtest,174,r,true,615.5,1,g,,3,0,1,
jn8,RSVPtest,175,r,true,641.7999999523163,2,r,,2,0,1,
jn8,RSVPtest,176,r,true,1090,2,r,,3,0,1,
jn8,RSVPtest,177,r,true,642.2999999523163,1,g,,3,2,1,
jn8,RSVPtest,178,r,false,537.2999999523163,0,b,,1,3,0,
jn8,RSVPtest,179,r,true,576.7000000476837,1,g,,1,2,1,
jn8,RSVPtest,180,r,true,1137.2999999523163,2,r,,1,1,2,
brk,brk,brk,brk,brk,brk,brk,brk,brk,brk,brk,brk,
jn8,RSVPtest,181,r,true,827.9000000953674,2,r,,3,2,1,
jn8,RSVPtest,182,r,true,810.3000001907349,2,r,,2,0,1,
jn8,RSVPtest,183,r,true,667.4000000953674,0,b,,1,3,0,
jn8,RSVPtest,184,r,true,591.2999999523163,1,g,,1,0,1,
jn8,RSVPtest,185,r,true,730.5,1,g,,1,1,2,
jn8,RSVPtest,186,r,true,759.7999999523163,0,b,,2,3,0,
jn8,RSVPtest,187,r,true,872.7999999523163,1,g,,3,1,1,
jn8,RSVPtest,188,r,true,696,2,r,,1,0,1,
jn8,RSVPtest,189,r,true,664.9000000953674,1,g,,3,0,1,
jn8,RSVPtest,190,r,true,1049.8999998569489,1,g,,2,0,1,
jn8,RSVPtest,191,r,true,759.7000000476837,2,r,,2,1,1,
jn8,RSVPtest,192,r,false,874.5999999046326,2,r,,0,2,1,
jn8,RSVPtest,193,r,true,664.4000000953674,0,b,,3,3,0,
jn8,RSVPtest,194,r,true,709.7000000476837,2,r,,2,0,1,
jn8,RSVPtest,195,r,true,752.1000001430511,1,g,,3,0,1,
jn8,RSVPtest,196,r,true,687.2000000476837,2,r,,1,2,1,
jn8,RSVPtest,197,r,false,705.8999998569489,0,b,,2,3,0,
jn8,RSVPtest,198,r,true,677.2000000476837,0,b,,3,3,0,
jn8,RSVPtest,199,r,true,730.9000000953674,2,r,,0,2,1,
jn8,RSVPtest,200,r,true,586.2000000476837,2,r,,2,0,1,
jn8,RSVPtest,201,r,true,664.8999998569489,0,b,,0,3,0,
jn8,RSVPtest,202,r,true,531.2000000476837,1,g,,2,0,1,
jn8,RSVPtest,203,r,true,681.7999999523163,1,g,,3,0,1,
jn8,RSVPtest,204,r,true,656.5,1,g,,3,2,1,
jn8,RSVPtest,205,r,true,642.7000000476837,0,b,,3,3,0,
jn8,RSVPtest,206,r,true,872.6999998092651,2,r,,1,0,1,
jn8,RSVPtest,207,r,false,967.4000000953674,1,g,,3,1,1,
jn8,RSVPtest,208,r,false,1079.2999999523163,1,g,,0,1,1,
jn8,RSVPtest,209,r,true,454.90000009536743,2,r,,1,2,1,
jn8,RSVPtest,210,r,true,712.6000001430511,2,r,,1,2,1,
jn8,RSVPtest,211,r,true,720.4000000953674,0,b,,3,3,0,
jn8,RSVPtest,212,r,false,863.2000000476837,1,g,,0,1,1,
jn8,RSVPtest,213,r,true,558.9000000953674,1,g,,1,1,2,
jn8,RSVPtest,214,r,true,725.0999999046326,0,b,,3,3,0,
jn8,RSVPtest,215,r,false,1062.9000000953674,1,g,,0,0,2,
jn8,RSVPtest,216,r,true,694.7000000476837,2,r,,0,1,1,
jn8,RSVPtest,217,r,true,519.5,1,g,,1,1,2,
jn8,RSVPtest,218,r,true,1007,1,g,,3,1,1,
jn8,RSVPtest,219,r,true,646.7999999523163,0,b,,3,3,0,
jn8,RSVPtest,220,r,true,831.5,0,b,,0,3,0,
jn8,RSVPtest,221,r,true,767.7000000476837,1,g,,3,0,1,
jn8,RSVPtest,222,r,true,824.6999998092651,1,g,,0,2,1,
jn8,RSVPtest,223,r,true,656.7999999523163,2,r,,3,1,1,
jn8,RSVPtest,224,r,true,935.8000001907349,2,r,,3,1,1,
jn8,RSVPtest,225,r,true,594.0999999046326,1,g,,1,0,1,
jn8,RSVPtest,226,r,true,601.9000000953674,2,r,,3,2,1,
jn8,RSVPtest,227,r,true,665.5,1,g,,1,0,1,
jn8,RSVPtest,228,r,true,990.8999998569489,2,r,,1,0,1,
jn8,RSVPtest,229,r,true,569.2000000476837,2,r,,1,1,2,
jn8,RSVPtest,230,r,true,1032.3999998569489,2,r,,1,1,2,
jn8,RSVPtest,231,r,true,665.5,1,g,,2,2,2,
jn8,RSVPtest,232,r,true,529.7999999523163,1,g,,2,0,1,
jn8,RSVPtest,233,r,true,647.7000000476837,2,r,,2,0,1,
jn8,RSVPtest,234,r,true,623.7999999523163,2,r,,3,0,1,
jn8,RSVPtest,235,r,true,777.7000000476837,0,b,,3,3,0,
jn8,RSVPtest,236,r,true,667.0999999046326,1,g,,3,1,1,
jn8,RSVPtest,237,r,true,649,2,r,,3,2,1,
jn8,RSVPtest,238,r,true,655.2999999523163,1,g,,0,0,2,
jn8,RSVPtest,239,r,true,873.1000001430511,2,r,,3,0,1,
jn8,RSVPtest,240,r,true,847.7000000476837,0,b,,1,3,0,
