subID,trialType,trialNum,cntBalance,correct,rt,rwdType,tgtCol,tgtDir,tgtPos,colPos,colMatch,
3hn,VDACtrain,0,r,null,null,1,g,v,5,,,
3hn,VDACtrain,0,r,null,null,1,g,h,3,,,
3hn,VDACtrain,0,r,null,null,1,g,v,0,,,
3hn,VDACtrain,0,r,true,935.5999994277954,2,r,v,4,,,
3hn,VDACtrain,0,r,null,null,2,r,v,3,,,
3hn,VDACtrain,0,r,null,null,2,r,h,0,,,
3hn,VDACtrain,0,r,true,794.5,1,g,h,5,,,
3hn,VDACtrain,0,r,null,null,2,r,h,2,,,
3hn,VDACtrain,0,r,false,855.5999994277954,1,g,v,2,,,
3hn,VDACtrain,0,r,null,null,2,r,h,1,,,
3hn,VDACtrain,0,r,true,628.5,1,g,h,3,,,
3hn,VDACtrain,0,r,true,843.4000005722046,1,g,v,2,,,
3hn,VDACtrain,0,r,null,null,2,r,v,3,,,
3hn,VDACtrain,0,r,true,759.6999998092651,1,g,h,5,,,
3hn,VDACtrain,0,r,false,997.1000003814697,2,r,h,1,,,
3hn,VDACtrain,0,r,true,914,2,r,h,0,,,
3hn,VDACtrain,0,r,true,837,1,g,v,0,,,
3hn,VDACtrain,0,r,true,671,1,g,v,5,,,
3hn,VDACtrain,0,r,true,827.6000003814697,2,r,v,4,,,
3hn,VDACtrain,0,r,null,null,2,r,h,2,,,
3hn,VDACtest,1,r,false,815.1999998092651,2,r,h,0,,,
3hn,VDACtest,2,r,true,859.2999992370605,2,r,h,4,,,
3hn,VDACtest,3,r,null,null,2,r,h,5,,,
3hn,VDACtest,4,r,null,null,1,g,h,0,,,
3hn,VDACtest,5,r,true,979.6999998092651,2,r,v,2,,,
3hn,VDACtest,6,r,true,611.3000001907349,1,g,h,0,,,
3hn,VDACtest,7,r,true,749.3000001907349,1,g,v,1,,,
3hn,VDACtest,8,r,true,588.5999994277954,2,r,v,2,,,
3hn,VDACtest,9,r,true,554.8999996185303,1,g,h,3,,,
3hn,VDACtest,10,r,true,707.2999992370605,1,g,v,0,,,
3hn,VDACtest,11,r,true,855.5999994277954,2,r,h,0,,,
3hn,VDACtest,12,r,false,932,1,g,h,4,,,
3hn,VDACtest,13,r,true,685.6999998092651,1,g,v,0,,,
3hn,VDACtest,14,r,true,651.3000001907349,2,r,v,1,,,
3hn,VDACtest,15,r,true,778.4000005722046,2,r,h,2,,,
3hn,VDACtest,16,r,true,765.6999998092651,2,r,h,1,,,
3hn,VDACtest,17,r,true,882,1,g,h,5,,,
3hn,VDACtest,18,r,true,956.3999996185303,1,g,h,1,,,
3hn,VDACtest,19,r,true,877.8000001907349,2,r,h,3,,,
3hn,VDACtest,20,r,null,null,2,r,h,1,,,
3hn,VDACtest,21,r,true,717.6999998092651,1,g,h,3,,,
3hn,VDACtest,22,r,true,661,2,r,h,4,,,
3hn,VDACtest,23,r,false,755.3999996185303,1,g,v,2,,,
3hn,VDACtest,24,r,true,597.5999994277954,1,g,h,4,,,
3hn,VDACtest,25,r,true,717.0999994277954,2,r,h,4,,,
3hn,VDACtest,26,r,true,515.3000001907349,2,r,h,4,,,
3hn,VDACtest,27,r,true,469.1000003814697,1,g,v,0,,,
3hn,VDACtest,28,r,true,693.8000001907349,1,g,v,1,,,
3hn,VDACtest,29,r,null,null,1,g,h,2,,,
3hn,VDACtest,30,r,true,695.5,1,g,v,2,,,
3hn,VDACtest,31,r,true,541.3000001907349,1,g,h,4,,,
3hn,VDACtest,32,r,false,692.2000007629395,1,g,h,4,,,
3hn,VDACtest,33,r,true,699,1,g,v,5,,,
3hn,VDACtest,34,r,null,null,1,g,h,1,,,
3hn,VDACtest,35,r,true,680.6000003814697,1,g,v,3,,,
3hn,VDACtest,36,r,true,629,1,g,v,1,,,
3hn,VDACtest,37,r,true,589.6999998092651,2,r,v,1,,,
3hn,VDACtest,38,r,true,548,2,r,v,0,,,
3hn,VDACtest,39,r,true,667.3000001907349,1,g,h,1,,,
3hn,VDACtest,40,r,false,875.8000001907349,1,g,h,4,,,
3hn,VDACtest,41,r,false,922.7999992370605,1,g,v,2,,,
3hn,VDACtest,42,r,true,653.0999994277954,2,r,v,3,,,
3hn,VDACtest,43,r,true,701.8000001907349,2,r,v,1,,,
3hn,VDACtest,44,r,true,860.6999998092651,2,r,v,0,,,
3hn,VDACtest,45,r,true,741.2999992370605,1,g,h,0,,,
3hn,VDACtest,46,r,false,692,1,g,h,5,,,
3hn,VDACtest,47,r,false,747.8000001907349,2,r,h,1,,,
3hn,VDACtest,48,r,true,596.8000001907349,2,r,h,1,,,
3hn,VDACtest,49,r,true,701,2,r,v,3,,,
3hn,VDACtest,50,r,true,580.4000005722046,1,g,v,4,,,
brk,brk,brk,brk,brk,brk,brk,brk,brk,brk,brk,brk,
3hn,VDACtest,51,r,true,780.9000005722046,2,r,v,4,,,
3hn,VDACtest,52,r,false,803.6000003814697,2,r,h,1,,,
3hn,VDACtest,53,r,true,628.1999998092651,1,g,v,4,,,
3hn,VDACtest,54,r,true,580.3000001907349,1,g,h,5,,,
3hn,VDACtest,55,r,true,546.8000001907349,2,r,v,5,,,
3hn,VDACtest,56,r,true,708.8000001907349,1,g,v,3,,,
3hn,VDACtest,57,r,true,876.6000003814697,2,r,h,2,,,
3hn,VDACtest,58,r,true,868.1999998092651,1,g,h,0,,,
3hn,VDACtest,59,r,true,444.30000019073486,2,r,v,5,,,
3hn,VDACtest,60,r,true,516.1000003814697,2,r,h,5,,,
3hn,VDACtest,61,r,false,835.5,1,g,h,1,,,
3hn,VDACtest,62,r,true,748.5,2,r,h,3,,,
3hn,VDACtest,63,r,true,572.2999992370605,1,g,v,5,,,
3hn,VDACtest,64,r,true,634,2,r,h,2,,,
3hn,VDACtest,65,r,true,876.2000007629395,2,r,h,1,,,
3hn,VDACtest,66,r,true,604.2999992370605,1,g,v,1,,,
3hn,VDACtest,67,r,true,627.9000005722046,2,r,v,4,,,
3hn,VDACtest,68,r,true,740.6999998092651,2,r,v,1,,,
3hn,VDACtest,69,r,true,604.3000001907349,2,r,h,1,,,
3hn,VDACtest,70,r,true,555.3999996185303,2,r,v,0,,,
3hn,VDACtest,71,r,true,667.1999998092651,1,g,h,1,,,
3hn,VDACtest,72,r,true,557.5999994277954,2,r,h,5,,,
3hn,VDACtest,73,r,true,586.9000005722046,2,r,v,4,,,
3hn,VDACtest,74,r,false,723.8000001907349,1,g,v,1,,,
3hn,VDACtest,75,r,true,620.5,2,r,v,3,,,
3hn,VDACtest,76,r,false,947,2,r,v,2,,,
3hn,VDACtest,77,r,null,null,1,g,h,4,,,
3hn,VDACtest,78,r,true,743.5999994277954,2,r,v,4,,,
3hn,VDACtest,79,r,true,732.8999996185303,2,r,v,1,,,
3hn,VDACtest,80,r,true,710.1000003814697,2,r,v,0,,,
3hn,VDACtest,81,r,true,571.8999996185303,2,r,v,1,,,
3hn,VDACtest,82,r,true,860.3000001907349,1,g,v,5,,,
3hn,VDACtest,83,r,true,621.1999998092651,1,g,h,1,,,
3hn,VDACtest,84,r,true,660.3999996185303,1,g,v,1,,,
3hn,VDACtest,85,r,true,486.1000003814697,1,g,v,5,,,
3hn,VDACtest,86,r,true,629.7999992370605,1,g,h,2,,,
3hn,VDACtest,87,r,true,700.3000001907349,1,g,h,4,,,
3hn,VDACtest,88,r,true,459.80000019073486,2,r,v,5,,,
3hn,VDACtest,89,r,true,613.9000005722046,1,g,v,0,,,
3hn,VDACtest,90,r,true,628,2,r,h,2,,,
3hn,VDACtest,91,r,true,484.29999923706055,1,g,v,4,,,
3hn,VDACtest,92,r,true,818.5999994277954,2,r,h,0,,,
3hn,VDACtest,93,r,true,684.0999994277954,2,r,v,1,,,
3hn,VDACtest,94,r,true,829.6000003814697,1,g,h,1,,,
3hn,VDACtest,95,r,true,517.6000003814697,1,g,h,2,,,
3hn,VDACtest,96,r,true,612.9000005722046,2,r,v,5,,,
3hn,VDACtest,97,r,false,493.4000005722046,1,g,v,5,,,
3hn,VDACtest,98,r,true,707.6000003814697,2,r,v,1,,,
3hn,VDACtest,99,r,true,675.8999996185303,1,g,h,3,,,
3hn,VDACtest,100,r,true,677.8000001907349,1,g,v,4,,,
brk,brk,brk,brk,brk,brk,brk,brk,brk,brk,brk,brk,
3hn,VDACtest,101,r,true,607.5999994277954,1,g,v,5,,,
3hn,VDACtest,102,r,true,819.6999998092651,1,g,h,1,,,
3hn,VDACtest,103,r,true,349.79999923706055,1,g,v,5,,,
3hn,VDACtest,104,r,false,692.8000001907349,2,r,v,4,,,
3hn,VDACtest,105,r,true,507.3999996185303,2,r,v,3,,,
3hn,VDACtest,106,r,true,675.8999996185303,2,r,h,2,,,
3hn,VDACtest,107,r,false,589.6000003814697,2,r,v,5,,,
3hn,VDACtest,108,r,true,804.6000003814697,1,g,h,2,,,
3hn,VDACtest,109,r,true,339.30000019073486,2,r,v,0,,,
3hn,VDACtest,110,r,true,548.1999998092651,2,r,v,3,,,
3hn,VDACtest,111,r,true,516.1999998092651,2,r,h,3,,,
3hn,VDACtest,112,r,true,555.8000001907349,1,g,h,0,,,
3hn,VDACtest,113,r,true,644,2,r,h,0,,,
3hn,VDACtest,114,r,true,708.6999998092651,2,r,v,4,,,
3hn,VDACtest,115,r,true,499.70000076293945,2,r,v,0,,,
3hn,VDACtest,116,r,true,587.3999996185303,1,g,h,3,,,
3hn,VDACtest,117,r,true,683,2,r,h,0,,,
3hn,VDACtest,118,r,true,853.6000003814697,1,g,h,4,,,
3hn,VDACtest,119,r,true,971.0999994277954,1,g,v,4,,,
3hn,VDACtest,120,r,null,null,2,r,h,5,,,
3hn,VDACtest,121,r,true,816,2,r,h,3,,,
3hn,VDACtest,122,r,true,508.1000003814697,1,g,h,5,,,
3hn,VDACtest,123,r,true,675.8999996185303,1,g,v,4,,,
3hn,VDACtest,124,r,true,650.9000005722046,1,g,h,0,,,
3hn,VDACtest,125,r,true,659.8000001907349,2,r,h,0,,,
3hn,VDACtest,126,r,true,485.19999980926514,1,g,v,1,,,
3hn,VDACtest,127,r,true,485.4000005722046,1,g,h,3,,,
3hn,VDACtest,128,r,true,451.5,2,r,v,2,,,
3hn,VDACtest,129,r,true,588,1,g,v,1,,,
3hn,VDACtest,130,r,true,612,2,r,h,5,,,
3hn,VDACtest,131,r,true,676.3999996185303,1,g,h,0,,,
3hn,VDACtest,132,r,true,460.30000019073486,1,g,v,0,,,
3hn,VDACtest,133,r,false,492.1000003814697,1,g,h,5,,,
3hn,VDACtest,134,r,true,604.4000005722046,1,g,h,2,,,
3hn,VDACtest,135,r,true,531.6000003814697,1,g,h,2,,,
3hn,VDACtest,136,r,true,588.4000005722046,1,g,v,2,,,
3hn,VDACtest,137,r,true,714.9000005722046,2,r,h,2,,,
3hn,VDACtest,138,r,true,598,1,g,v,4,,,
3hn,VDACtest,139,r,true,699.9000005722046,2,r,h,3,,,
3hn,VDACtest,140,r,true,659.8000001907349,2,r,h,4,,,
3hn,VDACtest,141,r,true,569.5999994277954,1,g,h,5,,,
3hn,VDACtest,142,r,false,605,2,r,h,2,,,
3hn,VDACtest,143,r,true,562.6999998092651,2,r,h,3,,,
3hn,VDACtest,144,r,true,603.8999996185303,1,g,v,1,,,
3hn,VDACtest,145,r,true,620.5,2,r,h,5,,,
3hn,VDACtest,146,r,true,628.1999998092651,2,r,h,1,,,
3hn,VDACtest,147,r,false,444.19999980926514,2,r,v,2,,,
3hn,VDACtest,148,r,true,429.8999996185303,2,r,v,4,,,
3hn,VDACtest,149,r,true,549,2,r,v,2,,,
3hn,VDACtest,150,r,true,587.5999994277954,2,r,v,4,,,
brk,brk,brk,brk,brk,brk,brk,brk,brk,brk,brk,brk,
3hn,VDACtest,151,r,true,722.6999998092651,1,g,v,4,,,
3hn,VDACtest,152,r,true,588.1999998092651,1,g,h,2,,,
3hn,VDACtest,153,r,false,533,1,g,h,5,,,
3hn,VDACtest,154,r,true,516.5999994277954,1,g,v,3,,,
3hn,VDACtest,155,r,true,499.6000003814697,1,g,v,4,,,
3hn,VDACtest,156,r,true,484.4000005722046,2,r,v,3,,,
3hn,VDACtest,157,r,true,365.6000003814697,2,r,v,0,,,
3hn,VDACtest,158,r,true,733.5999994277954,1,g,h,2,,,
3hn,VDACtest,159,r,true,676.5,1,g,h,5,,,
3hn,VDACtest,160,r,true,379,1,g,v,2,,,
3hn,VDACtest,161,r,false,596.3000001907349,2,r,h,4,,,
3hn,VDACtest,162,r,true,677.5999994277954,1,g,v,3,,,
3hn,VDACtest,163,r,true,487.80000019073486,2,r,v,3,,,
3hn,VDACtest,164,r,true,364.4000005722046,2,r,v,5,,,
3hn,VDACtest,165,r,true,549,1,g,h,4,,,
3hn,VDACtest,166,r,true,509.19999980926514,2,r,v,2,,,
3hn,VDACtest,167,r,true,468,1,g,v,2,,,
3hn,VDACtest,168,r,true,378.5,1,g,v,2,,,
3hn,VDACtest,169,r,true,579.5,1,g,v,2,,,
3hn,VDACtest,170,r,true,539.3000001907349,2,r,h,4,,,
3hn,VDACtest,171,r,true,395.79999923706055,2,r,v,5,,,
3hn,VDACtest,172,r,true,522.5,1,g,v,3,,,
3hn,VDACtest,173,r,true,442.6000003814697,1,g,v,3,,,
3hn,VDACtest,174,r,true,410.9000005722046,2,r,h,3,,,
3hn,VDACtest,175,r,false,597.3000001907349,2,r,v,0,,,
3hn,VDACtest,176,r,true,834.3999996185303,2,r,h,4,,,
3hn,VDACtest,177,r,true,755.9000005722046,1,g,h,3,,,
3hn,VDACtest,178,r,true,588.8000001907349,1,g,h,3,,,
3hn,VDACtest,179,r,true,642.8999996185303,2,r,v,5,,,
3hn,VDACtest,180,r,true,499.3999996185303,1,g,v,0,,,
3hn,VDACtest,181,r,false,620.8000001907349,1,g,v,3,,,
3hn,VDACtest,182,r,true,460.5999994277954,2,r,h,3,,,
3hn,VDACtest,183,r,false,628,2,r,h,5,,,
3hn,VDACtest,184,r,false,409.30000019073486,2,r,v,3,,,
3hn,VDACtest,185,r,false,492.9000005722046,2,r,h,2,,,
3hn,VDACtest,186,r,true,564.5,2,r,h,0,,,
3hn,VDACtest,187,r,true,508.70000076293945,1,g,v,5,,,
3hn,VDACtest,188,r,true,780.0999994277954,2,r,v,4,,,
3hn,VDACtest,189,r,true,452.6000003814697,2,r,v,1,,,
3hn,VDACtest,190,r,true,627.6000003814697,2,r,h,0,,,
3hn,VDACtest,191,r,true,450,1,g,v,0,,,
3hn,VDACtest,192,r,true,435.8999996185303,2,r,v,2,,,
3hn,VDACtest,193,r,true,524.5,2,r,h,1,,,
3hn,VDACtest,194,r,false,571.7999992370605,1,g,h,3,,,
3hn,VDACtest,195,r,true,761.4000005722046,1,g,h,0,,,
3hn,VDACtest,196,r,true,682.1000003814697,1,g,h,1,,,
3hn,VDACtest,197,r,true,365,1,g,v,0,,,
3hn,VDACtest,198,r,false,620.3999996185303,1,g,v,3,,,
3hn,VDACtest,199,r,false,523.7999992370605,2,r,h,4,,,
3hn,VDACtest,200,r,true,549.1000003814697,2,r,h,5,,,
3hn,RSVPtrain,0,r,false,1115.6999998092651,1,g,,3,0,1,
3hn,RSVPtrain,0,r,true,807.3999996185303,0,b,,1,3,0,
3hn,RSVPtrain,0,r,true,741.6000003814697,0,b,,3,3,0,
3hn,RSVPtrain,0,r,false,1112.3999996185303,2,r,,0,0,2,
3hn,RSVPtrain,0,r,true,1178.1999998092651,1,g,,1,0,1,
3hn,RSVPtrain,0,r,true,1758.1000003814697,1,g,,3,1,1,
3hn,RSVPtrain,0,r,true,717.1000003814697,2,r,,3,2,1,
3hn,RSVPtrain,0,r,false,1009.1999998092651,0,b,,0,3,0,
3hn,RSVPtrain,0,r,true,783,2,r,,1,1,2,
3hn,RSVPtrain,0,r,true,1389.5,1,g,,2,2,2,
3hn,RSVPtest,1,r,true,944.7000007629395,2,r,,3,0,1,
3hn,RSVPtest,2,r,false,1014.5999994277954,1,g,,0,2,1,
3hn,RSVPtest,3,r,null,null,0,b,,0,3,0,
3hn,RSVPtest,4,r,false,775.6999998092651,2,r,,2,2,2,
3hn,RSVPtest,5,r,false,991.6999998092651,2,r,,3,0,1,
3hn,RSVPtest,6,r,true,638.8000001907349,0,b,,2,3,0,
3hn,RSVPtest,7,r,true,734.9000005722046,0,b,,3,3,0,
3hn,RSVPtest,8,r,true,1030.0999994277954,2,r,,1,1,2,
3hn,RSVPtest,9,r,true,918,1,g,,3,0,1,
3hn,RSVPtest,10,r,true,613.5,0,b,,1,3,0,
3hn,RSVPtest,11,r,true,813.8000001907349,2,r,,1,0,1,
3hn,RSVPtest,12,r,false,853.5999994277954,1,g,,0,1,1,
3hn,RSVPtest,13,r,false,949.1999998092651,2,r,,3,1,1,
3hn,RSVPtest,14,r,false,652,1,g,,3,1,1,
3hn,RSVPtest,15,r,true,606.1000003814697,0,b,,3,3,0,
3hn,RSVPtest,16,r,false,1012.8000001907349,0,b,,3,3,0,
3hn,RSVPtest,17,r,true,637.8000001907349,1,g,,3,2,1,
3hn,RSVPtest,18,r,true,686,1,g,,3,1,1,
3hn,RSVPtest,19,r,true,567.2999992370605,2,r,,0,1,1,
3hn,RSVPtest,20,r,true,644.4000005722046,0,b,,2,3,0,
3hn,RSVPtest,21,r,true,807.0999994277954,0,b,,1,3,0,
3hn,RSVPtest,22,r,true,949.6999998092651,1,g,,0,1,1,
3hn,RSVPtest,23,r,true,694.8999996185303,2,r,,3,2,1,
3hn,RSVPtest,24,r,false,612.5,1,g,,3,2,1,
3hn,RSVPtest,25,r,false,975.5,1,g,,2,1,1,
3hn,RSVPtest,26,r,true,526,1,g,,2,0,1,
3hn,RSVPtest,27,r,true,1065.2000007629395,2,r,,3,1,1,
3hn,RSVPtest,28,r,false,437.19999980926514,0,b,,2,3,0,
3hn,RSVPtest,29,r,true,456.80000019073486,0,b,,1,3,0,
3hn,RSVPtest,30,r,true,422.5999994277954,2,r,,2,2,2,
3hn,RSVPtest,31,r,true,525.2999992370605,0,b,,2,3,0,
3hn,RSVPtest,32,r,true,701.7000007629395,1,g,,0,2,1,
3hn,RSVPtest,33,r,false,535.8999996185303,2,r,,2,0,1,
3hn,RSVPtest,34,r,true,550.8000001907349,1,g,,0,0,2,
3hn,RSVPtest,35,r,true,662.0999994277954,1,g,,3,1,1,
3hn,RSVPtest,36,r,true,822.5,0,b,,3,3,0,
3hn,RSVPtest,37,r,true,734.0999994277954,2,r,,3,1,1,
3hn,RSVPtest,38,r,false,934.1000003814697,0,b,,1,3,0,
3hn,RSVPtest,39,r,true,399.5,0,b,,1,3,0,
3hn,RSVPtest,40,r,true,517.2999992370605,2,r,,1,2,1,
3hn,RSVPtest,41,r,true,564.3999996185303,0,b,,0,3,0,
3hn,RSVPtest,42,r,true,646.5999994277954,1,g,,1,0,1,
3hn,RSVPtest,43,r,true,396.6000003814697,0,b,,1,3,0,
3hn,RSVPtest,44,r,true,389.30000019073486,2,r,,3,1,1,
3hn,RSVPtest,45,r,false,454.8999996185303,0,b,,3,3,0,
3hn,RSVPtest,46,r,true,765.6000003814697,2,r,,1,2,1,
3hn,RSVPtest,47,r,true,478,2,r,,3,0,1,
3hn,RSVPtest,48,r,false,670.3000001907349,2,r,,3,0,1,
3hn,RSVPtest,49,r,true,694.3000001907349,1,g,,2,0,1,
3hn,RSVPtest,50,r,true,639.6000003814697,1,g,,1,0,1,
3hn,RSVPtest,51,r,true,510.5,1,g,,3,0,1,
3hn,RSVPtest,52,r,false,613.2999992370605,2,r,,0,0,2,
3hn,RSVPtest,53,r,true,835.8000001907349,1,g,,3,2,1,
3hn,RSVPtest,54,r,true,716.8999996185303,2,r,,2,1,1,
3hn,RSVPtest,55,r,true,591.6000003814697,2,r,,3,2,1,
3hn,RSVPtest,56,r,false,548.1999998092651,2,r,,0,0,2,
3hn,RSVPtest,57,r,true,645.5,1,g,,3,2,1,
3hn,RSVPtest,58,r,false,565.3000001907349,1,g,,3,1,1,
3hn,RSVPtest,59,r,false,781.6999998092651,1,g,,1,0,1,
3hn,RSVPtest,60,r,true,740.6000003814697,1,g,,1,2,1,
brk,brk,brk,brk,brk,brk,brk,brk,brk,brk,brk,brk,
3hn,RSVPtest,61,r,true,660.5999994277954,2,r,,2,1,1,
3hn,RSVPtest,62,r,true,694.9000005722046,1,g,,3,0,1,
3hn,RSVPtest,63,r,false,1151.9000005722046,2,r,,3,0,1,
3hn,RSVPtest,64,r,false,724.5,1,g,,2,2,2,
3hn,RSVPtest,65,r,true,582.3000001907349,2,r,,3,2,1,
3hn,RSVPtest,66,r,false,1030.3999996185303,2,r,,2,1,1,
3hn,RSVPtest,67,r,true,509.1000003814697,2,r,,0,0,2,
3hn,RSVPtest,68,r,true,782.7000007629395,0,b,,3,3,0,
3hn,RSVPtest,69,r,true,652.7999992370605,1,g,,2,1,1,
3hn,RSVPtest,70,r,false,637.3999996185303,1,g,,2,1,1,
3hn,RSVPtest,71,r,false,675.4000005722046,1,g,,3,1,1,
3hn,RSVPtest,72,r,true,807.8999996185303,2,r,,3,2,1,
3hn,RSVPtest,73,r,true,805.5999994277954,0,b,,0,3,0,
3hn,RSVPtest,74,r,true,1325,0,b,,0,3,0,
3hn,RSVPtest,75,r,false,749.4000005722046,0,b,,0,3,0,
3hn,RSVPtest,76,r,true,694.1999998092651,1,g,,0,2,1,
3hn,RSVPtest,77,r,false,987.8000001907349,0,b,,3,3,0,
3hn,RSVPtest,78,r,true,661.5,2,r,,2,0,1,
3hn,RSVPtest,79,r,true,780.5999994277954,2,r,,0,1,1,
3hn,RSVPtest,80,r,true,639.8000001907349,0,b,,3,3,0,
3hn,RSVPtest,81,r,true,796.1999998092651,1,g,,0,2,1,
3hn,RSVPtest,82,r,false,658.8000001907349,0,b,,2,3,0,
3hn,RSVPtest,83,r,true,685.1999998092651,1,g,,2,1,1,
3hn,RSVPtest,84,r,true,1013.5,1,g,,3,2,1,
3hn,RSVPtest,85,r,true,1387.6000003814697,0,b,,2,3,0,
3hn,RSVPtest,86,r,true,820.6999998092651,0,b,,3,3,0,
3hn,RSVPtest,87,r,true,1028.5,2,r,,1,0,1,
3hn,RSVPtest,88,r,true,603.1999998092651,0,b,,3,3,0,
3hn,RSVPtest,89,r,true,836.1000003814697,0,b,,3,3,0,
3hn,RSVPtest,90,r,true,709.6999998092651,0,b,,2,3,0,
3hn,RSVPtest,91,r,true,589.3999996185303,2,r,,3,2,1,
3hn,RSVPtest,92,r,true,1101,2,r,,0,2,1,
3hn,RSVPtest,93,r,true,741.6000003814697,0,b,,3,3,0,
3hn,RSVPtest,94,r,true,771.6999998092651,1,g,,3,2,1,
3hn,RSVPtest,95,r,true,910.3999996185303,2,r,,3,2,1,
3hn,RSVPtest,96,r,true,875.5,2,r,,3,2,1,
3hn,RSVPtest,97,r,true,678.0999994277954,1,g,,3,2,1,
3hn,RSVPtest,98,r,false,971.6999998092651,2,r,,0,1,1,
3hn,RSVPtest,99,r,true,998.8999996185303,1,g,,2,2,2,
3hn,RSVPtest,100,r,true,628,1,g,,3,0,1,
3hn,RSVPtest,101,r,true,684,1,g,,3,0,1,
3hn,RSVPtest,102,r,true,589,0,b,,3,3,0,
3hn,RSVPtest,103,r,true,702.4000005722046,0,b,,3,3,0,
3hn,RSVPtest,104,r,false,667.1999998092651,2,r,,2,0,1,
3hn,RSVPtest,105,r,true,663.1999998092651,2,r,,3,0,1,
3hn,RSVPtest,106,r,false,478.5999994277954,2,r,,2,0,1,
3hn,RSVPtest,107,r,true,637.7999992370605,0,b,,1,3,0,
3hn,RSVPtest,108,r,false,1155.0999994277954,2,r,,3,2,1,
3hn,RSVPtest,109,r,false,708.3999996185303,2,r,,2,1,1,
3hn,RSVPtest,110,r,true,612.9000005722046,2,r,,1,2,1,
3hn,RSVPtest,111,r,true,803.1999998092651,2,r,,3,1,1,
3hn,RSVPtest,112,r,true,869.7999992370605,1,g,,0,0,2,
3hn,RSVPtest,113,r,false,741.4000005722046,1,g,,0,0,2,
3hn,RSVPtest,114,r,true,611.5999994277954,1,g,,3,2,1,
3hn,RSVPtest,115,r,true,1324.6999998092651,2,r,,2,2,2,
3hn,RSVPtest,116,r,false,603.2999992370605,0,b,,2,3,0,
3hn,RSVPtest,117,r,true,953.6000003814697,0,b,,2,3,0,
3hn,RSVPtest,118,r,false,610.8000001907349,1,g,,2,0,1,
3hn,RSVPtest,119,r,true,932.8000001907349,0,b,,1,3,0,
3hn,RSVPtest,120,r,true,587.8999996185303,0,b,,3,3,0,
brk,brk,brk,brk,brk,brk,brk,brk,brk,brk,brk,brk,
3hn,RSVPtest,121,r,true,681.0999994277954,2,r,,0,1,1,
3hn,RSVPtest,122,r,true,729.3999996185303,0,b,,0,3,0,
3hn,RSVPtest,123,r,true,607.0999994277954,0,b,,3,3,0,
3hn,RSVPtest,124,r,true,732.1999998092651,2,r,,3,1,1,
3hn,RSVPtest,125,r,false,874.3000001907349,1,g,,1,0,1,
3hn,RSVPtest,126,r,true,582.3000001907349,0,b,,2,3,0,
3hn,RSVPtest,127,r,true,897.8999996185303,2,r,,2,2,2,
3hn,RSVPtest,128,r,true,925.8999996185303,0,b,,3,3,0,
3hn,RSVPtest,129,r,true,707.6999998092651,1,g,,3,0,1,
3hn,RSVPtest,130,r,true,779.3000001907349,2,r,,3,1,1,
3hn,RSVPtest,131,r,true,582.2999992370605,1,g,,3,1,1,
3hn,RSVPtest,132,r,true,715.5,1,g,,0,1,1,
3hn,RSVPtest,133,r,true,619,0,b,,0,3,0,
3hn,RSVPtest,134,r,true,640.8999996185303,1,g,,0,0,2,
3hn,RSVPtest,135,r,true,631.0999994277954,1,g,,3,0,1,
3hn,RSVPtest,136,r,true,651.2999992370605,1,g,,3,1,1,
3hn,RSVPtest,137,r,true,723,1,g,,1,1,2,
3hn,RSVPtest,138,r,true,1058,0,b,,3,3,0,
3hn,RSVPtest,139,r,true,640.1000003814697,2,r,,3,1,1,
3hn,RSVPtest,140,r,true,684.5999994277954,1,g,,2,2,2,
3hn,RSVPtest,141,r,true,1459.8999996185303,1,g,,3,0,1,
3hn,RSVPtest,142,r,true,723.3000001907349,1,g,,1,1,2,
3hn,RSVPtest,143,r,true,701.6999998092651,2,r,,2,1,1,
3hn,RSVPtest,144,r,true,748.5,2,r,,3,0,1,
3hn,RSVPtest,145,r,true,885.8000001907349,2,r,,1,1,2,
3hn,RSVPtest,146,r,true,600.6999998092651,0,b,,1,3,0,
3hn,RSVPtest,147,r,true,733.5999994277954,1,g,,1,2,1,
3hn,RSVPtest,148,r,false,571.3000001907349,0,b,,2,3,0,
3hn,RSVPtest,149,r,false,811.7000007629395,1,g,,3,1,1,
3hn,RSVPtest,150,r,true,930.1000003814697,0,b,,1,3,0,
3hn,RSVPtest,151,r,true,700.3000001907349,2,r,,0,2,1,
3hn,RSVPtest,152,r,true,770.1000003814697,2,r,,3,1,1,
3hn,RSVPtest,153,r,true,956.1000003814697,2,r,,0,2,1,
3hn,RSVPtest,154,r,true,785.6999998092651,2,r,,0,2,1,
3hn,RSVPtest,155,r,false,684.8999996185303,0,b,,1,3,0,
3hn,RSVPtest,156,r,true,691.5999994277954,0,b,,3,3,0,
3hn,RSVPtest,157,r,true,1036.9000005722046,2,r,,3,0,1,
3hn,RSVPtest,158,r,true,1025.6000003814697,1,g,,2,0,1,
3hn,RSVPtest,159,r,true,748.1000003814697,0,b,,3,3,0,
3hn,RSVPtest,160,r,false,1100.1000003814697,0,b,,3,3,0,
3hn,RSVPtest,161,r,false,660,1,g,,1,0,1,
3hn,RSVPtest,162,r,true,515.3999996185303,0,b,,0,3,0,
3hn,RSVPtest,163,r,true,731.8000001907349,1,g,,2,2,2,
3hn,RSVPtest,164,r,true,946.4000005722046,2,r,,2,1,1,
3hn,RSVPtest,165,r,true,723.2000007629395,2,r,,3,0,1,
3hn,RSVPtest,166,r,true,691.5,1,g,,2,1,1,
3hn,RSVPtest,167,r,true,698.8999996185303,1,g,,2,2,2,
3hn,RSVPtest,168,r,true,683.7000007629395,0,b,,0,3,0,
3hn,RSVPtest,169,r,false,665.8999996185303,2,r,,3,2,1,
3hn,RSVPtest,170,r,true,707.2999992370605,1,g,,0,1,1,
3hn,RSVPtest,171,r,true,573.7999992370605,0,b,,3,3,0,
3hn,RSVPtest,172,r,true,459.80000019073486,1,g,,0,2,1,
3hn,RSVPtest,173,r,false,763.9000005722046,1,g,,3,2,1,
3hn,RSVPtest,174,r,true,840.6000003814697,2,r,,2,0,1,
3hn,RSVPtest,175,r,true,828.8000001907349,1,g,,0,1,1,
3hn,RSVPtest,176,r,true,689.3999996185303,1,g,,1,1,2,
3hn,RSVPtest,177,r,true,523,1,g,,1,1,2,
3hn,RSVPtest,178,r,true,817.8000001907349,1,g,,3,0,1,
3hn,RSVPtest,179,r,true,435.1000003814697,2,r,,1,0,1,
3hn,RSVPtest,180,r,false,594.6000003814697,2,r,,3,0,1,
brk,brk,brk,brk,brk,brk,brk,brk,brk,brk,brk,brk,
3hn,RSVPtest,181,r,false,887.9000005722046,2,r,,0,1,1,
3hn,RSVPtest,182,r,false,604.1999998092651,2,r,,3,1,1,
3hn,RSVPtest,183,r,true,524,1,g,,0,0,2,
3hn,RSVPtest,184,r,true,649.5999994277954,1,g,,3,1,1,
3hn,RSVPtest,185,r,true,533.3000001907349,1,g,,1,1,2,
3hn,RSVPtest,186,r,true,860,1,g,,3,0,1,
3hn,RSVPtest,187,r,false,466.69999980926514,1,g,,3,2,1,
3hn,RSVPtest,188,r,true,557.7000007629395,1,g,,1,1,2,
3hn,RSVPtest,189,r,true,698.8999996185303,2,r,,3,2,1,
3hn,RSVPtest,190,r,true,553.8000001907349,1,g,,2,1,1,
3hn,RSVPtest,191,r,false,804.1999998092651,1,g,,1,2,1,
3hn,RSVPtest,192,r,true,524.1000003814697,2,r,,2,0,1,
3hn,RSVPtest,193,r,false,649.1999998092651,0,b,,1,3,0,
3hn,RSVPtest,194,r,true,521.8000001907349,2,r,,1,0,1,
3hn,RSVPtest,195,r,true,555.6999998092651,0,b,,0,3,0,
3hn,RSVPtest,196,r,true,929.5,2,r,,3,1,1,
3hn,RSVPtest,197,r,true,762,2,r,,1,1,2,
3hn,RSVPtest,198,r,true,585.6999998092651,1,g,,3,2,1,
3hn,RSVPtest,199,r,true,717.7000007629395,0,b,,3,3,0,
3hn,RSVPtest,200,r,true,755.8999996185303,1,g,,2,0,1,
3hn,RSVPtest,201,r,true,658.6999998092651,2,r,,3,2,1,
3hn,RSVPtest,202,r,true,755.4000005722046,2,r,,1,2,1,
3hn,RSVPtest,203,r,true,691.2999992370605,1,g,,0,2,1,
3hn,RSVPtest,204,r,true,504.69999980926514,2,r,,3,1,1,
3hn,RSVPtest,205,r,true,995.7999992370605,1,g,,1,2,1,
3hn,RSVPtest,206,r,true,602.1999998092651,2,r,,3,0,1,
3hn,RSVPtest,207,r,true,507.1000003814697,2,r,,1,2,1,
3hn,RSVPtest,208,r,false,642.1999998092651,1,g,,2,2,2,
3hn,RSVPtest,209,r,true,770.6000003814697,2,r,,0,1,1,
3hn,RSVPtest,210,r,false,529.3000001907349,2,r,,3,2,1,
3hn,RSVPtest,211,r,false,763.3000001907349,1,g,,0,0,2,
3hn,RSVPtest,212,r,true,561.2999992370605,0,b,,0,3,0,
3hn,RSVPtest,213,r,true,456.8999996185303,0,b,,0,3,0,
3hn,RSVPtest,214,r,true,678.6999998092651,2,r,,0,0,2,
3hn,RSVPtest,215,r,true,674.8000001907349,2,r,,2,2,2,
3hn,RSVPtest,216,r,true,793.5999994277954,2,r,,0,2,1,
3hn,RSVPtest,217,r,true,923.5999994277954,0,b,,2,3,0,
3hn,RSVPtest,218,r,false,858.2000007629395,1,g,,2,0,1,
3hn,RSVPtest,219,r,true,723.3999996185303,1,g,,3,0,1,
3hn,RSVPtest,220,r,false,907.3000001907349,1,g,,3,1,1,
3hn,RSVPtest,221,r,true,676.7999992370605,2,r,,1,1,2,
3hn,RSVPtest,222,r,true,755.5,2,r,,1,1,2,
3hn,RSVPtest,223,r,true,746.0999994277954,2,r,,1,0,1,
3hn,RSVPtest,224,r,true,474.19999980926514,2,r,,0,0,2,
3hn,RSVPtest,225,r,true,602.8000001907349,1,g,,3,0,1,
3hn,RSVPtest,226,r,true,656.3000001907349,0,b,,3,3,0,
3hn,RSVPtest,227,r,true,979.8999996185303,1,g,,1,2,1,
3hn,RSVPtest,228,r,true,633.4000005722046,2,r,,0,2,1,
3hn,RSVPtest,229,r,true,628.3000001907349,2,r,,0,0,2,
3hn,RSVPtest,230,r,true,403.5999994277954,2,r,,2,2,2,
3hn,RSVPtest,231,r,true,595.3999996185303,2,r,,1,1,2,
3hn,RSVPtest,232,r,true,369.4000005722046,1,g,,1,2,1,
3hn,RSVPtest,233,r,true,354.79999923706055,1,g,,1,0,1,
3hn,RSVPtest,234,r,true,613.1999998092651,2,r,,3,0,1,
3hn,RSVPtest,235,r,true,543.3000001907349,1,g,,0,1,1,
3hn,RSVPtest,236,r,true,386.30000019073486,2,r,,1,2,1,
3hn,RSVPtest,237,r,false,713.8000001907349,1,g,,3,1,1,
3hn,RSVPtest,238,r,true,723.5,1,g,,3,2,1,
3hn,RSVPtest,239,r,true,1048.4000005722046,1,g,,3,1,1,
3hn,RSVPtest,240,r,false,1161.9000005722046,2,r,,1,0,1,
