subID,trialType,trialNum,cntBalance,correct,rt,rwdType,tgtCol,tgtDir,tgtPos,colPos,colMatch,
tex,VDACtrain,0,g,true,739.1000001430511,2,g,h,3,,,
tex,VDACtrain,0,g,true,802.8999998569489,2,g,v,0,,,
tex,VDACtrain,0,g,null,null,1,r,v,4,,,
tex,VDACtrain,0,g,true,705.7000000476837,2,g,h,5,,,
tex,VDACtrain,0,g,false,489.69999980926514,1,r,h,0,,,
tex,VDACtrain,0,g,false,959.7000000476837,1,r,h,2,,,
tex,VDACtrain,0,g,true,753.7999999523163,2,g,v,2,,,
tex,VDACtrain,0,g,true,770.8999998569489,2,g,v,5,,,
tex,VDACtrain,0,g,true,672.5999999046326,1,r,v,3,,,
tex,VDACtrain,0,g,true,673.3999998569489,1,r,h,1,,,
tex,VDACtest,1,g,true,937.2999999523163,1,r,h,0,,,
tex,VDACtest,2,g,true,577.4000000953674,2,g,v,4,,,
tex,VDACtest,3,g,null,null,2,g,h,2,,,
tex,VDACtest,4,g,true,655.7000000476837,2,g,v,2,,,
tex,VDACtest,5,g,true,761.5999999046326,1,r,h,5,,,
tex,VDACtest,6,g,true,810.0999999046326,1,r,h,2,,,
tex,VDACtest,7,g,true,776.5,1,r,h,5,,,
tex,VDACtest,8,g,true,481.7999999523163,1,r,v,2,,,
tex,VDACtest,9,g,true,545.0999999046326,1,r,h,3,,,
tex,VDACtest,10,g,true,488.2999999523163,2,g,v,1,,,
tex,VDACtest,11,g,true,448.39999985694885,2,g,h,3,,,
tex,VDACtest,12,g,true,561.0999999046326,1,r,v,3,,,
tex,VDACtest,13,g,true,515,2,g,v,3,,,
tex,VDACtest,14,g,true,451.7999999523163,2,g,v,5,,,
tex,VDACtest,15,g,true,762.7999999523163,2,g,v,0,,,
tex,VDACtest,16,g,true,522.9000000953674,2,g,h,2,,,
tex,VDACtest,17,g,null,null,1,r,v,2,,,
tex,VDACtest,18,g,true,605,2,g,v,3,,,
tex,VDACtest,19,g,true,649.5,2,g,h,4,,,
tex,VDACtest,20,g,true,778.6999998092651,2,g,v,4,,,
tex,VDACtest,21,g,true,522.0999999046326,1,r,h,3,,,
tex,VDACtest,22,g,true,930,1,r,h,1,,,
tex,VDACtest,23,g,true,787.8999998569489,2,g,v,2,,,
tex,VDACtest,24,g,true,520.7999999523163,2,g,v,2,,,
tex,VDACtest,25,g,true,618,2,g,h,2,,,
tex,VDACtest,26,g,true,787.2000000476837,1,r,v,0,,,
tex,VDACtest,27,g,true,659.6000001430511,1,r,v,2,,,
tex,VDACtest,28,g,true,651,2,g,h,4,,,
tex,VDACtest,29,g,true,723.3000001907349,2,g,v,3,,,
tex,VDACtest,30,g,true,530.9000000953674,2,g,v,5,,,
tex,VDACtest,31,g,true,954,1,r,h,3,,,
tex,VDACtest,32,g,true,739.7000000476837,2,g,h,3,,,
tex,VDACtest,33,g,false,571.6999998092651,1,r,h,4,,,
tex,VDACtest,34,g,true,650.8000001907349,1,r,v,5,,,
tex,VDACtest,35,g,true,724.4000000953674,1,r,v,2,,,
tex,VDACtest,36,g,true,801.4000000953674,2,g,h,0,,,
tex,VDACtest,37,g,true,668,2,g,h,5,,,
tex,VDACtest,38,g,true,947.0999999046326,1,r,h,1,,,
tex,VDACtest,39,g,true,618.7000000476837,2,g,v,3,,,
tex,VDACtest,40,g,true,689,1,r,h,1,,,
tex,VDACtest,41,g,true,640.9000000953674,2,g,v,3,,,
tex,VDACtest,42,g,null,null,1,r,v,0,,,
tex,VDACtest,43,g,true,701.3999998569489,1,r,h,5,,,
tex,VDACtest,44,g,false,827.6000001430511,2,g,h,0,,,
tex,VDACtest,45,g,true,801.5,1,r,v,3,,,
tex,VDACtest,46,g,true,618.7000000476837,2,g,h,3,,,
tex,VDACtest,47,g,true,547.5999999046326,2,g,v,4,,,
tex,VDACtest,48,g,true,801.1000001430511,1,r,v,5,,,
tex,VDACtest,49,g,true,456.60000014305115,1,r,h,4,,,
tex,VDACtest,50,g,true,435.89999985694885,1,r,v,4,,,
brk,brk,brk,brk,brk,brk,brk,brk,brk,brk,brk,brk,
tex,VDACtest,51,g,true,804.8000001907349,1,r,v,3,,,
tex,VDACtest,52,g,true,584.2999999523163,2,g,h,0,,,
tex,VDACtest,53,g,true,530.6000001430511,2,g,v,5,,,
tex,VDACtest,54,g,true,425.7999999523163,1,r,h,3,,,
tex,VDACtest,55,g,true,871.8999998569489,1,r,h,1,,,
tex,VDACtest,56,g,true,842.2000000476837,1,r,h,4,,,
tex,VDACtest,57,g,true,586.6000001430511,1,r,v,3,,,
tex,VDACtest,58,g,true,713.9000000953674,2,g,h,4,,,
tex,VDACtest,59,g,true,752.8000001907349,1,r,v,2,,,
tex,VDACtest,60,g,true,699.2999999523163,1,r,h,0,,,
tex,VDACtest,61,g,true,664.2000000476837,1,r,v,3,,,
tex,VDACtest,62,g,true,649,2,g,h,4,,,
tex,VDACtest,63,g,true,658.6999998092651,2,g,v,5,,,
tex,VDACtest,64,g,true,530.2000000476837,1,r,v,5,,,
tex,VDACtest,65,g,true,624.2999999523163,1,r,v,1,,,
tex,VDACtest,66,g,true,618.2000000476837,2,g,v,0,,,
tex,VDACtest,67,g,true,728.8999998569489,2,g,h,4,,,
tex,VDACtest,68,g,true,584,1,r,v,0,,,
tex,VDACtest,69,g,true,745.9000000953674,2,g,v,1,,,
tex,VDACtest,70,g,true,553.7000000476837,2,g,h,1,,,
tex,VDACtest,71,g,true,585.2999999523163,1,r,h,4,,,
tex,VDACtest,72,g,true,522.2000000476837,2,g,v,1,,,
tex,VDACtest,73,g,true,513.6999998092651,2,g,h,5,,,
tex,VDACtest,74,g,null,null,1,r,h,3,,,
tex,VDACtest,75,g,true,500.60000014305115,1,r,v,1,,,
tex,VDACtest,76,g,true,599.2000000476837,2,g,v,1,,,
tex,VDACtest,77,g,true,514.0999999046326,2,g,h,5,,,
tex,VDACtest,78,g,true,601.1000001430511,1,r,v,4,,,
tex,VDACtest,79,g,true,657.2000000476837,1,r,v,4,,,
tex,VDACtest,80,g,true,577.2999999523163,2,g,h,3,,,
tex,VDACtest,81,g,true,858.4000000953674,2,g,h,2,,,
tex,VDACtest,82,g,true,695.4000000953674,2,g,v,3,,,
tex,VDACtest,83,g,null,null,1,r,h,2,,,
tex,VDACtest,84,g,true,825.6000001430511,1,r,h,0,,,
tex,VDACtest,85,g,true,545.4000000953674,1,r,v,5,,,
tex,VDACtest,86,g,true,521.8000001907349,1,r,v,0,,,
tex,VDACtest,87,g,false,722.2999999523163,2,g,v,0,,,
tex,VDACtest,88,g,true,529.2999999523163,2,g,h,0,,,
tex,VDACtest,89,g,true,705.8000001907349,1,r,h,1,,,
tex,VDACtest,90,g,true,392.89999985694885,1,r,v,0,,,
tex,VDACtest,91,g,true,599.2999999523163,1,r,v,4,,,
tex,VDACtest,92,g,true,970.8999998569489,1,r,h,5,,,
tex,VDACtest,93,g,true,843.6000001430511,2,g,h,3,,,
tex,VDACtest,94,g,true,417.89999985694885,2,g,v,5,,,
tex,VDACtest,95,g,true,546.7999999523163,1,r,h,3,,,
tex,VDACtest,96,g,true,818.1000001430511,2,g,h,1,,,
tex,VDACtest,97,g,true,666,1,r,h,5,,,
tex,VDACtest,98,g,true,819.4000000953674,2,g,v,1,,,
tex,VDACtest,99,g,true,778.8000001907349,1,r,v,2,,,
tex,VDACtest,100,g,true,699.2999999523163,2,g,v,2,,,
brk,brk,brk,brk,brk,brk,brk,brk,brk,brk,brk,brk,
tex,VDACtest,101,g,true,698.5,2,g,h,1,,,
tex,VDACtest,102,g,true,799.9000000953674,2,g,h,1,,,
tex,VDACtest,103,g,true,747,2,g,h,5,,,
tex,VDACtest,104,g,true,697.7000000476837,1,r,h,2,,,
tex,VDACtest,105,g,true,538.7000000476837,2,g,v,4,,,
tex,VDACtest,106,g,true,569,1,r,v,1,,,
tex,VDACtest,107,g,true,498.90000009536743,1,r,v,4,,,
tex,VDACtest,108,g,true,562.3999998569489,2,g,v,4,,,
tex,VDACtest,109,g,true,449.09999990463257,1,r,v,1,,,
tex,VDACtest,110,g,true,698.5999999046326,1,r,v,2,,,
tex,VDACtest,111,g,false,594.8000001907349,1,r,h,0,,,
tex,VDACtest,112,g,true,721.5999999046326,1,r,v,5,,,
tex,VDACtest,113,g,true,505.7999999523163,2,g,h,1,,,
tex,VDACtest,114,g,true,754.1000001430511,2,g,v,4,,,
tex,VDACtest,115,g,true,633.0999999046326,2,g,v,5,,,
tex,VDACtest,116,g,true,552.5999999046326,1,r,v,3,,,
tex,VDACtest,117,g,null,null,2,g,v,3,,,
tex,VDACtest,118,g,true,994.2000000476837,2,g,v,1,,,
tex,VDACtest,119,g,true,595.2000000476837,1,r,v,5,,,
tex,VDACtest,120,g,true,546.7999999523163,1,r,h,0,,,
tex,VDACtest,121,g,null,null,2,g,h,2,,,
tex,VDACtest,122,g,true,596.1000001430511,1,r,h,1,,,
tex,VDACtest,123,g,true,762.2999999523163,1,r,h,5,,,
tex,VDACtest,124,g,true,680.8000001907349,2,g,v,1,,,
tex,VDACtest,125,g,true,568.7999999523163,1,r,v,1,,,
tex,VDACtest,126,g,true,522.9000000953674,2,g,h,3,,,
tex,VDACtest,127,g,true,633.5999999046326,1,r,v,0,,,
tex,VDACtest,128,g,true,514.5,2,g,h,5,,,
tex,VDACtest,129,g,true,865.7000000476837,1,r,h,2,,,
tex,VDACtest,130,g,true,754,1,r,v,1,,,
tex,VDACtest,131,g,true,642.2999999523163,1,r,h,2,,,
tex,VDACtest,132,g,true,448.7999999523163,2,g,v,0,,,
tex,VDACtest,133,g,true,745.9000000953674,1,r,h,1,,,
tex,VDACtest,134,g,true,641.7999999523163,2,g,v,2,,,
tex,VDACtest,135,g,true,632.4000000953674,2,g,v,1,,,
tex,VDACtest,136,g,true,698.1000001430511,2,g,h,3,,,
tex,VDACtest,137,g,true,713.8999998569489,1,r,v,3,,,
tex,VDACtest,138,g,true,600.7000000476837,1,r,h,1,,,
tex,VDACtest,139,g,true,705.8999998569489,2,g,v,0,,,
tex,VDACtest,140,g,true,585.0999999046326,2,g,v,0,,,
tex,VDACtest,141,g,true,602.1000001430511,2,g,h,3,,,
tex,VDACtest,142,g,true,416.90000009536743,1,r,v,0,,,
tex,VDACtest,143,g,true,841.7999999523163,1,r,v,1,,,
tex,VDACtest,144,g,true,481.10000014305115,1,r,h,4,,,
tex,VDACtest,145,g,true,592.4000000953674,1,r,h,3,,,
tex,VDACtest,146,g,true,585.7999999523163,1,r,h,5,,,
tex,VDACtest,147,g,true,514.7000000476837,2,g,v,2,,,
tex,VDACtest,148,g,true,546.3999998569489,2,g,v,2,,,
tex,VDACtest,149,g,true,777.1000001430511,2,g,v,0,,,
tex,VDACtest,150,g,true,561.5,1,r,h,4,,,
brk,brk,brk,brk,brk,brk,brk,brk,brk,brk,brk,brk,
tex,VDACtest,151,g,true,614.7999999523163,1,r,v,4,,,
tex,VDACtest,152,g,true,489.7999999523163,1,r,h,0,,,
tex,VDACtest,153,g,true,442.2000000476837,1,r,v,5,,,
tex,VDACtest,154,g,true,537.2999999523163,2,g,v,1,,,
tex,VDACtest,155,g,true,504.09999990463257,1,r,h,2,,,
tex,VDACtest,156,g,true,554.4000000953674,1,r,v,2,,,
tex,VDACtest,157,g,true,473.40000009536743,2,g,h,0,,,
tex,VDACtest,158,g,true,440.40000009536743,1,r,v,4,,,
tex,VDACtest,159,g,true,529.2000000476837,2,g,h,5,,,
tex,VDACtest,160,g,true,648.7999999523163,1,r,h,4,,,
tex,VDACtest,161,g,true,487.90000009536743,2,g,v,4,,,
tex,VDACtest,162,g,true,650.5,2,g,h,5,,,
tex,VDACtest,163,g,true,530.1000001430511,2,g,h,2,,,
tex,VDACtest,164,g,true,928.5,1,r,h,3,,,
tex,VDACtest,165,g,true,451,2,g,v,3,,,
tex,VDACtest,166,g,true,643.7999999523163,1,r,h,5,,,
tex,VDACtest,167,g,true,553.5999999046326,1,r,h,0,,,
tex,VDACtest,168,g,true,513.1999998092651,2,g,h,0,,,
tex,VDACtest,169,g,true,546,2,g,h,4,,,
tex,VDACtest,170,g,true,626.2999999523163,2,g,h,4,,,
tex,VDACtest,171,g,true,802.6999998092651,1,r,v,1,,,
tex,VDACtest,172,g,true,617.2999999523163,1,r,h,2,,,
tex,VDACtest,173,g,true,560.7000000476837,1,r,h,2,,,
tex,VDACtest,174,g,true,592.7000000476837,2,g,h,4,,,
tex,VDACtest,175,g,true,810.7000000476837,2,g,h,5,,,
tex,VDACtest,176,g,true,594.5,2,g,v,4,,,
tex,VDACtest,177,g,true,514.5,1,r,v,4,,,
tex,VDACtest,178,g,true,537.4000000953674,2,g,v,4,,,
tex,VDACtest,179,g,true,568.2000000476837,2,g,v,0,,,
tex,VDACtest,180,g,true,537.9000000953674,2,g,h,2,,,
tex,VDACtest,181,g,true,515.5999999046326,2,g,h,0,,,
tex,VDACtest,182,g,true,648.8000001907349,2,g,h,0,,,
tex,VDACtest,183,g,true,449.40000009536743,1,r,v,5,,,
tex,VDACtest,184,g,true,627.4000000953674,1,r,h,4,,,
tex,VDACtest,185,g,true,624.7000000476837,2,g,h,2,,,
tex,VDACtest,186,g,true,529,1,r,v,0,,,
tex,VDACtest,187,g,true,809.5999999046326,2,g,h,1,,,
tex,VDACtest,188,g,true,707.0999999046326,2,g,h,4,,,
tex,VDACtest,189,g,true,554.5999999046326,1,r,h,0,,,
tex,VDACtest,190,g,true,474.40000009536743,2,g,v,5,,,
tex,VDACtest,191,g,true,575.7999999523163,1,r,v,1,,,
tex,VDACtest,192,g,true,498.60000014305115,2,g,v,5,,,
tex,VDACtest,193,g,true,473.10000014305115,1,r,h,1,,,
tex,VDACtest,194,g,true,576.8999998569489,2,g,h,1,,,
tex,VDACtest,195,g,true,952.8999998569489,2,g,v,2,,,
tex,VDACtest,196,g,true,682.2000000476837,1,r,v,3,,,
tex,VDACtest,197,g,true,609.1999998092651,1,r,h,4,,,
tex,VDACtest,198,g,true,873.0999999046326,2,g,h,1,,,
tex,VDACtest,199,g,true,578.3999998569489,1,r,v,4,,,
tex,VDACtest,200,g,true,680.7999999523163,2,g,h,1,,,
tex,RSVPtrain,0,g,null,null,2,g,,3,1,1,
tex,RSVPtrain,0,g,true,1521.0999999046326,2,g,,1,0,1,
tex,RSVPtrain,0,g,true,828.5999999046326,0,b,,1,3,0,
tex,RSVPtrain,0,g,false,660.5,1,r,,0,0,2,
tex,RSVPtrain,0,g,true,1616.7999999523163,2,g,,2,2,2,
tex,RSVPtrain,0,g,false,1004.3999998569489,0,b,,3,3,0,
tex,RSVPtrain,0,g,true,1210,2,g,,3,0,1,
tex,RSVPtrain,0,g,false,1188,1,r,,3,2,1,
tex,RSVPtrain,0,g,true,1135.9000000953674,0,b,,0,3,0,
tex,RSVPtrain,0,g,true,1075.5999999046326,1,r,,1,1,2,
tex,RSVPtest,1,g,true,822,2,g,,0,0,2,
tex,RSVPtest,2,g,true,1243.6000001430511,2,g,,2,0,1,
tex,RSVPtest,3,g,true,698,1,r,,2,0,1,
tex,RSVPtest,4,g,true,716,2,g,,0,0,2,
tex,RSVPtest,5,g,true,667,0,b,,1,3,0,
tex,RSVPtest,6,g,true,795.0999999046326,1,r,,3,2,1,
tex,RSVPtest,7,g,true,715.6999998092651,1,r,,2,1,1,
tex,RSVPtest,8,g,true,733.3999998569489,0,b,,0,3,0,
tex,RSVPtest,9,g,true,941.5999999046326,0,b,,0,3,0,
tex,RSVPtest,10,g,true,932.1000001430511,1,r,,0,0,2,
tex,RSVPtest,11,g,true,694.7000000476837,0,b,,3,3,0,
tex,RSVPtest,12,g,true,1155.7999999523163,1,r,,1,0,1,
tex,RSVPtest,13,g,true,800.7000000476837,1,r,,0,0,2,
tex,RSVPtest,14,g,true,739.1999998092651,1,r,,3,0,1,
tex,RSVPtest,15,g,true,901.6000001430511,1,r,,3,2,1,
tex,RSVPtest,16,g,true,796.2999999523163,0,b,,3,3,0,
tex,RSVPtest,17,g,true,708.7000000476837,1,r,,1,2,1,
tex,RSVPtest,18,g,true,1357.0999999046326,1,r,,2,2,2,
tex,RSVPtest,19,g,true,1402.9000000953674,1,r,,0,0,2,
tex,RSVPtest,20,g,true,754.7000000476837,2,g,,0,1,1,
tex,RSVPtest,21,g,true,1004.4000000953674,1,r,,3,2,1,
tex,RSVPtest,22,g,true,1108.4000000953674,1,r,,3,1,1,
tex,RSVPtest,23,g,true,837.7999999523163,2,g,,1,2,1,
tex,RSVPtest,24,g,true,1124.7999999523163,0,b,,3,3,0,
tex,RSVPtest,25,g,true,1123.0999999046326,2,g,,0,2,1,
tex,RSVPtest,26,g,true,1466.7999999523163,1,r,,2,1,1,
tex,RSVPtest,27,g,true,747.5999999046326,1,r,,3,1,1,
tex,RSVPtest,28,g,true,1116.2000000476837,1,r,,2,2,2,
tex,RSVPtest,29,g,true,1076.0999999046326,1,r,,2,2,2,
tex,RSVPtest,30,g,true,697.9000000953674,2,g,,3,0,1,
tex,RSVPtest,31,g,true,1003.9000000953674,1,r,,1,1,2,
tex,RSVPtest,32,g,true,843.9000000953674,1,r,,3,0,1,
tex,RSVPtest,33,g,true,787.1000001430511,2,g,,3,2,1,
tex,RSVPtest,34,g,true,785.9000000953674,2,g,,2,1,1,
tex,RSVPtest,35,g,true,1021.5,2,g,,2,0,1,
tex,RSVPtest,36,g,true,739.7000000476837,0,b,,3,3,0,
tex,RSVPtest,37,g,false,1027.8999998569489,1,r,,3,1,1,
tex,RSVPtest,38,g,true,1146.5,2,g,,3,0,1,
tex,RSVPtest,39,g,true,980.9000000953674,1,r,,2,1,1,
tex,RSVPtest,40,g,true,923.1000001430511,2,g,,3,2,1,
tex,RSVPtest,41,g,true,947.8999998569489,2,g,,2,2,2,
tex,RSVPtest,42,g,true,1170.9000000953674,2,g,,3,1,1,
tex,RSVPtest,43,g,true,883.6999998092651,2,g,,3,2,1,
tex,RSVPtest,44,g,true,660.2999999523163,0,b,,1,3,0,
tex,RSVPtest,45,g,true,1187.8000001907349,2,g,,2,0,1,
tex,RSVPtest,46,g,true,657.5,2,g,,3,2,1,
tex,RSVPtest,47,g,true,1163.5,2,g,,0,2,1,
tex,RSVPtest,48,g,true,1139.7000000476837,2,g,,0,2,1,
tex,RSVPtest,49,g,true,948.1000001430511,0,b,,3,3,0,
tex,RSVPtest,50,g,true,852.2999999523163,2,g,,1,2,1,
tex,RSVPtest,51,g,true,1739.9000000953674,2,g,,3,1,1,
tex,RSVPtest,52,g,false,761.1999998092651,1,r,,3,0,1,
tex,RSVPtest,53,g,true,963,2,g,,1,1,2,
tex,RSVPtest,54,g,true,1435.5999999046326,2,g,,3,0,1,
tex,RSVPtest,55,g,true,1388.2999999523163,2,g,,3,0,1,
tex,RSVPtest,56,g,true,1211.7000000476837,1,r,,3,0,1,
tex,RSVPtest,57,g,true,747.7000000476837,0,b,,0,3,0,
tex,RSVPtest,58,g,false,1653,1,r,,3,1,1,
tex,RSVPtest,59,g,true,1051.0999999046326,2,g,,0,1,1,
tex,RSVPtest,60,g,false,1731.3999998569489,0,b,,1,3,0,
brk,brk,brk,brk,brk,brk,brk,brk,brk,brk,brk,brk,
tex,RSVPtest,61,g,true,883.7999999523163,2,g,,3,0,1,
tex,RSVPtest,62,g,true,1130.5999999046326,0,b,,0,3,0,
tex,RSVPtest,63,g,true,1506.9000000953674,2,g,,1,1,2,
tex,RSVPtest,64,g,false,851.0999999046326,2,g,,3,2,1,
tex,RSVPtest,65,g,true,1389,0,b,,3,3,0,
tex,RSVPtest,66,g,false,962.5,1,r,,3,0,1,
tex,RSVPtest,67,g,true,979.8999998569489,1,r,,0,1,1,
tex,RSVPtest,68,g,true,954.7999999523163,1,r,,3,1,1,
tex,RSVPtest,69,g,true,843.8999998569489,1,r,,3,2,1,
tex,RSVPtest,70,g,true,1034.7000000476837,2,g,,2,0,1,
tex,RSVPtest,71,g,true,802.9000000953674,0,b,,3,3,0,
tex,RSVPtest,72,g,true,570.7000000476837,2,g,,1,0,1,
tex,RSVPtest,73,g,true,940.4000000953674,0,b,,1,3,0,
tex,RSVPtest,74,g,true,921,2,g,,1,1,2,
tex,RSVPtest,75,g,true,1386.5,0,b,,2,3,0,
tex,RSVPtest,76,g,true,850.1999998092651,2,g,,3,2,1,
tex,RSVPtest,77,g,true,1521.5999999046326,2,g,,3,2,1,
tex,RSVPtest,78,g,true,747.1000001430511,2,g,,3,2,1,
tex,RSVPtest,79,g,true,874.5,1,r,,3,2,1,
tex,RSVPtest,80,g,true,1010.4000000953674,2,g,,0,1,1,
tex,RSVPtest,81,g,true,722.0999999046326,0,b,,1,3,0,
tex,RSVPtest,82,g,true,1000.7999999523163,1,r,,1,2,1,
tex,RSVPtest,83,g,true,1058.7999999523163,2,g,,2,1,1,
tex,RSVPtest,84,g,true,778.5,0,b,,0,3,0,
tex,RSVPtest,85,g,true,619.7999999523163,1,r,,3,1,1,
tex,RSVPtest,86,g,true,851.0999999046326,0,b,,0,3,0,
tex,RSVPtest,87,g,true,1106,1,r,,2,1,1,
tex,RSVPtest,88,g,true,769.2000000476837,2,g,,2,2,2,
tex,RSVPtest,89,g,true,906.5999999046326,2,g,,3,1,1,
tex,RSVPtest,90,g,true,1034.2000000476837,1,r,,3,2,1,
tex,RSVPtest,91,g,true,946.2999999523163,2,g,,1,0,1,
tex,RSVPtest,92,g,true,762.2000000476837,0,b,,0,3,0,
tex,RSVPtest,93,g,true,808.4000000953674,1,r,,3,2,1,
tex,RSVPtest,94,g,true,1353,1,r,,1,1,2,
tex,RSVPtest,95,g,true,688.6000001430511,1,r,,1,1,2,
tex,RSVPtest,96,g,true,858.8999998569489,1,r,,0,1,1,
tex,RSVPtest,97,g,true,851.5,1,r,,3,0,1,
tex,RSVPtest,98,g,true,1416.9000000953674,1,r,,2,1,1,
tex,RSVPtest,99,g,true,651,0,b,,3,3,0,
tex,RSVPtest,100,g,true,636.2999999523163,2,g,,3,2,1,
tex,RSVPtest,101,g,true,738.7000000476837,2,g,,1,1,2,
tex,RSVPtest,102,g,true,1148,1,r,,0,2,1,
tex,RSVPtest,103,g,true,700.0999999046326,1,r,,1,2,1,
tex,RSVPtest,104,g,true,859,1,r,,0,0,2,
tex,RSVPtest,105,g,true,988.7000000476837,2,g,,2,1,1,
tex,RSVPtest,106,g,true,946.4000000953674,1,r,,2,0,1,
tex,RSVPtest,107,g,true,700.2999999523163,1,r,,3,1,1,
tex,RSVPtest,108,g,true,752.7000000476837,2,g,,3,1,1,
tex,RSVPtest,109,g,true,658.5999999046326,1,r,,0,0,2,
tex,RSVPtest,110,g,true,754.2000000476837,1,r,,0,1,1,
tex,RSVPtest,111,g,true,842.4000000953674,2,g,,1,1,2,
tex,RSVPtest,112,g,true,650.7999999523163,2,g,,0,0,2,
tex,RSVPtest,113,g,true,649,2,g,,3,0,1,
tex,RSVPtest,114,g,true,803.7999999523163,1,r,,3,1,1,
tex,RSVPtest,115,g,true,859.1000001430511,0,b,,2,3,0,
tex,RSVPtest,116,g,true,833.7999999523163,1,r,,0,1,1,
tex,RSVPtest,117,g,true,545.2999999523163,2,g,,3,0,1,
tex,RSVPtest,118,g,true,746.2000000476837,1,r,,1,0,1,
tex,RSVPtest,119,g,true,1217.2999999523163,2,g,,2,2,2,
tex,RSVPtest,120,g,true,770.5,0,b,,3,3,0,
brk,brk,brk,brk,brk,brk,brk,brk,brk,brk,brk,brk,
tex,RSVPtest,121,g,true,554.5999999046326,2,g,,3,1,1,
tex,RSVPtest,122,g,false,1081.2999999523163,1,r,,2,2,2,
tex,RSVPtest,123,g,true,1009.5999999046326,0,b,,2,3,0,
tex,RSVPtest,124,g,true,786.2999999523163,0,b,,3,3,0,
tex,RSVPtest,125,g,true,793.4000000953674,2,g,,0,2,1,
tex,RSVPtest,126,g,true,542.7999999523163,1,r,,3,0,1,
tex,RSVPtest,127,g,true,817.3000001907349,0,b,,0,3,0,
tex,RSVPtest,128,g,true,849.8999998569489,0,b,,0,3,0,
tex,RSVPtest,129,g,true,793.5,2,g,,0,1,1,
tex,RSVPtest,130,g,true,569.8999998569489,1,r,,1,0,1,
tex,RSVPtest,131,g,true,591.7000000476837,0,b,,3,3,0,
tex,RSVPtest,132,g,true,648.0999999046326,2,g,,0,2,1,
tex,RSVPtest,133,g,true,660.7999999523163,1,r,,3,0,1,
tex,RSVPtest,134,g,true,704.2000000476837,1,r,,1,2,1,
tex,RSVPtest,135,g,true,935.5,1,r,,0,0,2,
tex,RSVPtest,136,g,true,720.7999999523163,0,b,,0,3,0,
tex,RSVPtest,137,g,true,714.2999999523163,2,g,,1,0,1,
tex,RSVPtest,138,g,true,642.7000000476837,1,r,,3,1,1,
tex,RSVPtest,139,g,true,527.0999999046326,1,r,,0,2,1,
tex,RSVPtest,140,g,true,713.2000000476837,0,b,,0,3,0,
tex,RSVPtest,141,g,true,521.0999999046326,0,b,,3,3,0,
tex,RSVPtest,142,g,true,577.7000000476837,1,r,,1,0,1,
tex,RSVPtest,143,g,true,649.9000000953674,2,g,,3,1,1,
tex,RSVPtest,144,g,true,728.4000000953674,2,g,,3,1,1,
tex,RSVPtest,145,g,true,1186.0999999046326,2,g,,2,2,2,
tex,RSVPtest,146,g,false,1361.5,1,r,,0,2,1,
tex,RSVPtest,147,g,true,626.2000000476837,1,r,,2,1,1,
tex,RSVPtest,148,g,true,626.3999998569489,2,g,,3,0,1,
tex,RSVPtest,149,g,true,618.0999999046326,0,b,,2,3,0,
tex,RSVPtest,150,g,true,658.3999998569489,2,g,,3,2,1,
tex,RSVPtest,151,g,true,657.5999999046326,0,b,,1,3,0,
tex,RSVPtest,152,g,true,681.7000000476837,0,b,,2,3,0,
tex,RSVPtest,153,g,true,395.7999999523163,0,b,,2,3,0,
tex,RSVPtest,154,g,true,874.2999999523163,2,g,,1,2,1,
tex,RSVPtest,155,g,false,1307.4000000953674,2,g,,1,0,1,
tex,RSVPtest,156,g,true,614.2000000476837,1,r,,1,2,1,
tex,RSVPtest,157,g,true,1361.5999999046326,2,g,,0,0,2,
tex,RSVPtest,158,g,true,463.7000000476837,2,g,,1,1,2,
tex,RSVPtest,159,g,true,943.1999998092651,0,b,,2,3,0,
tex,RSVPtest,160,g,true,434.5,0,b,,1,3,0,
tex,RSVPtest,161,g,true,673,0,b,,2,3,0,
tex,RSVPtest,162,g,true,889.2999999523163,2,g,,0,0,2,
tex,RSVPtest,163,g,true,783,1,r,,0,2,1,
tex,RSVPtest,164,g,true,775.6000001430511,2,g,,1,2,1,
tex,RSVPtest,165,g,true,960.5,1,r,,0,1,1,
tex,RSVPtest,166,g,true,815.7999999523163,1,r,,3,0,1,
tex,RSVPtest,167,g,true,710.5,1,r,,3,2,1,
tex,RSVPtest,168,g,true,1065.2999999523163,2,g,,3,1,1,
tex,RSVPtest,169,g,true,745.5999999046326,1,r,,0,2,1,
tex,RSVPtest,170,g,true,1024.4000000953674,1,r,,3,0,1,
tex,RSVPtest,171,g,true,610.5,2,g,,1,0,1,
tex,RSVPtest,172,g,true,879.5,1,r,,1,1,2,
tex,RSVPtest,173,g,true,655.6999998092651,2,g,,2,0,1,
tex,RSVPtest,174,g,true,682.0999999046326,2,g,,0,1,1,
tex,RSVPtest,175,g,true,712.7999999523163,1,r,,3,0,1,
tex,RSVPtest,176,g,true,679.2000000476837,2,g,,2,0,1,
tex,RSVPtest,177,g,true,520.7000000476837,1,r,,3,0,1,
tex,RSVPtest,178,g,false,728.5999999046326,1,r,,2,0,1,
tex,RSVPtest,179,g,true,690.5,1,r,,2,0,1,
tex,RSVPtest,180,g,true,606.5,1,r,,2,2,2,
brk,brk,brk,brk,brk,brk,brk,brk,brk,brk,brk,brk,
tex,RSVPtest,181,g,true,775.9000000953674,2,g,,3,0,1,
tex,RSVPtest,182,g,false,799,1,r,,1,2,1,
tex,RSVPtest,183,g,false,978.2999999523163,0,b,,3,3,0,
tex,RSVPtest,184,g,true,1221.1000001430511,0,b,,2,3,0,
tex,RSVPtest,185,g,true,894.1000001430511,0,b,,1,3,0,
tex,RSVPtest,186,g,true,791.3000001907349,0,b,,3,3,0,
tex,RSVPtest,187,g,true,722,1,r,,3,1,1,
tex,RSVPtest,188,g,true,840.2000000476837,2,g,,2,2,2,
tex,RSVPtest,189,g,true,695.7999999523163,2,g,,1,0,1,
tex,RSVPtest,190,g,true,769.5999999046326,2,g,,2,1,1,
tex,RSVPtest,191,g,true,1256.0999999046326,2,g,,1,2,1,
tex,RSVPtest,192,g,true,579.4000000953674,0,b,,3,3,0,
tex,RSVPtest,193,g,true,778.9000000953674,1,r,,3,2,1,
tex,RSVPtest,194,g,true,864.7000000476837,0,b,,1,3,0,
tex,RSVPtest,195,g,true,650.0999999046326,2,g,,3,0,1,
tex,RSVPtest,196,g,true,888.2999999523163,0,b,,1,3,0,
tex,RSVPtest,197,g,true,658.3999998569489,0,b,,3,3,0,
tex,RSVPtest,198,g,true,536.7999999523163,2,g,,3,0,1,
tex,RSVPtest,199,g,true,992,0,b,,1,3,0,
tex,RSVPtest,200,g,true,728.0999999046326,1,r,,1,0,1,
tex,RSVPtest,201,g,true,977.2000000476837,1,r,,2,2,2,
tex,RSVPtest,202,g,true,815.1000001430511,2,g,,3,1,1,
tex,RSVPtest,203,g,true,727.7000000476837,0,b,,3,3,0,
tex,RSVPtest,204,g,true,753.5,0,b,,2,3,0,
tex,RSVPtest,205,g,true,993.1999998092651,2,g,,3,2,1,
tex,RSVPtest,206,g,true,655.2000000476837,1,r,,3,1,1,
tex,RSVPtest,207,g,true,665.1999998092651,1,r,,0,1,1,
tex,RSVPtest,208,g,true,725.8999998569489,2,g,,3,2,1,
tex,RSVPtest,209,g,true,634.9000000953674,0,b,,1,3,0,
tex,RSVPtest,210,g,true,890.2000000476837,0,b,,3,3,0,
tex,RSVPtest,211,g,true,808.2000000476837,0,b,,3,3,0,
tex,RSVPtest,212,g,true,726.7999999523163,1,r,,2,0,1,
tex,RSVPtest,213,g,true,639,0,b,,3,3,0,
tex,RSVPtest,214,g,true,672.5,0,b,,3,3,0,
tex,RSVPtest,215,g,true,713.2000000476837,1,r,,3,2,1,
tex,RSVPtest,216,g,true,847.4000000953674,1,r,,2,0,1,
tex,RSVPtest,217,g,true,1176.5,1,r,,0,2,1,
tex,RSVPtest,218,g,true,688.5999999046326,1,r,,3,2,1,
tex,RSVPtest,219,g,true,800,2,g,,2,2,2,
tex,RSVPtest,220,g,true,559.5,0,b,,3,3,0,
tex,RSVPtest,221,g,true,728.5,0,b,,0,3,0,
tex,RSVPtest,222,g,true,640.9000000953674,0,b,,3,3,0,
tex,RSVPtest,223,g,true,613.6000001430511,2,g,,2,1,1,
tex,RSVPtest,224,g,true,617.0999999046326,2,g,,0,0,2,
tex,RSVPtest,225,g,true,501.90000009536743,2,g,,1,2,1,
tex,RSVPtest,226,g,true,559.7000000476837,2,g,,3,1,1,
tex,RSVPtest,227,g,true,670.8999998569489,0,b,,2,3,0,
tex,RSVPtest,228,g,true,663.4000000953674,2,g,,3,1,1,
tex,RSVPtest,229,g,true,622.4000000953674,0,b,,2,3,0,
tex,RSVPtest,230,g,true,1519.8000001907349,2,g,,2,1,1,
tex,RSVPtest,231,g,false,1272.7000000476837,1,r,,1,1,2,
tex,RSVPtest,232,g,true,711.5,0,b,,3,3,0,
tex,RSVPtest,233,g,true,958.6000001430511,2,g,,0,1,1,
tex,RSVPtest,234,g,true,729.7999999523163,2,g,,0,2,1,
tex,RSVPtest,235,g,true,502.39999985694885,1,r,,1,1,2,
tex,RSVPtest,236,g,true,808.3999998569489,1,r,,1,0,1,
tex,RSVPtest,237,g,true,616.2000000476837,1,r,,3,2,1,
tex,RSVPtest,238,g,true,634,1,r,,3,1,1,
tex,RSVPtest,239,g,true,736.3999998569489,2,g,,3,1,1,
tex,RSVPtest,240,g,true,609.8000001907349,2,g,,3,0,1,
subID,trialType,trialNum,cntBalance,correct,rt,rwdType,tgtCol,tgtDir,tgtPos,colPos,colMatch,
x6a,VDACtrain,0,g,null,null,1,r,h,2,,,
x6a,VDACtrain,0,g,null,null,2,g,h,3,,,
x6a,VDACtrain,0,g,null,null,1,r,h,1,,,
x6a,VDACtrain,0,g,null,null,1,r,h,0,,,
x6a,VDACtrain,0,g,false,677.3999999910593,1,r,v,3,,,
x6a,VDACtrain,0,g,null,null,2,g,v,2,,,
x6a,VDACtrain,0,g,true,642.0999999940395,2,g,v,5,,,
x6a,VDACtrain,0,g,true,651.4000000059605,1,r,v,4,,,
x6a,VDACtrain,0,g,true,657.7999999970198,2,g,h,5,,,
x6a,VDACtrain,0,g,true,434.90000000596046,2,g,v,0,,,
x6a,VDACtrain,0,g,true,784.1000000089407,2,g,v,0,,,
x6a,VDACtrain,0,g,false,626.4000000059605,2,g,v,2,,,
x6a,VDACtrain,0,g,null,null,1,r,v,4,,,
x6a,VDACtrain,0,g,true,604.3999999910593,1,r,v,3,,,
x6a,VDACtrain,0,g,null,null,1,r,h,1,,,
x6a,VDACtrain,0,g,true,547.0999999940395,2,g,v,5,,,
x6a,VDACtrain,0,g,false,987.5999999940395,1,r,h,0,,,
x6a,VDACtrain,0,g,true,794.8999999910593,2,g,h,3,,,
x6a,VDACtrain,0,g,true,569.8999999910593,1,r,h,2,,,
x6a,VDACtrain,0,g,true,674.0999999940395,2,g,h,5,,,
x6a,VDACtest,1,g,true,669.5999999940395,2,g,h,2,,,
x6a,VDACtest,2,g,true,568.9000000059605,2,g,h,1,,,
x6a,VDACtest,3,g,false,410.79999999701977,2,g,v,4,,,
x6a,VDACtest,4,g,false,504.5,2,g,h,0,,,
x6a,VDACtest,5,g,false,410.3999999910593,2,g,h,0,,,
x6a,VDACtest,6,g,false,633.8999999910593,2,g,h,4,,,
x6a,VDACtest,7,g,false,633.3999999910593,2,g,h,5,,,
x6a,VDACtest,8,g,true,626.2999999970198,2,g,v,0,,,
x6a,VDACtest,9,g,null,null,1,r,h,5,,,
x6a,VDACtest,10,g,false,596.5999999940395,1,r,v,2,,,
x6a,VDACtest,11,g,true,978.7999999970198,2,g,v,0,,,
x6a,VDACtest,12,g,true,889.5,1,r,h,2,,,
x6a,VDACtest,13,g,false,515.0999999940395,1,r,h,0,,,
x6a,VDACtest,14,g,false,802.1000000089407,2,g,v,3,,,
x6a,VDACtest,15,g,null,null,1,r,h,1,,,
x6a,VDACtest,16,g,true,732,1,r,h,2,,,
x6a,VDACtest,17,g,true,586.0999999940395,1,r,v,4,,,
x6a,VDACtest,18,g,false,681.6000000089407,1,r,h,0,,,
x6a,VDACtest,19,g,false,609.4000000059605,2,g,v,4,,,
x6a,VDACtest,20,g,true,746.2999999970198,1,r,v,3,,,
x6a,VDACtest,21,g,true,689.5,2,g,v,5,,,
x6a,VDACtest,22,g,null,null,2,g,h,1,,,
x6a,VDACtest,23,g,true,521.6000000089407,2,g,v,0,,,
x6a,VDACtest,24,g,true,593.7000000029802,2,g,v,1,,,
x6a,VDACtest,25,g,false,914.2999999970198,1,r,v,5,,,
x6a,VDACtest,26,g,true,817.2999999970198,2,g,v,2,,,
x6a,VDACtest,27,g,true,571.3999999910593,2,g,h,2,,,
x6a,VDACtest,28,g,true,738.3000000119209,1,r,v,1,,,
x6a,VDACtest,29,g,true,778.0999999940395,2,g,h,1,,,
x6a,VDACtest,30,g,true,987.7000000029802,1,r,h,1,,,
x6a,VDACtest,31,g,false,569.7000000029802,2,g,h,5,,,
x6a,VDACtest,32,g,false,809.2999999970198,1,r,v,1,,,
x6a,VDACtest,33,g,false,649.7999999970198,1,r,v,2,,,
x6a,VDACtest,34,g,false,721.9000000059605,1,r,h,1,,,
x6a,VDACtest,35,g,false,898.4000000059605,1,r,v,0,,,
x6a,VDACtest,36,g,true,626.3999999910593,1,r,v,1,,,
x6a,VDACtest,37,g,true,616.7000000029802,2,g,v,0,,,
x6a,VDACtest,38,g,true,555.0999999940395,2,g,v,0,,,
x6a,VDACtest,39,g,true,618.2000000029802,2,g,h,4,,,
x6a,VDACtest,40,g,false,609.4000000059605,2,g,v,4,,,
x6a,VDACtest,41,g,true,641,2,g,v,4,,,
x6a,VDACtest,42,g,true,513.4000000059605,2,g,h,4,,,
x6a,VDACtest,43,g,true,610.9000000059605,1,r,v,5,,,
x6a,VDACtest,44,g,true,600.8999999910593,1,r,h,4,,,
x6a,VDACtest,45,g,false,538.7999999970198,1,r,h,0,,,
x6a,VDACtest,46,g,null,null,2,g,h,0,,,
x6a,VDACtest,47,g,null,null,1,r,h,1,,,
x6a,VDACtest,48,g,false,666.1999999880791,1,r,v,3,,,
x6a,VDACtest,49,g,true,771.5999999940395,1,r,v,4,,,
x6a,VDACtest,50,g,true,545.9000000059605,2,g,v,5,,,
brk,brk,brk,brk,brk,brk,brk,brk,brk,brk,brk,brk,
x6a,VDACtest,51,g,true,821.4000000059605,2,g,h,4,,,
x6a,VDACtest,52,g,false,672.7000000029802,1,r,h,0,,,
x6a,VDACtest,53,g,true,682.0999999940395,1,r,v,2,,,
x6a,VDACtest,54,g,true,627,2,g,h,3,,,
x6a,VDACtest,55,g,true,681.6000000089407,2,g,v,2,,,
x6a,VDACtest,56,g,true,626.6999999880791,2,g,v,3,,,
x6a,VDACtest,57,g,true,561.2999999970198,2,g,h,5,,,
x6a,VDACtest,58,g,true,825.9000000059605,1,r,h,3,,,
x6a,VDACtest,59,g,true,554.1999999880791,2,g,v,3,,,
x6a,VDACtest,60,g,true,529.7000000029802,2,g,v,1,,,
x6a,VDACtest,61,g,true,640.8999999910593,1,r,v,4,,,
x6a,VDACtest,62,g,false,586.0999999940395,1,r,h,1,,,
x6a,VDACtest,63,g,false,609.1000000089407,1,r,v,5,,,
x6a,VDACtest,64,g,false,656.7000000029802,2,g,h,5,,,
x6a,VDACtest,65,g,true,569.9000000059605,1,r,v,5,,,
x6a,VDACtest,66,g,false,562.8999999910593,1,r,h,0,,,
x6a,VDACtest,67,g,false,601.2000000029802,2,g,h,0,,,
x6a,VDACtest,68,g,true,961,1,r,v,1,,,
x6a,VDACtest,69,g,true,505.69999998807907,1,r,h,0,,,
x6a,VDACtest,70,g,true,809.5999999940395,2,g,v,3,,,
x6a,VDACtest,71,g,true,642.5,2,g,v,1,,,
x6a,VDACtest,72,g,true,570.5,2,g,h,3,,,
x6a,VDACtest,73,g,true,969.5,1,r,v,1,,,
x6a,VDACtest,74,g,true,697.5,2,g,h,2,,,
x6a,VDACtest,75,g,true,494.6000000089407,1,r,v,1,,,
x6a,VDACtest,76,g,true,568.4000000059605,1,r,h,2,,,
x6a,VDACtest,77,g,false,529,1,r,v,3,,,
x6a,VDACtest,78,g,true,514.6000000089407,2,g,v,0,,,
x6a,VDACtest,79,g,true,801.5,1,r,h,4,,,
x6a,VDACtest,80,g,true,609,2,g,h,3,,,
x6a,VDACtest,81,g,true,642.7999999970198,1,r,h,4,,,
x6a,VDACtest,82,g,true,482.09999999403954,1,r,v,4,,,
x6a,VDACtest,83,g,true,611.2000000029802,1,r,v,5,,,
x6a,VDACtest,84,g,true,713.5,1,r,h,1,,,
x6a,VDACtest,85,g,false,456,1,r,v,1,,,
x6a,VDACtest,86,g,true,531.4000000059605,2,g,v,1,,,
x6a,VDACtest,87,g,true,602.1999999880791,1,r,h,3,,,
x6a,VDACtest,88,g,true,473.1000000089407,1,r,v,1,,,
x6a,VDACtest,89,g,true,513.7999999970198,1,r,v,3,,,
x6a,VDACtest,90,g,false,529.7999999970198,1,r,v,3,,,
x6a,VDACtest,91,g,false,633.4000000059605,1,r,v,2,,,
x6a,VDACtest,92,g,false,666.2000000029802,1,r,h,4,,,
x6a,VDACtest,93,g,true,681.0999999940395,2,g,h,1,,,
x6a,VDACtest,94,g,true,538.8999999910593,1,r,v,4,,,
x6a,VDACtest,95,g,true,635.0999999940395,2,g,h,2,,,
x6a,VDACtest,96,g,true,537.5,2,g,v,5,,,
x6a,VDACtest,97,g,true,592.5999999940395,1,r,v,4,,,
x6a,VDACtest,98,g,true,744.3999999910593,1,r,h,5,,,
x6a,VDACtest,99,g,false,616.2000000029802,2,g,h,4,,,
x6a,VDACtest,100,g,false,545.6000000089407,2,g,v,3,,,
brk,brk,brk,brk,brk,brk,brk,brk,brk,brk,brk,brk,
x6a,VDACtest,101,g,null,null,1,r,h,5,,,
x6a,VDACtest,102,g,false,772.8000000119209,2,g,h,1,,,
x6a,VDACtest,103,g,true,554.2000000029802,1,r,h,2,,,
x6a,VDACtest,104,g,true,664.5,1,r,v,5,,,
x6a,VDACtest,105,g,true,776.7000000029802,2,g,v,1,,,
x6a,VDACtest,106,g,true,504.79999999701977,2,g,v,1,,,
x6a,VDACtest,107,g,false,778.8999999910593,1,r,v,4,,,
x6a,VDACtest,108,g,true,672,1,r,h,1,,,
x6a,VDACtest,109,g,false,636,2,g,v,3,,,
x6a,VDACtest,110,g,false,560.2000000029802,1,r,h,5,,,
x6a,VDACtest,111,g,true,616,1,r,h,3,,,
x6a,VDACtest,112,g,true,638.6999999880791,2,g,h,5,,,
x6a,VDACtest,113,g,true,553.7000000029802,2,g,v,2,,,
x6a,VDACtest,114,g,false,447.8999999910593,2,g,h,1,,,
x6a,VDACtest,115,g,false,562.1999999880791,2,g,v,1,,,
x6a,VDACtest,116,g,null,null,1,r,v,2,,,
x6a,VDACtest,117,g,true,512.5999999940395,2,g,v,5,,,
x6a,VDACtest,118,g,true,676.9000000059605,1,r,h,2,,,
x6a,VDACtest,119,g,true,609.6000000089407,2,g,h,3,,,
x6a,VDACtest,120,g,true,472.20000000298023,2,g,v,5,,,
x6a,VDACtest,121,g,false,841,1,r,h,4,,,
x6a,VDACtest,122,g,true,586.2000000029802,1,r,v,3,,,
x6a,VDACtest,123,g,false,553.9000000059605,2,g,h,4,,,
x6a,VDACtest,124,g,true,554.4000000059605,1,r,h,0,,,
x6a,VDACtest,125,g,true,522.7999999970198,2,g,h,0,,,
x6a,VDACtest,126,g,true,496.8999999910593,2,g,h,5,,,
x6a,VDACtest,127,g,false,707.2000000029802,1,r,h,0,,,
x6a,VDACtest,128,g,true,674.7000000029802,1,r,h,2,,,
x6a,VDACtest,129,g,false,570.3999999910593,1,r,v,2,,,
x6a,VDACtest,130,g,true,920.2999999970198,2,g,h,3,,,
x6a,VDACtest,131,g,true,769.2999999970198,1,r,h,1,,,
x6a,VDACtest,132,g,true,617.7999999970198,2,g,h,4,,,
x6a,VDACtest,133,g,true,568.6000000089407,2,g,v,0,,,
x6a,VDACtest,134,g,false,624.9000000059605,1,r,v,2,,,
x6a,VDACtest,135,g,true,635.0999999940395,2,g,v,5,,,
x6a,VDACtest,136,g,true,545.2999999970198,2,g,h,2,,,
x6a,VDACtest,137,g,false,585.6000000089407,2,g,v,4,,,
x6a,VDACtest,138,g,false,553.7000000029802,2,g,h,5,,,
x6a,VDACtest,139,g,true,649.8999999910593,2,g,h,1,,,
x6a,VDACtest,140,g,true,817,1,r,h,4,,,
x6a,VDACtest,141,g,true,559.4000000059605,1,r,h,5,,,
x6a,VDACtest,142,g,true,809.9000000059605,1,r,h,5,,,
x6a,VDACtest,143,g,true,594.7000000029802,1,r,v,0,,,
x6a,VDACtest,144,g,true,656.5,1,r,v,4,,,
x6a,VDACtest,145,g,false,674.4000000059605,1,r,h,4,,,
x6a,VDACtest,146,g,false,666.1999999880791,2,g,v,2,,,
x6a,VDACtest,147,g,true,914.2999999970198,1,r,h,1,,,
x6a,VDACtest,148,g,true,578.5,1,r,v,0,,,
x6a,VDACtest,149,g,true,834.7999999970198,2,g,h,1,,,
x6a,VDACtest,150,g,true,650.0999999940395,1,r,v,3,,,
brk,brk,brk,brk,brk,brk,brk,brk,brk,brk,brk,brk,
x6a,VDACtest,151,g,true,617.2000000029802,2,g,h,3,,,
x6a,VDACtest,152,g,true,569.3999999910593,1,r,h,3,,,
x6a,VDACtest,153,g,true,465.90000000596046,2,g,h,3,,,
x6a,VDACtest,154,g,true,439.90000000596046,2,g,v,4,,,
x6a,VDACtest,155,g,true,522.5,2,g,h,3,,,
x6a,VDACtest,156,g,false,809.7999999970198,1,r,v,4,,,
x6a,VDACtest,157,g,true,467.29999999701977,1,r,h,3,,,
x6a,VDACtest,158,g,true,521.7000000029802,1,r,v,0,,,
x6a,VDACtest,159,g,false,586.1000000089407,2,g,h,4,,,
x6a,VDACtest,160,g,true,600.5999999940395,1,r,v,3,,,
x6a,VDACtest,161,g,true,641.1000000089407,1,r,v,2,,,
x6a,VDACtest,162,g,true,569.5999999940395,2,g,v,3,,,
x6a,VDACtest,163,g,true,479.59999999403954,2,g,v,2,,,
x6a,VDACtest,164,g,true,414.3999999910593,2,g,v,5,,,
x6a,VDACtest,165,g,false,754,2,g,h,0,,,
x6a,VDACtest,166,g,false,601.9000000059605,1,r,h,3,,,
x6a,VDACtest,167,g,true,582.1000000089407,1,r,v,0,,,
x6a,VDACtest,168,g,true,592.5999999940395,2,g,h,2,,,
x6a,VDACtest,169,g,false,416.3999999910593,1,r,h,5,,,
x6a,VDACtest,170,g,true,514.4000000059605,1,r,h,2,,,
x6a,VDACtest,171,g,true,514.5999999940395,2,g,v,5,,,
x6a,VDACtest,172,g,true,496.59999999403954,1,r,v,5,,,
x6a,VDACtest,173,g,true,760.7999999970198,2,g,v,0,,,
x6a,VDACtest,174,g,true,689.7999999970198,1,r,h,4,,,
x6a,VDACtest,175,g,true,713.2999999970198,2,g,v,1,,,
x6a,VDACtest,176,g,true,497.09999999403954,1,r,v,0,,,
x6a,VDACtest,177,g,false,584.9000000059605,2,g,h,4,,,
x6a,VDACtest,178,g,false,625.7000000029802,2,g,v,2,,,
x6a,VDACtest,179,g,true,737.7000000029802,1,r,v,0,,,
x6a,VDACtest,180,g,true,520.0999999940395,2,g,h,0,,,
x6a,VDACtest,181,g,true,546,1,r,v,5,,,
x6a,VDACtest,182,g,true,482.6000000089407,1,r,v,0,,,
x6a,VDACtest,183,g,false,735.7999999970198,1,r,h,4,,,
x6a,VDACtest,184,g,true,593.7000000029802,2,g,h,5,,,
x6a,VDACtest,185,g,false,632.7000000029802,2,g,h,1,,,
x6a,VDACtest,186,g,true,553.6000000089407,2,g,h,0,,,
x6a,VDACtest,187,g,true,849.9000000059605,2,g,h,2,,,
x6a,VDACtest,188,g,false,513,2,g,v,2,,,
x6a,VDACtest,189,g,false,593.4000000059605,1,r,h,3,,,
x6a,VDACtest,190,g,true,802.5,1,r,h,3,,,
x6a,VDACtest,191,g,true,592.2999999970198,1,r,v,1,,,
x6a,VDACtest,192,g,true,511.70000000298023,1,r,h,2,,,
x6a,VDACtest,193,g,true,496.40000000596046,2,g,v,4,,,
x6a,VDACtest,194,g,true,409.79999999701977,2,g,v,4,,,
x6a,VDACtest,195,g,true,904.5,1,r,h,5,,,
x6a,VDACtest,196,g,false,464.59999999403954,2,g,v,3,,,
x6a,VDACtest,197,g,true,592.5,2,g,h,2,,,
x6a,VDACtest,198,g,true,521.2000000029802,2,g,v,1,,,
x6a,VDACtest,199,g,true,456.69999998807907,2,g,v,4,,,
x6a,VDACtest,200,g,true,825.2000000029802,2,g,v,2,,,
x6a,RSVPtrain,0,g,false,1419.5,2,g,,3,1,1,
x6a,RSVPtrain,0,g,false,1010.0999999940395,2,g,,3,0,1,
x6a,RSVPtrain,0,g,true,844.7999999970198,1,r,,3,2,1,
x6a,RSVPtrain,0,g,true,884.1999999880791,0,b,,0,3,0,
x6a,RSVPtrain,0,g,true,851.7000000029802,0,b,,1,3,0,
x6a,RSVPtrain,0,g,true,751.1000000089407,0,b,,3,3,0,
x6a,RSVPtrain,0,g,true,788.7000000029802,1,r,,1,1,2,
x6a,RSVPtrain,0,g,false,407.20000000298023,2,g,,1,0,1,
x6a,RSVPtrain,0,g,false,914.5999999940395,2,g,,2,2,2,
x6a,RSVPtrain,0,g,true,988.7999999970198,1,r,,0,0,2,
x6a,RSVPtest,1,g,true,774.1000000089407,1,r,,1,2,1,
x6a,RSVPtest,2,g,true,706.5999999940395,2,g,,2,0,1,
x6a,RSVPtest,3,g,true,572.2999999970198,1,r,,3,0,1,
x6a,RSVPtest,4,g,true,805.0999999940395,0,b,,0,3,0,
x6a,RSVPtest,5,g,true,965.9000000059605,2,g,,1,0,1,
x6a,RSVPtest,6,g,false,676.6000000089407,1,r,,2,2,2,
x6a,RSVPtest,7,g,true,868.5,0,b,,2,3,0,
x6a,RSVPtest,8,g,true,683.7000000029802,2,g,,1,0,1,
x6a,RSVPtest,9,g,false,541.8000000119209,1,r,,2,0,1,
x6a,RSVPtest,10,g,true,565.2999999970198,1,r,,0,2,1,
x6a,RSVPtest,11,g,true,1025.5,2,g,,2,1,1,
x6a,RSVPtest,12,g,true,677,2,g,,3,1,1,
x6a,RSVPtest,13,g,true,612.7000000029802,2,g,,3,2,1,
x6a,RSVPtest,14,g,false,844.1000000089407,0,b,,2,3,0,
x6a,RSVPtest,15,g,false,691.5,0,b,,3,3,0,
x6a,RSVPtest,16,g,true,596.4000000059605,1,r,,0,2,1,
x6a,RSVPtest,17,g,false,753.4000000059605,1,r,,1,0,1,
x6a,RSVPtest,18,g,true,987.7999999970198,2,g,,3,2,1,
x6a,RSVPtest,19,g,true,717.9000000059605,0,b,,2,3,0,
x6a,RSVPtest,20,g,true,795.1000000089407,1,r,,3,2,1,
x6a,RSVPtest,21,g,false,645.3999999910593,2,g,,3,1,1,
x6a,RSVPtest,22,g,false,388.6000000089407,1,r,,0,0,2,
x6a,RSVPtest,23,g,true,616.2999999970198,1,r,,3,2,1,
x6a,RSVPtest,24,g,true,949.7999999970198,1,r,,3,0,1,
x6a,RSVPtest,25,g,true,876.9000000059605,0,b,,0,3,0,
x6a,RSVPtest,26,g,true,1051.2999999970198,2,g,,3,1,1,
x6a,RSVPtest,27,g,true,1171.4000000059605,1,r,,3,0,1,
x6a,RSVPtest,28,g,true,883.0999999940395,0,b,,3,3,0,
x6a,RSVPtest,29,g,false,634,1,r,,3,0,1,
x6a,RSVPtest,30,g,true,1015.8000000119209,2,g,,3,1,1,
x6a,RSVPtest,31,g,true,789,2,g,,3,1,1,
x6a,RSVPtest,32,g,true,1068.5,1,r,,3,2,1,
x6a,RSVPtest,33,g,true,1244.199999988079,2,g,,3,1,1,
x6a,RSVPtest,34,g,true,812.2000000029802,1,r,,3,2,1,
x6a,RSVPtest,35,g,true,789.7000000029802,0,b,,3,3,0,
x6a,RSVPtest,36,g,true,1062.2000000029802,2,g,,3,1,1,
x6a,RSVPtest,37,g,true,1636.5,2,g,,3,0,1,
x6a,RSVPtest,38,g,true,804.1000000089407,0,b,,0,3,0,
x6a,RSVPtest,39,g,true,462.20000000298023,1,r,,1,1,2,
x6a,RSVPtest,40,g,true,1298.5999999940395,1,r,,3,2,1,
x6a,RSVPtest,41,g,true,930.5999999940395,2,g,,3,0,1,
x6a,RSVPtest,42,g,true,1387.2999999970198,0,b,,3,3,0,
x6a,RSVPtest,43,g,false,1275.2000000029802,2,g,,3,0,1,
x6a,RSVPtest,44,g,true,792.4000000059605,2,g,,1,2,1,
x6a,RSVPtest,45,g,false,734.2999999970198,2,g,,1,0,1,
x6a,RSVPtest,46,g,false,1187,1,r,,2,0,1,
x6a,RSVPtest,47,g,true,984.5999999940395,2,g,,3,2,1,
x6a,RSVPtest,48,g,true,858.9000000059605,2,g,,3,1,1,
x6a,RSVPtest,49,g,true,828.2999999970198,2,g,,2,2,2,
x6a,RSVPtest,50,g,false,842.3999999910593,0,b,,1,3,0,
x6a,RSVPtest,51,g,true,956,2,g,,3,0,1,
x6a,RSVPtest,52,g,true,727.7000000029802,2,g,,1,2,1,
x6a,RSVPtest,53,g,true,724.4000000059605,2,g,,1,2,1,
x6a,RSVPtest,54,g,false,1019.5999999940395,1,r,,2,0,1,
x6a,RSVPtest,55,g,true,1208.2000000029802,1,r,,3,1,1,
x6a,RSVPtest,56,g,true,1217.3999999910593,1,r,,3,0,1,
x6a,RSVPtest,57,g,true,824.8999999910593,2,g,,1,1,2,
x6a,RSVPtest,58,g,true,1323.9000000059605,1,r,,2,1,1,
x6a,RSVPtest,59,g,true,412,2,g,,2,1,1,
x6a,RSVPtest,60,g,true,661.8999999910593,2,g,,2,2,2,
brk,brk,brk,brk,brk,brk,brk,brk,brk,brk,brk,brk,
x6a,RSVPtest,61,g,true,814.2000000029802,2,g,,3,2,1,
x6a,RSVPtest,62,g,true,849.9000000059605,2,g,,2,2,2,
x6a,RSVPtest,63,g,true,811.5,2,g,,0,0,2,
x6a,RSVPtest,64,g,true,709.7000000029802,2,g,,3,0,1,
x6a,RSVPtest,65,g,false,918.2000000029802,1,r,,0,1,1,
x6a,RSVPtest,66,g,true,962.7000000029802,1,r,,1,0,1,
x6a,RSVPtest,67,g,false,908.7999999970198,0,b,,0,3,0,
x6a,RSVPtest,68,g,false,1043.2000000029802,0,b,,3,3,0,
x6a,RSVPtest,69,g,true,819.7000000029802,2,g,,3,0,1,
x6a,RSVPtest,70,g,false,1370.2000000029802,1,r,,1,2,1,
x6a,RSVPtest,71,g,true,715.0999999940395,1,r,,3,1,1,
x6a,RSVPtest,72,g,true,762.8999999910593,0,b,,1,3,0,
x6a,RSVPtest,73,g,true,771.4000000059605,0,b,,3,3,0,
x6a,RSVPtest,74,g,true,826.9000000059605,2,g,,0,2,1,
x6a,RSVPtest,75,g,null,null,1,r,,1,1,2,
x6a,RSVPtest,76,g,true,732.9000000059605,0,b,,2,3,0,
x6a,RSVPtest,77,g,false,403.5,0,b,,0,3,0,
x6a,RSVPtest,78,g,true,744.5999999940395,2,g,,1,1,2,
x6a,RSVPtest,79,g,false,682.2000000029802,1,r,,3,2,1,
x6a,RSVPtest,80,g,true,969.2999999970198,2,g,,1,2,1,
x6a,RSVPtest,81,g,false,818.5,2,g,,2,2,2,
x6a,RSVPtest,82,g,false,841.5,0,b,,1,3,0,
x6a,RSVPtest,83,g,true,600.5,2,g,,0,0,2,
x6a,RSVPtest,84,g,true,890.7999999970198,2,g,,2,1,1,
x6a,RSVPtest,85,g,false,554.9000000059605,2,g,,3,0,1,
x6a,RSVPtest,86,g,true,746.7999999970198,1,r,,3,1,1,
x6a,RSVPtest,87,g,true,837.5,0,b,,3,3,0,
x6a,RSVPtest,88,g,true,554.5,0,b,,0,3,0,
x6a,RSVPtest,89,g,false,699.0999999940395,2,g,,1,1,2,
x6a,RSVPtest,90,g,true,604.2000000029802,0,b,,2,3,0,
x6a,RSVPtest,91,g,true,449.30000001192093,0,b,,1,3,0,
x6a,RSVPtest,92,g,true,409.79999999701977,0,b,,1,3,0,
x6a,RSVPtest,93,g,true,387.20000000298023,1,r,,0,0,2,
x6a,RSVPtest,94,g,true,1852.2999999970198,1,r,,3,2,1,
x6a,RSVPtest,95,g,true,337.79999999701977,0,b,,1,3,0,
x6a,RSVPtest,96,g,true,559.5999999940395,1,r,,2,2,2,
x6a,RSVPtest,97,g,true,476.1000000089407,0,b,,2,3,0,
x6a,RSVPtest,98,g,true,538.8000000119209,2,g,,0,1,1,
x6a,RSVPtest,99,g,true,643.7000000029802,0,b,,3,3,0,
x6a,RSVPtest,100,g,false,506.20000000298023,0,b,,3,3,0,
x6a,RSVPtest,101,g,false,627.7000000029802,2,g,,0,1,1,
x6a,RSVPtest,102,g,true,764,0,b,,3,3,0,
x6a,RSVPtest,103,g,true,529.8000000119209,1,r,,2,1,1,
x6a,RSVPtest,104,g,true,618.2000000029802,0,b,,3,3,0,
x6a,RSVPtest,105,g,true,648.7000000029802,1,r,,0,2,1,
x6a,RSVPtest,106,g,false,465.5,1,r,,3,0,1,
x6a,RSVPtest,107,g,true,841.5,2,g,,3,0,1,
x6a,RSVPtest,108,g,true,698.1999999880791,1,r,,3,0,1,
x6a,RSVPtest,109,g,false,625.2999999970198,2,g,,3,2,1,
x6a,RSVPtest,110,g,true,569.8000000119209,1,r,,0,1,1,
x6a,RSVPtest,111,g,true,674.4000000059605,1,r,,0,2,1,
x6a,RSVPtest,112,g,true,960.3000000119209,1,r,,0,1,1,
x6a,RSVPtest,113,g,true,379.1000000089407,0,b,,1,3,0,
x6a,RSVPtest,114,g,true,537,2,g,,0,2,1,
x6a,RSVPtest,115,g,true,679.2999999970198,1,r,,3,0,1,
x6a,RSVPtest,116,g,true,729,1,r,,0,0,2,
x6a,RSVPtest,117,g,false,642.7999999970198,2,g,,1,2,1,
x6a,RSVPtest,118,g,true,753.7999999970198,2,g,,1,2,1,
x6a,RSVPtest,119,g,false,746.5999999940395,2,g,,1,1,2,
x6a,RSVPtest,120,g,false,1042.699999988079,1,r,,3,0,1,
brk,brk,brk,brk,brk,brk,brk,brk,brk,brk,brk,brk,
x6a,RSVPtest,121,g,true,478.79999999701977,0,b,,0,3,0,
x6a,RSVPtest,122,g,true,838.3000000119209,0,b,,3,3,0,
x6a,RSVPtest,123,g,true,417,2,g,,2,2,2,
x6a,RSVPtest,124,g,true,720.8999999910593,0,b,,2,3,0,
x6a,RSVPtest,125,g,false,570.5999999940395,0,b,,1,3,0,
x6a,RSVPtest,126,g,true,800.7999999970198,2,g,,2,1,1,
x6a,RSVPtest,127,g,true,658.5,1,r,,0,0,2,
x6a,RSVPtest,128,g,true,609.1999999880791,2,g,,3,2,1,
x6a,RSVPtest,129,g,true,634.3999999910593,1,r,,3,1,1,
x6a,RSVPtest,130,g,false,593.5999999940395,1,r,,3,1,1,
x6a,RSVPtest,131,g,true,744.8000000119209,2,g,,2,1,1,
x6a,RSVPtest,132,g,false,1033.199999988079,1,r,,2,2,2,
x6a,RSVPtest,133,g,true,634.2999999970198,0,b,,1,3,0,
x6a,RSVPtest,134,g,true,593.5,0,b,,0,3,0,
x6a,RSVPtest,135,g,true,778.2999999970198,1,r,,3,1,1,
x6a,RSVPtest,136,g,false,679.3000000119209,1,r,,3,0,1,
x6a,RSVPtest,137,g,true,554.6999999880791,1,r,,2,1,1,
x6a,RSVPtest,138,g,true,769,1,r,,2,1,1,
x6a,RSVPtest,139,g,false,745.1999999880791,1,r,,2,1,1,
x6a,RSVPtest,140,g,true,1010.6000000089407,2,g,,3,2,1,
x6a,RSVPtest,141,g,true,465.29999999701977,1,r,,1,2,1,
x6a,RSVPtest,142,g,false,710.3999999910593,2,g,,0,2,1,
x6a,RSVPtest,143,g,false,635.2000000029802,2,g,,0,1,1,
x6a,RSVPtest,144,g,true,489.79999999701977,2,g,,2,1,1,
x6a,RSVPtest,145,g,true,642.1000000089407,1,r,,2,2,2,
x6a,RSVPtest,146,g,true,514.1999999880791,2,g,,0,0,2,
x6a,RSVPtest,147,g,true,683.3999999910593,1,r,,3,2,1,
x6a,RSVPtest,148,g,false,634.1999999880791,0,b,,3,3,0,
x6a,RSVPtest,149,g,false,851.5,2,g,,2,0,1,
x6a,RSVPtest,150,g,false,834.8000000119209,0,b,,3,3,0,
x6a,RSVPtest,151,g,true,451.6000000089407,0,b,,2,3,0,
x6a,RSVPtest,152,g,true,648.7000000029802,1,r,,3,0,1,
x6a,RSVPtest,153,g,false,1088.8999999910593,1,r,,1,1,2,
x6a,RSVPtest,154,g,false,842.3000000119209,1,r,,2,0,1,
x6a,RSVPtest,155,g,false,571.7999999970198,2,g,,3,1,1,
x6a,RSVPtest,156,g,true,633.9000000059605,1,r,,0,1,1,
x6a,RSVPtest,157,g,true,622.7000000029802,0,b,,3,3,0,
x6a,RSVPtest,158,g,true,687.3000000119209,1,r,,3,1,1,
x6a,RSVPtest,159,g,true,784.9000000059605,0,b,,2,3,0,
x6a,RSVPtest,160,g,true,776.3999999910593,2,g,,3,2,1,
x6a,RSVPtest,161,g,true,688.3000000119209,2,g,,3,0,1,
x6a,RSVPtest,162,g,false,553.8999999910593,2,g,,3,1,1,
x6a,RSVPtest,163,g,true,553.5,2,g,,3,1,1,
x6a,RSVPtest,164,g,true,824.4000000059605,1,r,,2,2,2,
x6a,RSVPtest,165,g,false,706,0,b,,0,3,0,
x6a,RSVPtest,166,g,true,472.90000000596046,2,g,,1,1,2,
x6a,RSVPtest,167,g,false,536,1,r,,1,2,1,
x6a,RSVPtest,168,g,true,729.2000000029802,2,g,,0,1,1,
x6a,RSVPtest,169,g,false,792.5999999940395,2,g,,0,2,1,
x6a,RSVPtest,170,g,false,728.5,2,g,,3,1,1,
x6a,RSVPtest,171,g,false,641.2999999970198,2,g,,2,0,1,
x6a,RSVPtest,172,g,true,784.5999999940395,1,r,,1,1,2,
x6a,RSVPtest,173,g,true,562.4000000059605,2,g,,0,0,2,
x6a,RSVPtest,174,g,true,415.1000000089407,2,g,,0,0,2,
x6a,RSVPtest,175,g,true,489.80000001192093,2,g,,1,0,1,
x6a,RSVPtest,176,g,false,786.8999999910593,2,g,,3,0,1,
x6a,RSVPtest,177,g,true,585.7999999970198,1,r,,1,0,1,
x6a,RSVPtest,178,g,true,665.5999999940395,0,b,,3,3,0,
x6a,RSVPtest,179,g,false,504.5,1,r,,3,1,1,
x6a,RSVPtest,180,g,true,569.2999999970198,0,b,,3,3,0,
brk,brk,brk,brk,brk,brk,brk,brk,brk,brk,brk,brk,
x6a,RSVPtest,181,g,true,458.59999999403954,0,b,,0,3,0,
x6a,RSVPtest,182,g,true,696.0999999940395,2,g,,3,2,1,
x6a,RSVPtest,183,g,true,344.40000000596046,1,r,,0,0,2,
x6a,RSVPtest,184,g,true,544.9000000059605,0,b,,3,3,0,
x6a,RSVPtest,185,g,true,889.3000000119209,1,r,,3,2,1,
x6a,RSVPtest,186,g,true,674,0,b,,3,3,0,
x6a,RSVPtest,187,g,true,780.2000000029802,0,b,,1,3,0,
x6a,RSVPtest,188,g,true,527.5,1,r,,0,1,1,
x6a,RSVPtest,189,g,false,539.1000000089407,0,b,,1,3,0,
x6a,RSVPtest,190,g,true,712.9000000059605,1,r,,0,1,1,
x6a,RSVPtest,191,g,false,473.20000000298023,2,g,,2,0,1,
x6a,RSVPtest,192,g,false,834.5999999940395,2,g,,0,1,1,
x6a,RSVPtest,193,g,true,602.7999999970198,1,r,,1,0,1,
x6a,RSVPtest,194,g,false,478.5,2,g,,0,2,1,
x6a,RSVPtest,195,g,true,697.2000000029802,1,r,,2,2,2,
x6a,RSVPtest,196,g,true,458.09999999403954,0,b,,0,3,0,
x6a,RSVPtest,197,g,true,849.9000000059605,1,r,,0,2,1,
x6a,RSVPtest,198,g,false,691.1999999880791,1,r,,3,2,1,
x6a,RSVPtest,199,g,true,666.6000000089407,1,r,,1,1,2,
x6a,RSVPtest,200,g,true,510.90000000596046,2,g,,0,2,1,
x6a,RSVPtest,201,g,false,714,1,r,,1,0,1,
x6a,RSVPtest,202,g,false,783.9000000059605,0,b,,3,3,0,
x6a,RSVPtest,203,g,true,832,2,g,,2,2,2,
x6a,RSVPtest,204,g,true,415.59999999403954,2,g,,1,1,2,
x6a,RSVPtest,205,g,true,723.8999999910593,2,g,,3,2,1,
x6a,RSVPtest,206,g,true,695.7000000029802,0,b,,3,3,0,
x6a,RSVPtest,207,g,true,544.7999999970198,2,g,,2,0,1,
x6a,RSVPtest,208,g,true,550.7999999970198,0,b,,2,3,0,
x6a,RSVPtest,209,g,true,377.90000000596046,2,g,,0,0,2,
x6a,RSVPtest,210,g,false,567.7999999970198,0,b,,0,3,0,
x6a,RSVPtest,211,g,false,776.4000000059605,1,r,,2,0,1,
x6a,RSVPtest,212,g,true,681.6000000089407,0,b,,2,3,0,
x6a,RSVPtest,213,g,true,601.6000000089407,1,r,,3,2,1,
x6a,RSVPtest,214,g,false,629.8999999910593,1,r,,3,1,1,
x6a,RSVPtest,215,g,true,807.6000000089407,2,g,,2,0,1,
x6a,RSVPtest,216,g,true,456,1,r,,0,0,2,
x6a,RSVPtest,217,g,false,455.70000000298023,2,g,,0,1,1,
x6a,RSVPtest,218,g,true,407,1,r,,1,2,1,
x6a,RSVPtest,219,g,false,593.6000000089407,0,b,,2,3,0,
x6a,RSVPtest,220,g,true,815.6999999880791,1,r,,1,2,1,
x6a,RSVPtest,221,g,false,762.3999999910593,0,b,,1,3,0,
x6a,RSVPtest,222,g,false,881.6000000089407,1,r,,3,0,1,
x6a,RSVPtest,223,g,true,726.2999999970198,2,g,,3,2,1,
x6a,RSVPtest,224,g,true,592.5,0,b,,3,3,0,
x6a,RSVPtest,225,g,false,696.0999999940395,1,r,,1,0,1,
x6a,RSVPtest,226,g,false,660.6000000089407,1,r,,3,2,1,
x6a,RSVPtest,227,g,true,775.7999999970198,1,r,,3,1,1,
x6a,RSVPtest,228,g,true,1233.5999999940395,0,b,,3,3,0,
x6a,RSVPtest,229,g,true,614.5,1,r,,2,1,1,
x6a,RSVPtest,230,g,false,567.6999999880791,1,r,,1,1,2,
x6a,RSVPtest,231,g,false,577.8000000119209,0,b,,3,3,0,
x6a,RSVPtest,232,g,false,711.2000000029802,1,r,,0,2,1,
x6a,RSVPtest,233,g,true,559.2000000029802,2,g,,3,2,1,
x6a,RSVPtest,234,g,true,606.5,2,g,,3,0,1,
x6a,RSVPtest,235,g,false,600.2000000029802,1,r,,3,1,1,
x6a,RSVPtest,236,g,false,508.80000001192093,1,r,,2,0,1,
x6a,RSVPtest,237,g,true,713.5999999940395,2,g,,3,0,1,
x6a,RSVPtest,238,g,false,1094.3999999910593,2,g,,1,0,1,
x6a,RSVPtest,239,g,true,670.7000000029802,1,r,,3,1,1,
x6a,RSVPtest,240,g,false,951.3999999910593,2,g,,1,0,1,
subID,trialType,trialNum,cntBalance,correct,rt,rwdType,tgtCol,tgtDir,tgtPos,colPos,colMatch,
nh5,VDACtrain,0,g,null,null,2,g,v,5,,,
nh5,VDACtrain,0,g,null,null,1,r,v,4,,,
nh5,VDACtrain,0,g,true,772,1,r,h,1,,,
nh5,VDACtrain,0,g,false,737.5999999940395,1,r,h,0,,,
nh5,VDACtrain,0,g,true,760.3999999910593,2,g,v,2,,,
nh5,VDACtrain,0,g,true,793.6999999880791,2,g,h,5,,,
nh5,VDACtrain,0,g,true,632.9000000059605,2,g,v,0,,,
nh5,VDACtrain,0,g,false,953.8000000119209,1,r,v,3,,,
nh5,VDACtrain,0,g,true,791.3999999910593,1,r,h,2,,,
nh5,VDACtrain,0,g,true,832.2999999970198,2,g,h,3,,,
nh5,VDACtest,1,g,null,null,1,r,v,3,,,
nh5,VDACtest,2,g,true,626.8000000119209,2,g,h,0,,,
nh5,VDACtest,3,g,true,589.2999999970198,1,r,h,2,,,
nh5,VDACtest,4,g,true,632.5999999940395,2,g,v,0,,,
nh5,VDACtest,5,g,true,768.3000000119209,2,g,h,1,,,
nh5,VDACtest,6,g,true,567.7999999970198,1,r,v,2,,,
nh5,VDACtest,7,g,true,575.9000000059605,2,g,v,2,,,
nh5,VDACtest,8,g,true,583.8000000119209,2,g,v,0,,,
nh5,VDACtest,9,g,true,439.20000000298023,1,r,h,4,,,
nh5,VDACtest,10,g,true,519.7999999970198,1,r,h,5,,,
nh5,VDACtest,11,g,true,473.20000000298023,1,r,v,4,,,
nh5,VDACtest,12,g,true,632.3999999910593,2,g,v,2,,,
nh5,VDACtest,13,g,false,407.40000000596046,2,g,v,3,,,
nh5,VDACtest,14,g,true,592.9000000059605,2,g,v,0,,,
nh5,VDACtest,15,g,true,569.5,2,g,h,0,,,
nh5,VDACtest,16,g,false,560.2000000029802,1,r,h,3,,,
nh5,VDACtest,17,g,true,559.6000000089407,1,r,h,4,,,
nh5,VDACtest,18,g,true,616.2000000029802,2,g,h,2,,,
nh5,VDACtest,19,g,true,527,1,r,v,4,,,
nh5,VDACtest,20,g,true,512,2,g,h,4,,,
nh5,VDACtest,21,g,true,528.1000000089407,2,g,v,0,,,
nh5,VDACtest,22,g,true,520.4000000059605,2,g,h,5,,,
nh5,VDACtest,23,g,true,456.3999999910593,1,r,v,4,,,
nh5,VDACtest,24,g,true,576.4000000059605,1,r,v,0,,,
nh5,VDACtest,25,g,true,504.29999999701977,1,r,h,3,,,
nh5,VDACtest,26,g,true,559,2,g,h,5,,,
nh5,VDACtest,27,g,true,487.8999999910593,2,g,h,0,,,
nh5,VDACtest,28,g,true,504.90000000596046,1,r,h,2,,,
nh5,VDACtest,29,g,true,464.8999999910593,1,r,h,4,,,
nh5,VDACtest,30,g,true,500.3999999910593,2,g,h,3,,,
nh5,VDACtest,31,g,true,672,2,g,v,1,,,
nh5,VDACtest,32,g,true,489.19999998807907,1,r,v,1,,,
nh5,VDACtest,33,g,true,503,2,g,h,2,,,
nh5,VDACtest,34,g,true,579,1,r,v,5,,,
nh5,VDACtest,35,g,true,601.2999999970198,2,g,h,1,,,
nh5,VDACtest,36,g,true,487.8999999910593,1,r,v,2,,,
nh5,VDACtest,37,g,true,567.7999999970198,2,g,h,1,,,
nh5,VDACtest,38,g,true,560.1999999880791,1,r,v,3,,,
nh5,VDACtest,39,g,true,600.5,1,r,h,2,,,
nh5,VDACtest,40,g,true,463.8999999910593,1,r,v,2,,,
nh5,VDACtest,41,g,true,553.1000000089407,1,r,h,2,,,
nh5,VDACtest,42,g,true,663.2000000029802,2,g,v,2,,,
nh5,VDACtest,43,g,false,536.2000000029802,2,g,v,3,,,
nh5,VDACtest,44,g,true,694,2,g,v,0,,,
nh5,VDACtest,45,g,true,528.4000000059605,2,g,h,2,,,
nh5,VDACtest,46,g,true,479.5,2,g,h,3,,,
nh5,VDACtest,47,g,true,616.5999999940395,1,r,h,5,,,
nh5,VDACtest,48,g,true,519.7000000029802,1,r,h,4,,,
nh5,VDACtest,49,g,true,567.5,2,g,h,5,,,
nh5,VDACtest,50,g,true,616.6000000089407,2,g,v,4,,,
brk,brk,brk,brk,brk,brk,brk,brk,brk,brk,brk,brk,
nh5,VDACtest,51,g,false,716.3999999910593,1,r,h,1,,,
nh5,VDACtest,52,g,true,526.2000000029802,2,g,h,4,,,
nh5,VDACtest,53,g,true,599.5,2,g,v,5,,,
nh5,VDACtest,54,g,true,590.3999999910593,2,g,v,3,,,
nh5,VDACtest,55,g,true,614.7000000029802,1,r,h,0,,,
nh5,VDACtest,56,g,true,550.7999999970198,2,g,v,5,,,
nh5,VDACtest,57,g,true,583.7000000029802,2,g,h,0,,,
nh5,VDACtest,58,g,true,582.7999999970198,2,g,v,5,,,
nh5,VDACtest,59,g,true,679.5,1,r,v,5,,,
nh5,VDACtest,60,g,true,629,1,r,v,0,,,
nh5,VDACtest,61,g,true,583.7000000029802,1,r,h,4,,,
nh5,VDACtest,62,g,true,528.2999999970198,1,r,h,5,,,
nh5,VDACtest,63,g,true,543.5999999940395,1,r,v,0,,,
nh5,VDACtest,64,g,true,656.7999999970198,2,g,v,4,,,
nh5,VDACtest,65,g,true,526.6999999880791,1,r,v,3,,,
nh5,VDACtest,66,g,true,496.59999999403954,2,g,v,4,,,
nh5,VDACtest,67,g,true,576.5,2,g,h,3,,,
nh5,VDACtest,68,g,true,582.8999999910593,1,r,h,4,,,
nh5,VDACtest,69,g,true,744.2000000029802,2,g,h,4,,,
nh5,VDACtest,70,g,true,774.5999999940395,2,g,h,2,,,
nh5,VDACtest,71,g,true,693.7000000029802,2,g,h,1,,,
nh5,VDACtest,72,g,true,856.0999999940395,1,r,v,4,,,
nh5,VDACtest,73,g,true,550,1,r,v,0,,,
nh5,VDACtest,74,g,true,600,2,g,v,1,,,
nh5,VDACtest,75,g,true,615.9000000059605,2,g,h,1,,,
nh5,VDACtest,76,g,true,597.2999999970198,1,r,v,3,,,
nh5,VDACtest,77,g,true,599.7999999970198,1,r,h,4,,,
nh5,VDACtest,78,g,true,646.3000000119209,2,g,h,5,,,
nh5,VDACtest,79,g,true,621,1,r,h,1,,,
nh5,VDACtest,80,g,true,552.5999999940395,2,g,h,4,,,
nh5,VDACtest,81,g,true,463.79999999701977,1,r,v,4,,,
nh5,VDACtest,82,g,false,565.9000000059605,2,g,h,0,,,
nh5,VDACtest,83,g,true,895,1,r,v,5,,,
nh5,VDACtest,84,g,true,629.9000000059605,1,r,v,1,,,
nh5,VDACtest,85,g,true,581.8999999910593,1,r,h,5,,,
nh5,VDACtest,86,g,true,689,2,g,v,2,,,
nh5,VDACtest,87,g,true,519,2,g,h,3,,,
nh5,VDACtest,88,g,true,615.3999999910593,1,r,h,1,,,
nh5,VDACtest,89,g,true,553,1,r,h,4,,,
nh5,VDACtest,90,g,true,503,1,r,h,3,,,
nh5,VDACtest,91,g,true,606.5,1,r,v,2,,,
nh5,VDACtest,92,g,true,687.7999999970198,2,g,v,5,,,
nh5,VDACtest,93,g,true,534.2000000029802,1,r,v,1,,,
nh5,VDACtest,94,g,true,624.1000000089407,2,g,v,1,,,
nh5,VDACtest,95,g,true,632.1000000089407,2,g,v,4,,,
nh5,VDACtest,96,g,true,567.9000000059605,2,g,h,5,,,
nh5,VDACtest,97,g,true,767,1,r,v,0,,,
nh5,VDACtest,98,g,true,633.1000000089407,1,r,v,2,,,
nh5,VDACtest,99,g,true,544.0999999940395,1,r,v,5,,,
nh5,VDACtest,100,g,true,591.0999999940395,2,g,h,1,,,
brk,brk,brk,brk,brk,brk,brk,brk,brk,brk,brk,brk,
nh5,VDACtest,101,g,true,602.5,2,g,v,4,,,
nh5,VDACtest,102,g,true,559.7000000029802,2,g,h,4,,,
nh5,VDACtest,103,g,true,616.5999999940395,2,g,v,2,,,
nh5,VDACtest,104,g,true,504.29999999701977,1,r,v,5,,,
nh5,VDACtest,105,g,true,583.5,1,r,v,0,,,
nh5,VDACtest,106,g,true,542,2,g,v,1,,,
nh5,VDACtest,107,g,true,496.79999999701977,1,r,h,0,,,
nh5,VDACtest,108,g,true,447.29999999701977,1,r,h,1,,,
nh5,VDACtest,109,g,true,566.7000000029802,1,r,h,0,,,
nh5,VDACtest,110,g,true,504,2,g,v,3,,,
nh5,VDACtest,111,g,true,591.9000000059605,1,r,v,5,,,
nh5,VDACtest,112,g,true,479.20000000298023,2,g,v,5,,,
nh5,VDACtest,113,g,true,591,1,r,v,1,,,
nh5,VDACtest,114,g,true,680.7999999970198,1,r,h,2,,,
nh5,VDACtest,115,g,true,591.1000000089407,2,g,h,4,,,
nh5,VDACtest,116,g,true,600.7000000029802,1,r,v,1,,,
nh5,VDACtest,117,g,true,615.5999999940395,1,r,h,3,,,
nh5,VDACtest,118,g,true,519.2000000029802,2,g,v,5,,,
nh5,VDACtest,119,g,true,608.6999999880791,2,g,h,5,,,
nh5,VDACtest,120,g,true,656.9000000059605,1,r,v,3,,,
nh5,VDACtest,121,g,true,550.8000000119209,2,g,v,0,,,
nh5,VDACtest,122,g,true,584,1,r,h,3,,,
nh5,VDACtest,123,g,true,696.4000000059605,1,r,h,3,,,
nh5,VDACtest,124,g,true,478.70000000298023,2,g,v,4,,,
nh5,VDACtest,125,g,true,735.2999999970198,1,r,v,2,,,
nh5,VDACtest,126,g,true,566.1000000089407,1,r,v,2,,,
nh5,VDACtest,127,g,true,455.40000000596046,1,r,v,4,,,
nh5,VDACtest,128,g,true,679,2,g,v,3,,,
nh5,VDACtest,129,g,true,655.2000000029802,1,r,h,1,,,
nh5,VDACtest,130,g,true,549.8000000119209,2,g,v,5,,,
nh5,VDACtest,131,g,true,496.90000000596046,2,g,h,2,,,
nh5,VDACtest,132,g,null,null,1,r,v,0,,,
nh5,VDACtest,133,g,true,574.7000000029802,1,r,h,5,,,
nh5,VDACtest,134,g,true,600.2000000029802,2,g,h,0,,,
nh5,VDACtest,135,g,true,630,2,g,v,2,,,
nh5,VDACtest,136,g,true,686.5,2,g,h,4,,,
nh5,VDACtest,137,g,true,576.2999999970198,2,g,v,1,,,
nh5,VDACtest,138,g,true,726.7999999970198,1,r,h,3,,,
nh5,VDACtest,139,g,true,574.2999999970198,2,g,v,5,,,
nh5,VDACtest,140,g,true,455.3999999910593,2,g,v,3,,,
nh5,VDACtest,141,g,true,751.7999999970198,1,r,h,1,,,
nh5,VDACtest,142,g,true,554.4000000059605,2,g,v,4,,,
nh5,VDACtest,143,g,true,696.2000000029802,2,g,h,0,,,
nh5,VDACtest,144,g,true,551.2999999970198,1,r,h,4,,,
nh5,VDACtest,145,g,true,592.1999999880791,1,r,v,0,,,
nh5,VDACtest,146,g,true,672.0999999940395,2,g,h,5,,,
nh5,VDACtest,147,g,true,471.59999999403954,1,r,h,0,,,
nh5,VDACtest,148,g,true,509.90000000596046,1,r,v,4,,,
nh5,VDACtest,149,g,true,543.3999999910593,2,g,h,4,,,
nh5,VDACtest,150,g,true,527.7000000029802,2,g,h,0,,,
brk,brk,brk,brk,brk,brk,brk,brk,brk,brk,brk,brk,
nh5,VDACtest,151,g,true,606.7000000029802,2,g,v,1,,,
nh5,VDACtest,152,g,true,567,1,r,h,2,,,
nh5,VDACtest,153,g,true,503.70000000298023,1,r,h,0,,,
nh5,VDACtest,154,g,true,590.3000000119209,2,g,h,1,,,
nh5,VDACtest,155,g,false,445.59999999403954,2,g,h,5,,,
nh5,VDACtest,156,g,true,575.4000000059605,1,r,h,0,,,
nh5,VDACtest,157,g,true,632.7000000029802,2,g,h,4,,,
nh5,VDACtest,158,g,true,632.1000000089407,2,g,v,2,,,
nh5,VDACtest,159,g,true,678.3999999910593,1,r,v,1,,,
nh5,VDACtest,160,g,true,768.2000000029802,1,r,h,1,,,
nh5,VDACtest,161,g,true,541.2999999970198,1,r,h,0,,,
nh5,VDACtest,162,g,true,598.6000000089407,1,r,h,5,,,
nh5,VDACtest,163,g,true,559.6000000089407,1,r,h,3,,,
nh5,VDACtest,164,g,true,566.7000000029802,1,r,v,5,,,
nh5,VDACtest,165,g,true,567.2000000029802,1,r,h,1,,,
nh5,VDACtest,166,g,false,614.0999999940395,2,g,v,4,,,
nh5,VDACtest,167,g,true,542.9000000059605,1,r,v,1,,,
nh5,VDACtest,168,g,true,574.5,2,g,h,3,,,
nh5,VDACtest,169,g,true,663.5999999940395,2,g,v,2,,,
nh5,VDACtest,170,g,true,621.8999999910593,1,r,h,2,,,
nh5,VDACtest,171,g,true,534.7999999970198,1,r,h,0,,,
nh5,VDACtest,172,g,true,680.0999999940395,2,g,v,0,,,
nh5,VDACtest,173,g,true,527.6000000089407,2,g,h,2,,,
nh5,VDACtest,174,g,true,462.3999999910593,2,g,h,2,,,
nh5,VDACtest,175,g,true,613.5999999940395,1,r,v,1,,,
nh5,VDACtest,176,g,true,461.70000000298023,1,r,v,2,,,
nh5,VDACtest,177,g,true,645.7999999970198,1,r,h,5,,,
nh5,VDACtest,178,g,true,584.8999999910593,1,r,v,1,,,
nh5,VDACtest,179,g,true,447.1000000089407,2,g,v,1,,,
nh5,VDACtest,180,g,null,null,1,r,v,3,,,
nh5,VDACtest,181,g,true,494.79999999701977,2,g,v,3,,,
nh5,VDACtest,182,g,true,398.59999999403954,1,r,v,4,,,
nh5,VDACtest,183,g,true,470.6000000089407,2,g,v,0,,,
nh5,VDACtest,184,g,true,678.2000000029802,2,g,h,1,,,
nh5,VDACtest,185,g,true,655.3000000119209,2,g,h,2,,,
nh5,VDACtest,186,g,true,503.40000000596046,2,g,h,3,,,
nh5,VDACtest,187,g,true,471.29999999701977,1,r,v,3,,,
nh5,VDACtest,188,g,true,472.59999999403954,2,g,v,1,,,
nh5,VDACtest,189,g,null,null,1,r,h,1,,,
nh5,VDACtest,190,g,true,535.5,2,g,h,3,,,
nh5,VDACtest,191,g,true,503.8999999910593,2,g,v,3,,,
nh5,VDACtest,192,g,true,654.7000000029802,1,r,h,5,,,
nh5,VDACtest,193,g,true,494.90000000596046,1,r,v,5,,,
nh5,VDACtest,194,g,true,598.2000000029802,1,r,v,3,,,
nh5,VDACtest,195,g,true,494.19999998807907,2,g,h,3,,,
nh5,VDACtest,196,g,true,510.6000000089407,2,g,v,1,,,
nh5,VDACtest,197,g,true,464,1,r,v,4,,,
nh5,VDACtest,198,g,true,432.20000000298023,2,g,v,4,,,
nh5,VDACtest,199,g,true,622.5,2,g,h,1,,,
nh5,VDACtest,200,g,true,678.2000000029802,1,r,h,2,,,
nh5,RSVPtrain,0,g,false,1273.3999999910593,0,b,,0,3,0,
nh5,RSVPtrain,0,g,true,1307.300000011921,2,g,,3,0,1,
nh5,RSVPtrain,0,g,true,867.5,2,g,,3,1,1,
nh5,RSVPtrain,0,g,false,681.2000000029802,2,g,,1,0,1,
nh5,RSVPtrain,0,g,true,755.8999999910593,1,r,,3,2,1,
nh5,RSVPtrain,0,g,false,1324.0999999940395,1,r,,0,0,2,
nh5,RSVPtrain,0,g,true,1189.5999999940395,1,r,,1,1,2,
nh5,RSVPtrain,0,g,true,926.0999999940395,0,b,,1,3,0,
nh5,RSVPtrain,0,g,false,1070.6000000089407,0,b,,3,3,0,
nh5,RSVPtrain,0,g,true,652,2,g,,2,2,2,
nh5,RSVPtest,1,g,true,712.7000000029802,2,g,,3,2,1,
nh5,RSVPtest,2,g,false,826.2999999970198,1,r,,2,0,1,
nh5,RSVPtest,3,g,true,648.8999999910593,2,g,,0,2,1,
nh5,RSVPtest,4,g,true,528.0999999940395,0,b,,0,3,0,
nh5,RSVPtest,5,g,true,906.2000000029802,0,b,,3,3,0,
nh5,RSVPtest,6,g,true,535.9000000059605,2,g,,1,1,2,
nh5,RSVPtest,7,g,true,603.8000000119209,2,g,,3,1,1,
nh5,RSVPtest,8,g,true,680.5999999940395,1,r,,2,2,2,
nh5,RSVPtest,9,g,true,650.2000000029802,1,r,,3,0,1,
nh5,RSVPtest,10,g,true,707.6000000089407,2,g,,0,1,1,
nh5,RSVPtest,11,g,true,697.7999999970198,2,g,,2,1,1,
nh5,RSVPtest,12,g,true,576.3999999910593,0,b,,3,3,0,
nh5,RSVPtest,13,g,true,642.4000000059605,0,b,,3,3,0,
nh5,RSVPtest,14,g,true,745.1000000089407,0,b,,0,3,0,
nh5,RSVPtest,15,g,false,884.2999999970198,1,r,,0,1,1,
nh5,RSVPtest,16,g,true,641.2000000029802,0,b,,1,3,0,
nh5,RSVPtest,17,g,true,623.2999999970198,0,b,,0,3,0,
nh5,RSVPtest,18,g,true,1179.5,1,r,,0,1,1,
nh5,RSVPtest,19,g,true,735.5,0,b,,1,3,0,
nh5,RSVPtest,20,g,true,753.7000000029802,2,g,,3,0,1,
nh5,RSVPtest,21,g,true,737.7999999970198,2,g,,3,2,1,
nh5,RSVPtest,22,g,false,969.3999999910593,1,r,,3,2,1,
nh5,RSVPtest,23,g,false,1660.5999999940395,2,g,,1,1,2,
nh5,RSVPtest,24,g,true,967.5999999940395,1,r,,3,0,1,
nh5,RSVPtest,25,g,false,746.7999999970198,0,b,,0,3,0,
nh5,RSVPtest,26,g,true,929.6000000089407,1,r,,3,1,1,
nh5,RSVPtest,27,g,false,986.0999999940395,1,r,,0,0,2,
nh5,RSVPtest,28,g,true,886,2,g,,3,1,1,
nh5,RSVPtest,29,g,true,550.1000000089407,2,g,,2,1,1,
nh5,RSVPtest,30,g,false,880.5,1,r,,3,0,1,
nh5,RSVPtest,31,g,true,597.5999999940395,2,g,,3,1,1,
nh5,RSVPtest,32,g,false,937.7000000029802,0,b,,1,3,0,
nh5,RSVPtest,33,g,true,787.5,1,r,,1,0,1,
nh5,RSVPtest,34,g,true,705.7000000029802,2,g,,0,2,1,
nh5,RSVPtest,35,g,true,1224.7000000029802,2,g,,0,1,1,
nh5,RSVPtest,36,g,true,481.6000000089407,2,g,,1,0,1,
nh5,RSVPtest,37,g,true,474.69999998807907,1,r,,1,0,1,
nh5,RSVPtest,38,g,false,303.90000000596046,1,r,,3,1,1,
nh5,RSVPtest,39,g,false,1145.4000000059605,1,r,,2,0,1,
nh5,RSVPtest,40,g,true,767.7999999970198,1,r,,1,2,1,
nh5,RSVPtest,41,g,true,516.4000000059605,1,r,,0,0,2,
nh5,RSVPtest,42,g,false,2432.800000011921,2,g,,1,0,1,
nh5,RSVPtest,43,g,true,960.9000000059605,2,g,,0,2,1,
nh5,RSVPtest,44,g,true,740.7999999970198,1,r,,1,1,2,
nh5,RSVPtest,45,g,true,838.8000000119209,0,b,,1,3,0,
nh5,RSVPtest,46,g,true,466.40000000596046,2,g,,2,1,1,
nh5,RSVPtest,47,g,null,null,1,r,,0,2,1,
nh5,RSVPtest,48,g,true,613.2999999970198,2,g,,0,0,2,
nh5,RSVPtest,49,g,true,680.7000000029802,1,r,,1,0,1,
nh5,RSVPtest,50,g,true,562.8999999910593,0,b,,3,3,0,
nh5,RSVPtest,51,g,true,1153.7000000029802,2,g,,3,0,1,
nh5,RSVPtest,52,g,true,842.7000000029802,1,r,,0,0,2,
nh5,RSVPtest,53,g,false,658.3999999910593,1,r,,3,2,1,
nh5,RSVPtest,54,g,true,642.3999999910593,1,r,,1,0,1,
nh5,RSVPtest,55,g,true,698.2999999970198,1,r,,2,1,1,
nh5,RSVPtest,56,g,true,810.0999999940395,2,g,,2,0,1,
nh5,RSVPtest,57,g,true,1199.5999999940395,0,b,,3,3,0,
nh5,RSVPtest,58,g,true,818.5,0,b,,2,3,0,
nh5,RSVPtest,59,g,true,648.0999999940395,2,g,,3,1,1,
nh5,RSVPtest,60,g,true,642.3000000119209,2,g,,3,0,1,
brk,brk,brk,brk,brk,brk,brk,brk,brk,brk,brk,brk,
nh5,RSVPtest,61,g,null,null,1,r,,3,1,1,
nh5,RSVPtest,62,g,false,631.5,0,b,,3,3,0,
nh5,RSVPtest,63,g,true,605.5,0,b,,1,3,0,
nh5,RSVPtest,64,g,true,679.9000000059605,0,b,,3,3,0,
nh5,RSVPtest,65,g,false,952.7000000029802,0,b,,2,3,0,
nh5,RSVPtest,66,g,false,1134.9000000059605,2,g,,1,1,2,
nh5,RSVPtest,67,g,true,623.7000000029802,0,b,,3,3,0,
nh5,RSVPtest,68,g,true,503.70000000298023,0,b,,0,3,0,
nh5,RSVPtest,69,g,true,639.7000000029802,0,b,,2,3,0,
nh5,RSVPtest,70,g,true,929,1,r,,0,2,1,
nh5,RSVPtest,71,g,true,728.2000000029802,1,r,,2,1,1,
nh5,RSVPtest,72,g,true,688.5999999940395,2,g,,0,1,1,
nh5,RSVPtest,73,g,true,816.7000000029802,1,r,,3,1,1,
nh5,RSVPtest,74,g,true,935.3999999910593,1,r,,2,2,2,
nh5,RSVPtest,75,g,true,551.6000000089407,0,b,,0,3,0,
nh5,RSVPtest,76,g,false,563.5,2,g,,2,0,1,
nh5,RSVPtest,77,g,true,686.5,2,g,,2,2,2,
nh5,RSVPtest,78,g,false,766.7999999970198,2,g,,0,0,2,
nh5,RSVPtest,79,g,true,711.2000000029802,1,r,,3,2,1,
nh5,RSVPtest,80,g,true,638.3999999910593,1,r,,2,1,1,
nh5,RSVPtest,81,g,true,1121.9000000059605,1,r,,1,1,2,
nh5,RSVPtest,82,g,true,670.3999999910593,1,r,,1,0,1,
nh5,RSVPtest,83,g,true,718.5,1,r,,3,0,1,
nh5,RSVPtest,84,g,false,601.1999999880791,0,b,,3,3,0,
nh5,RSVPtest,85,g,true,863.5,2,g,,3,2,1,
nh5,RSVPtest,86,g,true,826,1,r,,3,2,1,
nh5,RSVPtest,87,g,true,665.6000000089407,2,g,,2,2,2,
nh5,RSVPtest,88,g,true,535.4000000059605,1,r,,0,0,2,
nh5,RSVPtest,89,g,true,802.2000000029802,2,g,,3,1,1,
nh5,RSVPtest,90,g,false,980.4000000059605,2,g,,1,1,2,
nh5,RSVPtest,91,g,true,853.0999999940395,1,r,,3,2,1,
nh5,RSVPtest,92,g,true,841.4000000059605,0,b,,3,3,0,
nh5,RSVPtest,93,g,true,529.6000000089407,1,r,,2,1,1,
nh5,RSVPtest,94,g,true,728.1000000089407,0,b,,1,3,0,
nh5,RSVPtest,95,g,true,801.2999999970198,2,g,,3,1,1,
nh5,RSVPtest,96,g,false,794.2999999970198,0,b,,2,3,0,
nh5,RSVPtest,97,g,true,889.7999999970198,2,g,,3,1,1,
nh5,RSVPtest,98,g,true,582.3000000119209,0,b,,0,3,0,
nh5,RSVPtest,99,g,true,512.4000000059605,2,g,,2,2,2,
nh5,RSVPtest,100,g,true,802.2999999970198,2,g,,3,0,1,
nh5,RSVPtest,101,g,false,646.8999999910593,2,g,,3,1,1,
nh5,RSVPtest,102,g,false,600.0999999940395,1,r,,3,2,1,
nh5,RSVPtest,103,g,true,784.2999999970198,2,g,,3,1,1,
nh5,RSVPtest,104,g,true,673.5,1,r,,2,0,1,
nh5,RSVPtest,105,g,true,743.2000000029802,2,g,,1,0,1,
nh5,RSVPtest,106,g,true,992.0999999940395,2,g,,3,0,1,
nh5,RSVPtest,107,g,true,599.2000000029802,1,r,,2,2,2,
nh5,RSVPtest,108,g,true,488.1000000089407,1,r,,1,2,1,
nh5,RSVPtest,109,g,true,880.2999999970198,1,r,,1,0,1,
nh5,RSVPtest,110,g,true,407.20000000298023,1,r,,1,1,2,
nh5,RSVPtest,111,g,true,645.5999999940395,1,r,,3,1,1,
nh5,RSVPtest,112,g,true,642,1,r,,3,2,1,
nh5,RSVPtest,113,g,true,505.29999999701977,2,g,,3,2,1,
nh5,RSVPtest,114,g,true,663.9000000059605,1,r,,0,1,1,
nh5,RSVPtest,115,g,true,455.69999998807907,0,b,,2,3,0,
nh5,RSVPtest,116,g,true,576.2000000029802,0,b,,3,3,0,
nh5,RSVPtest,117,g,true,472.09999999403954,1,r,,2,1,1,
nh5,RSVPtest,118,g,true,649.9000000059605,2,g,,3,0,1,
nh5,RSVPtest,119,g,true,545.5,1,r,,2,0,1,
nh5,RSVPtest,120,g,true,881.7999999970198,0,b,,3,3,0,
brk,brk,brk,brk,brk,brk,brk,brk,brk,brk,brk,brk,
nh5,RSVPtest,121,g,true,893.7999999970198,1,r,,3,2,1,
nh5,RSVPtest,122,g,true,799.5,1,r,,3,1,1,
nh5,RSVPtest,123,g,true,958.1999999880791,2,g,,0,0,2,
nh5,RSVPtest,124,g,false,579.7000000029802,2,g,,0,0,2,
nh5,RSVPtest,125,g,true,534,1,r,,2,2,2,
nh5,RSVPtest,126,g,true,655.7999999970198,1,r,,1,2,1,
nh5,RSVPtest,127,g,false,936.5,1,r,,0,2,1,
nh5,RSVPtest,128,g,true,887.4000000059605,1,r,,3,1,1,
nh5,RSVPtest,129,g,true,544.3999999910593,2,g,,1,2,1,
nh5,RSVPtest,130,g,true,823.2999999970198,0,b,,3,3,0,
nh5,RSVPtest,131,g,true,653.7999999970198,2,g,,2,2,2,
nh5,RSVPtest,132,g,false,711.3999999910593,1,r,,3,0,1,
nh5,RSVPtest,133,g,true,522.3999999910593,0,b,,1,3,0,
nh5,RSVPtest,134,g,false,1119.5999999940395,1,r,,0,0,2,
nh5,RSVPtest,135,g,true,504.29999999701977,1,r,,0,2,1,
nh5,RSVPtest,136,g,true,565.2000000029802,1,r,,1,1,2,
nh5,RSVPtest,137,g,true,512.6000000089407,2,g,,3,0,1,
nh5,RSVPtest,138,g,false,373.90000000596046,0,b,,3,3,0,
nh5,RSVPtest,139,g,true,247.70000000298023,2,g,,3,2,1,
nh5,RSVPtest,140,g,true,477.90000000596046,0,b,,1,3,0,
nh5,RSVPtest,141,g,false,815.7000000029802,2,g,,0,0,2,
nh5,RSVPtest,142,g,false,878.3000000119209,2,g,,0,1,1,
nh5,RSVPtest,143,g,true,1567.0999999940395,2,g,,3,0,1,
nh5,RSVPtest,144,g,true,511.5,1,r,,0,1,1,
nh5,RSVPtest,145,g,true,496.29999999701977,1,r,,3,0,1,
nh5,RSVPtest,146,g,true,608.0999999940395,2,g,,0,2,1,
nh5,RSVPtest,147,g,true,398.90000000596046,2,g,,2,0,1,
nh5,RSVPtest,148,g,true,475.40000000596046,2,g,,2,1,1,
nh5,RSVPtest,149,g,false,856,0,b,,3,3,0,
nh5,RSVPtest,150,g,true,476.90000000596046,0,b,,0,3,0,
nh5,RSVPtest,151,g,false,295.90000000596046,1,r,,1,2,1,
nh5,RSVPtest,152,g,true,550.5999999940395,1,r,,3,1,1,
nh5,RSVPtest,153,g,true,1008.0999999940395,2,g,,3,0,1,
nh5,RSVPtest,154,g,true,582.0999999940395,2,g,,1,0,1,
nh5,RSVPtest,155,g,true,849.0999999940395,2,g,,3,2,1,
nh5,RSVPtest,156,g,true,656.4000000059605,1,r,,2,2,2,
nh5,RSVPtest,157,g,true,631.2000000029802,0,b,,3,3,0,
nh5,RSVPtest,158,g,true,613.7999999970198,2,g,,0,2,1,
nh5,RSVPtest,159,g,true,573.5,2,g,,2,1,1,
nh5,RSVPtest,160,g,true,513.6999999880791,2,g,,2,1,1,
nh5,RSVPtest,161,g,false,789.3999999910593,0,b,,1,3,0,
nh5,RSVPtest,162,g,true,639.0999999940395,2,g,,3,2,1,
nh5,RSVPtest,163,g,true,503.5,2,g,,3,2,1,
nh5,RSVPtest,164,g,true,815,2,g,,3,1,1,
nh5,RSVPtest,165,g,true,446.3999999910593,2,g,,1,2,1,
nh5,RSVPtest,166,g,true,495.09999999403954,2,g,,2,0,1,
nh5,RSVPtest,167,g,true,958.4000000059605,1,r,,3,0,1,
nh5,RSVPtest,168,g,true,661.5,2,g,,3,0,1,
nh5,RSVPtest,169,g,true,710.4000000059605,2,g,,0,1,1,
nh5,RSVPtest,170,g,false,533.8999999910593,2,g,,0,0,2,
nh5,RSVPtest,171,g,true,1231.5999999940395,2,g,,1,0,1,
nh5,RSVPtest,172,g,true,431.40000000596046,2,g,,2,0,1,
nh5,RSVPtest,173,g,true,593.7000000029802,0,b,,3,3,0,
nh5,RSVPtest,174,g,true,734.8999999910593,0,b,,3,3,0,
nh5,RSVPtest,175,g,true,550.4000000059605,0,b,,3,3,0,
nh5,RSVPtest,176,g,true,1551.0999999940395,0,b,,2,3,0,
nh5,RSVPtest,177,g,true,414.5,1,r,,0,1,1,
nh5,RSVPtest,178,g,true,438.90000000596046,2,g,,3,2,1,
nh5,RSVPtest,179,g,true,711.4000000059605,0,b,,0,3,0,
nh5,RSVPtest,180,g,true,532.5,1,r,,3,2,1,
brk,brk,brk,brk,brk,brk,brk,brk,brk,brk,brk,brk,
nh5,RSVPtest,181,g,true,827.7999999970198,0,b,,3,3,0,
nh5,RSVPtest,182,g,true,831.0999999940395,2,g,,3,2,1,
nh5,RSVPtest,183,g,true,660.2999999970198,0,b,,3,3,0,
nh5,RSVPtest,184,g,true,540.1999999880791,0,b,,2,3,0,
nh5,RSVPtest,185,g,true,629.5999999940395,2,g,,1,1,2,
nh5,RSVPtest,186,g,true,455.79999999701977,0,b,,0,3,0,
nh5,RSVPtest,187,g,true,444.79999999701977,2,g,,1,2,1,
nh5,RSVPtest,188,g,true,520.2999999970198,1,r,,2,0,1,
nh5,RSVPtest,189,g,true,478.70000000298023,1,r,,0,1,1,
nh5,RSVPtest,190,g,true,436.70000000298023,1,r,,1,2,1,
nh5,RSVPtest,191,g,true,783.2000000029802,1,r,,3,1,1,
nh5,RSVPtest,192,g,true,534.6999999880791,2,g,,2,2,2,
nh5,RSVPtest,193,g,false,573,0,b,,0,3,0,
nh5,RSVPtest,194,g,true,680.3999999910593,1,r,,0,2,1,
nh5,RSVPtest,195,g,true,535.4000000059605,0,b,,2,3,0,
nh5,RSVPtest,196,g,true,784.7000000029802,0,b,,2,3,0,
nh5,RSVPtest,197,g,true,493.5,1,r,,3,0,1,
nh5,RSVPtest,198,g,true,694.7999999970198,1,r,,3,0,1,
nh5,RSVPtest,199,g,true,543.5,2,g,,1,1,2,
nh5,RSVPtest,200,g,true,463.90000000596046,1,r,,3,1,1,
nh5,RSVPtest,201,g,true,544,2,g,,3,0,1,
nh5,RSVPtest,202,g,true,439.90000000596046,2,g,,3,1,1,
nh5,RSVPtest,203,g,true,533.9000000059605,1,r,,0,0,2,
nh5,RSVPtest,204,g,true,632,1,r,,3,1,1,
nh5,RSVPtest,205,g,true,467.29999999701977,0,b,,3,3,0,
nh5,RSVPtest,206,g,true,1093.2999999970198,1,r,,3,0,1,
nh5,RSVPtest,207,g,true,646.7999999970198,2,g,,3,0,1,
nh5,RSVPtest,208,g,true,861.4000000059605,2,g,,3,2,1,
nh5,RSVPtest,209,g,true,487.70000000298023,2,g,,3,1,1,
nh5,RSVPtest,210,g,false,733.6000000089407,0,b,,2,3,0,
nh5,RSVPtest,211,g,true,460,1,r,,1,2,1,
nh5,RSVPtest,212,g,true,469.59999999403954,1,r,,1,1,2,
nh5,RSVPtest,213,g,true,534.5999999940395,0,b,,2,3,0,
nh5,RSVPtest,214,g,true,564.7000000029802,1,r,,2,0,1,
nh5,RSVPtest,215,g,true,547.7000000029802,0,b,,0,3,0,
nh5,RSVPtest,216,g,true,495.3999999910593,1,r,,2,1,1,
nh5,RSVPtest,217,g,true,549.5,2,g,,1,0,1,
nh5,RSVPtest,218,g,true,713.5,1,r,,3,0,1,
nh5,RSVPtest,219,g,true,573,2,g,,1,2,1,
nh5,RSVPtest,220,g,true,825.2999999970198,0,b,,2,3,0,
nh5,RSVPtest,221,g,false,1116,0,b,,1,3,0,
nh5,RSVPtest,222,g,false,627.6000000089407,0,b,,1,3,0,
nh5,RSVPtest,223,g,true,508.19999998807907,2,g,,2,2,2,
nh5,RSVPtest,224,g,true,582.9000000059605,1,r,,1,1,2,
nh5,RSVPtest,225,g,true,1055.2999999970198,2,g,,3,2,1,
nh5,RSVPtest,226,g,true,741.6000000089407,1,r,,3,1,1,
nh5,RSVPtest,227,g,true,1079.2999999970198,1,r,,3,2,1,
nh5,RSVPtest,228,g,false,493.90000000596046,2,g,,1,2,1,
nh5,RSVPtest,229,g,true,605.6000000089407,1,r,,3,2,1,
nh5,RSVPtest,230,g,false,973.2000000029802,2,g,,0,1,1,
nh5,RSVPtest,231,g,true,645,0,b,,3,3,0,
nh5,RSVPtest,232,g,true,443.20000000298023,1,r,,3,2,1,
nh5,RSVPtest,233,g,true,556.3999999910593,0,b,,1,3,0,
nh5,RSVPtest,234,g,true,613.2000000029802,2,g,,1,2,1,
nh5,RSVPtest,235,g,true,1019.2000000029802,2,g,,0,2,1,
nh5,RSVPtest,236,g,true,642.7999999970198,1,r,,3,0,1,
nh5,RSVPtest,237,g,true,498.8999999910593,0,b,,3,3,0,
nh5,RSVPtest,238,g,true,597.5,1,r,,2,2,2,
nh5,RSVPtest,239,g,true,720,2,g,,2,0,1,
nh5,RSVPtest,240,g,true,507,1,r,,0,2,1,
subID,trialType,trialNum,cntBalance,correct,rt,rwdType,tgtCol,tgtDir,tgtPos,colPos,colMatch,
r98,VDACtrain,0,g,null,null,1,r,v,3,,,
r98,VDACtrain,0,g,true,907.8000000119209,2,g,h,5,,,
r98,VDACtrain,0,g,true,516.5,1,r,v,4,,,
r98,VDACtrain,0,g,true,724.2999999970198,2,g,v,5,,,
r98,VDACtrain,0,g,true,700.3999999910593,2,g,v,0,,,
r98,VDACtrain,0,g,false,820.0999999940395,2,g,h,3,,,
r98,VDACtrain,0,g,null,null,1,r,h,1,,,
r98,VDACtrain,0,g,true,488.20000000298023,1,r,h,2,,,
r98,VDACtrain,0,g,true,556.5999999940395,1,r,h,0,,,
r98,VDACtrain,0,g,true,828.6999999880791,2,g,v,2,,,
r98,VDACtest,1,g,false,740.8000000119209,1,r,h,5,,,
r98,VDACtest,2,g,true,828.4000000059605,2,g,h,5,,,
r98,VDACtest,3,g,true,827.4000000059605,1,r,v,3,,,
r98,VDACtest,4,g,true,763.9000000059605,1,r,v,2,,,
r98,VDACtest,5,g,false,946.5,2,g,v,2,,,
r98,VDACtest,6,g,true,852.6999999880791,2,g,h,1,,,
r98,VDACtest,7,g,true,691.7999999970198,2,g,h,1,,,
r98,VDACtest,8,g,true,845.2999999970198,1,r,h,1,,,
r98,VDACtest,9,g,true,788.3000000119209,1,r,v,2,,,
r98,VDACtest,10,g,null,null,1,r,h,5,,,
r98,VDACtest,11,g,true,656.5,1,r,v,1,,,
r98,VDACtest,12,g,true,660,1,r,h,2,,,
r98,VDACtest,13,g,true,507.29999999701977,2,g,v,0,,,
r98,VDACtest,14,g,true,972.7999999970198,1,r,v,4,,,
r98,VDACtest,15,g,true,813.8999999910593,2,g,v,1,,,
r98,VDACtest,16,g,true,675.7999999970198,2,g,v,1,,,
r98,VDACtest,17,g,true,580.4000000059605,1,r,v,0,,,
r98,VDACtest,18,g,true,763.7999999970198,1,r,h,3,,,
r98,VDACtest,19,g,false,715.6000000089407,1,r,v,3,,,
r98,VDACtest,20,g,true,997,1,r,h,4,,,
r98,VDACtest,21,g,null,null,1,r,v,1,,,
r98,VDACtest,22,g,true,918.9000000059605,2,g,h,4,,,
r98,VDACtest,23,g,null,null,1,r,v,1,,,
r98,VDACtest,24,g,true,800.6000000089407,1,r,h,5,,,
r98,VDACtest,25,g,true,781.5,2,g,h,3,,,
r98,VDACtest,26,g,false,963.5999999940395,2,g,h,0,,,
r98,VDACtest,27,g,false,612.3999999910593,1,r,h,0,,,
r98,VDACtest,28,g,true,756.6000000089407,2,g,v,5,,,
r98,VDACtest,29,g,null,null,2,g,v,4,,,
r98,VDACtest,30,g,true,990.7000000029802,1,r,v,0,,,
r98,VDACtest,31,g,true,722.2999999970198,2,g,h,3,,,
r98,VDACtest,32,g,true,703.7000000029802,2,g,v,1,,,
r98,VDACtest,33,g,true,659.8999999910593,2,g,v,4,,,
r98,VDACtest,34,g,true,828.0999999940395,2,g,h,4,,,
r98,VDACtest,35,g,null,null,2,g,h,2,,,
r98,VDACtest,36,g,true,753.2999999970198,2,g,h,5,,,
r98,VDACtest,37,g,true,812.7999999970198,1,r,h,1,,,
r98,VDACtest,38,g,true,629.0999999940395,1,r,v,5,,,
r98,VDACtest,39,g,false,763.5,1,r,h,2,,,
r98,VDACtest,40,g,false,779.8999999910593,2,g,h,1,,,
r98,VDACtest,41,g,true,900.4000000059605,1,r,v,4,,,
r98,VDACtest,42,g,true,718.2000000029802,2,g,v,0,,,
r98,VDACtest,43,g,true,659,2,g,v,3,,,
r98,VDACtest,44,g,true,885.4000000059605,2,g,h,1,,,
r98,VDACtest,45,g,null,null,1,r,h,2,,,
r98,VDACtest,46,g,true,991.7999999970198,2,g,v,4,,,
r98,VDACtest,47,g,true,660.5,1,r,v,5,,,
r98,VDACtest,48,g,true,812.2000000029802,1,r,h,3,,,
r98,VDACtest,49,g,true,581.3000000119209,2,g,v,3,,,
r98,VDACtest,50,g,true,581.6000000089407,2,g,h,3,,,
brk,brk,brk,brk,brk,brk,brk,brk,brk,brk,brk,brk,
r98,VDACtest,51,g,null,null,1,r,h,0,,,
r98,VDACtest,52,g,true,605.3999999910593,2,g,h,5,,,
r98,VDACtest,53,g,true,861.0999999940395,1,r,v,4,,,
r98,VDACtest,54,g,true,596.7999999970198,2,g,v,1,,,
r98,VDACtest,55,g,true,492.70000000298023,1,r,v,4,,,
r98,VDACtest,56,g,true,685.2999999970198,1,r,h,0,,,
r98,VDACtest,57,g,true,723.3999999910593,2,g,h,3,,,
r98,VDACtest,58,g,true,724.4000000059605,1,r,h,4,,,
r98,VDACtest,59,g,true,982,1,r,v,1,,,
r98,VDACtest,60,g,true,884.1000000089407,1,r,h,1,,,
r98,VDACtest,61,g,true,804.4000000059605,1,r,v,5,,,
r98,VDACtest,62,g,true,621.9000000059605,2,g,v,1,,,
r98,VDACtest,63,g,true,620.6999999880791,2,g,h,0,,,
r98,VDACtest,64,g,true,652.7999999970198,1,r,h,2,,,
r98,VDACtest,65,g,true,621.2000000029802,2,g,v,4,,,
r98,VDACtest,66,g,null,null,2,g,v,1,,,
r98,VDACtest,67,g,true,593.5,2,g,h,2,,,
r98,VDACtest,68,g,true,611.7999999970198,2,g,v,0,,,
r98,VDACtest,69,g,true,716.5,1,r,v,2,,,
r98,VDACtest,70,g,true,523.2999999970198,2,g,v,5,,,
r98,VDACtest,71,g,true,469,1,r,v,0,,,
r98,VDACtest,72,g,true,540.5999999940395,1,r,v,3,,,
r98,VDACtest,73,g,true,668.7999999970198,1,r,v,2,,,
r98,VDACtest,74,g,true,780.2999999970198,2,g,h,2,,,
r98,VDACtest,75,g,true,722.2999999970198,2,g,h,3,,,
r98,VDACtest,76,g,true,700.5999999940395,2,g,v,4,,,
r98,VDACtest,77,g,true,770.1999999880791,1,r,v,2,,,
r98,VDACtest,78,g,true,956.3000000119209,2,g,h,0,,,
r98,VDACtest,79,g,true,549.3000000119209,2,g,v,4,,,
r98,VDACtest,80,g,true,451.29999999701977,2,g,v,0,,,
r98,VDACtest,81,g,true,652.7999999970198,2,g,v,1,,,
r98,VDACtest,82,g,null,null,1,r,h,4,,,
r98,VDACtest,83,g,true,728.0999999940395,2,g,h,1,,,
r98,VDACtest,84,g,false,580.0999999940395,1,r,h,5,,,
r98,VDACtest,85,g,true,602.7999999970198,1,r,v,2,,,
r98,VDACtest,86,g,null,null,1,r,h,0,,,
r98,VDACtest,87,g,true,576.7000000029802,2,g,v,0,,,
r98,VDACtest,88,g,true,884.6000000089407,1,r,h,1,,,
r98,VDACtest,89,g,true,541.1000000089407,1,r,h,0,,,
r98,VDACtest,90,g,null,null,2,g,h,1,,,
r98,VDACtest,91,g,true,545.3000000119209,2,g,h,2,,,
r98,VDACtest,92,g,true,580.5,2,g,v,4,,,
r98,VDACtest,93,g,true,540.5,1,r,h,4,,,
r98,VDACtest,94,g,true,555.8999999910593,2,g,h,4,,,
r98,VDACtest,95,g,true,675.3000000119209,1,r,h,3,,,
r98,VDACtest,96,g,true,693.6999999880791,2,g,h,1,,,
r98,VDACtest,97,g,true,523.7999999970198,2,g,v,0,,,
r98,VDACtest,98,g,true,542,2,g,v,2,,,
r98,VDACtest,99,g,true,716.5999999940395,2,g,h,0,,,
r98,VDACtest,100,g,true,507.20000000298023,2,g,h,3,,,
brk,brk,brk,brk,brk,brk,brk,brk,brk,brk,brk,brk,
r98,VDACtest,101,g,null,null,1,r,v,1,,,
r98,VDACtest,102,g,true,488.79999999701977,1,r,v,0,,,
r98,VDACtest,103,g,true,523.9000000059605,1,r,v,5,,,
r98,VDACtest,104,g,true,612.7999999970198,1,r,v,3,,,
r98,VDACtest,105,g,true,859.8000000119209,1,r,h,4,,,
r98,VDACtest,106,g,true,548.6000000089407,2,g,h,4,,,
r98,VDACtest,107,g,true,641.0999999940395,2,g,h,0,,,
r98,VDACtest,108,g,null,null,2,g,v,1,,,
r98,VDACtest,109,g,true,514,2,g,h,0,,,
r98,VDACtest,110,g,false,757.0999999940395,1,r,v,2,,,
r98,VDACtest,111,g,true,661.2999999970198,2,g,h,5,,,
r98,VDACtest,112,g,true,547.6000000089407,2,g,v,5,,,
r98,VDACtest,113,g,true,597.5,1,r,h,0,,,
r98,VDACtest,114,g,true,770.7999999970198,1,r,h,2,,,
r98,VDACtest,115,g,true,649.5,1,r,h,3,,,
r98,VDACtest,116,g,true,492.90000000596046,1,r,h,3,,,
r98,VDACtest,117,g,true,876.5,2,g,h,1,,,
r98,VDACtest,118,g,true,732.5,1,r,h,4,,,
r98,VDACtest,119,g,true,507.6000000089407,1,r,v,5,,,
r98,VDACtest,120,g,true,502.09999999403954,2,g,h,5,,,
r98,VDACtest,121,g,true,588.5999999940395,2,g,v,5,,,
r98,VDACtest,122,g,true,724.5999999940395,1,r,h,1,,,
r98,VDACtest,123,g,true,523.6999999880791,1,r,h,4,,,
r98,VDACtest,124,g,true,868.9000000059605,1,r,v,2,,,
r98,VDACtest,125,g,true,673.3000000119209,1,r,h,2,,,
r98,VDACtest,126,g,true,612.2999999970198,2,g,h,2,,,
r98,VDACtest,127,g,true,886.1000000089407,1,r,v,3,,,
r98,VDACtest,128,g,true,692.5,1,r,v,1,,,
r98,VDACtest,129,g,true,908.5999999940395,1,r,h,5,,,
r98,VDACtest,130,g,true,772.0999999940395,1,r,h,5,,,
r98,VDACtest,131,g,true,492.90000000596046,2,g,h,5,,,
r98,VDACtest,132,g,true,587.4000000059605,2,g,h,1,,,
r98,VDACtest,133,g,true,603.4000000059605,1,r,v,4,,,
r98,VDACtest,134,g,true,660.7000000029802,1,r,h,0,,,
r98,VDACtest,135,g,true,588.6000000089407,1,r,v,0,,,
r98,VDACtest,136,g,true,554.5999999940395,2,g,v,2,,,
r98,VDACtest,137,g,true,532.7999999970198,1,r,v,1,,,
r98,VDACtest,138,g,true,572.0999999940395,1,r,h,2,,,
r98,VDACtest,139,g,true,612.2000000029802,2,g,v,2,,,
r98,VDACtest,140,g,null,null,1,r,h,5,,,
r98,VDACtest,141,g,true,567.3999999910593,2,g,h,3,,,
r98,VDACtest,142,g,true,787.7000000029802,1,r,h,1,,,
r98,VDACtest,143,g,true,603.5,2,g,h,2,,,
r98,VDACtest,144,g,true,660.2999999970198,1,r,v,1,,,
r98,VDACtest,145,g,true,549,2,g,v,1,,,
r98,VDACtest,146,g,true,489.09999999403954,2,g,v,3,,,
r98,VDACtest,147,g,true,851.2999999970198,2,g,h,4,,,
r98,VDACtest,148,g,true,643.5,2,g,v,5,,,
r98,VDACtest,149,g,true,692.5,1,r,h,3,,,
r98,VDACtest,150,g,true,546.6000000089407,1,r,v,0,,,
brk,brk,brk,brk,brk,brk,brk,brk,brk,brk,brk,brk,
r98,VDACtest,151,g,true,674.2000000029802,2,g,v,2,,,
r98,VDACtest,152,g,true,708.2000000029802,2,g,h,4,,,
r98,VDACtest,153,g,true,541.4000000059605,2,g,v,4,,,
r98,VDACtest,154,g,true,589.2000000029802,2,g,v,3,,,
r98,VDACtest,155,g,true,564.7999999970198,1,r,v,3,,,
r98,VDACtest,156,g,true,429,2,g,v,3,,,
r98,VDACtest,157,g,true,445.09999999403954,2,g,v,4,,,
r98,VDACtest,158,g,true,475.59999999403954,2,g,v,3,,,
r98,VDACtest,159,g,true,419.5,2,g,v,5,,,
r98,VDACtest,160,g,true,579.2999999970198,1,r,h,3,,,
r98,VDACtest,161,g,true,468.29999999701977,1,r,v,5,,,
r98,VDACtest,162,g,true,764.8999999910593,1,r,h,1,,,
r98,VDACtest,163,g,true,692.7000000029802,2,g,v,2,,,
r98,VDACtest,164,g,true,587.0999999940395,1,r,h,3,,,
r98,VDACtest,165,g,true,636.0999999940395,1,r,h,4,,,
r98,VDACtest,166,g,true,701.2000000029802,2,g,v,2,,,
r98,VDACtest,167,g,true,693.1999999880791,2,g,h,0,,,
r98,VDACtest,168,g,true,613.6999999880791,2,g,h,2,,,
r98,VDACtest,169,g,null,null,1,r,h,5,,,
r98,VDACtest,170,g,true,560.5,1,r,h,4,,,
r98,VDACtest,171,g,true,473.70000000298023,2,g,v,0,,,
r98,VDACtest,172,g,true,934.2000000029802,1,r,v,1,,,
r98,VDACtest,173,g,true,517.1999999880791,2,g,h,5,,,
r98,VDACtest,174,g,true,500.29999999701977,1,r,v,0,,,
r98,VDACtest,175,g,true,820.7999999970198,2,g,h,3,,,
r98,VDACtest,176,g,true,546.9000000059605,1,r,v,4,,,
r98,VDACtest,177,g,true,678.0999999940395,1,r,h,2,,,
r98,VDACtest,178,g,true,699.4000000059605,2,g,h,4,,,
r98,VDACtest,179,g,true,548.4000000059605,2,g,h,4,,,
r98,VDACtest,180,g,null,null,1,r,h,1,,,
r98,VDACtest,181,g,true,448.69999998807907,2,g,h,2,,,
r98,VDACtest,182,g,true,587.3000000119209,2,g,v,3,,,
r98,VDACtest,183,g,true,485.90000000596046,2,g,v,2,,,
r98,VDACtest,184,g,true,467.3999999910593,1,r,v,3,,,
r98,VDACtest,185,g,true,445.40000000596046,2,g,v,0,,,
r98,VDACtest,186,g,true,539.9000000059605,1,r,v,4,,,
r98,VDACtest,187,g,true,690.7999999970198,1,r,h,1,,,
r98,VDACtest,188,g,true,475.5,1,r,v,5,,,
r98,VDACtest,189,g,true,507.8999999910593,1,r,v,0,,,
r98,VDACtest,190,g,true,714,1,r,h,0,,,
r98,VDACtest,191,g,false,669,2,g,h,4,,,
r98,VDACtest,192,g,true,524.3999999910593,1,r,v,5,,,
r98,VDACtest,193,g,true,532.4000000059605,1,r,v,4,,,
r98,VDACtest,194,g,true,444.70000000298023,2,g,v,5,,,
r98,VDACtest,195,g,true,628.7999999970198,1,r,v,3,,,
r98,VDACtest,196,g,true,417.90000000596046,1,r,v,4,,,
r98,VDACtest,197,g,true,396.70000000298023,2,g,v,5,,,
r98,VDACtest,198,g,true,507.69999998807907,2,g,v,3,,,
r98,VDACtest,199,g,true,517.4000000059605,2,g,h,5,,,
r98,VDACtest,200,g,true,580,2,g,h,0,,,
r98,RSVPtrain,0,g,null,null,0,b,,0,3,0,
r98,RSVPtrain,0,g,false,1112.699999988079,2,g,,1,0,1,
r98,RSVPtrain,0,g,true,884.7999999970198,1,r,,0,0,2,
r98,RSVPtrain,0,g,true,777.2999999970198,1,r,,3,2,1,
r98,RSVPtrain,0,g,true,759,2,g,,3,1,1,
r98,RSVPtrain,0,g,true,880.2999999970198,2,g,,3,0,1,
r98,RSVPtrain,0,g,false,566.2999999970198,2,g,,2,2,2,
r98,RSVPtrain,0,g,true,759.5999999940395,0,b,,3,3,0,
r98,RSVPtrain,0,g,true,574.7999999970198,0,b,,1,3,0,
r98,RSVPtrain,0,g,false,785.9000000059605,1,r,,1,1,2,
r98,RSVPtest,1,g,true,666.2000000029802,1,r,,1,0,1,
r98,RSVPtest,2,g,true,746.2000000029802,1,r,,1,2,1,
r98,RSVPtest,3,g,true,696.5,2,g,,3,1,1,
r98,RSVPtest,4,g,true,775.1000000089407,0,b,,3,3,0,
r98,RSVPtest,5,g,true,765.9000000059605,1,r,,3,0,1,
r98,RSVPtest,6,g,false,598.2000000029802,2,g,,1,1,2,
r98,RSVPtest,7,g,false,711.3999999910593,0,b,,1,3,0,
r98,RSVPtest,8,g,false,1007.2999999970198,1,r,,1,2,1,
r98,RSVPtest,9,g,true,1487.2999999970198,1,r,,3,0,1,
r98,RSVPtest,10,g,true,597.7000000029802,1,r,,3,2,1,
r98,RSVPtest,11,g,true,718.7000000029802,0,b,,3,3,0,
r98,RSVPtest,12,g,false,1318,2,g,,0,2,1,
r98,RSVPtest,13,g,true,1426.6000000089407,1,r,,1,2,1,
r98,RSVPtest,14,g,false,1542.699999988079,2,g,,2,0,1,
r98,RSVPtest,15,g,true,824.5,2,g,,0,0,2,
r98,RSVPtest,16,g,true,846,2,g,,2,0,1,
r98,RSVPtest,17,g,false,799.7999999970198,1,r,,3,2,1,
r98,RSVPtest,18,g,true,871.2000000029802,2,g,,3,0,1,
r98,RSVPtest,19,g,true,815.0999999940395,0,b,,3,3,0,
r98,RSVPtest,20,g,true,1198,2,g,,1,0,1,
r98,RSVPtest,21,g,true,960.1000000089407,1,r,,0,0,2,
r98,RSVPtest,22,g,false,830.1000000089407,2,g,,3,0,1,
r98,RSVPtest,23,g,true,1165.9000000059605,2,g,,3,1,1,
r98,RSVPtest,24,g,true,837.1000000089407,1,r,,3,2,1,
r98,RSVPtest,25,g,true,957.7000000029802,0,b,,2,3,0,
r98,RSVPtest,26,g,true,832.2999999970198,1,r,,2,2,2,
r98,RSVPtest,27,g,true,703.2000000029802,2,g,,2,2,2,
r98,RSVPtest,28,g,true,679.7000000029802,0,b,,1,3,0,
r98,RSVPtest,29,g,true,742,2,g,,0,1,1,
r98,RSVPtest,30,g,false,774.8999999910593,2,g,,3,1,1,
r98,RSVPtest,31,g,true,1093.5999999940395,0,b,,3,3,0,
r98,RSVPtest,32,g,true,951.4000000059605,0,b,,2,3,0,
r98,RSVPtest,33,g,true,823.9000000059605,1,r,,2,2,2,
r98,RSVPtest,34,g,false,1495.4000000059605,2,g,,0,2,1,
r98,RSVPtest,35,g,false,797,0,b,,3,3,0,
r98,RSVPtest,36,g,true,655,1,r,,2,0,1,
r98,RSVPtest,37,g,true,1038.1000000089407,0,b,,1,3,0,
r98,RSVPtest,38,g,true,1261.4000000059605,0,b,,0,3,0,
r98,RSVPtest,39,g,true,1029.4000000059605,2,g,,0,2,1,
r98,RSVPtest,40,g,true,731.3000000119209,0,b,,1,3,0,
r98,RSVPtest,41,g,true,566.6000000089407,1,r,,1,1,2,
r98,RSVPtest,42,g,true,996.9000000059605,2,g,,3,1,1,
r98,RSVPtest,43,g,false,831.5999999940395,0,b,,3,3,0,
r98,RSVPtest,44,g,false,901.5,2,g,,3,2,1,
r98,RSVPtest,45,g,true,970.9000000059605,2,g,,3,1,1,
r98,RSVPtest,46,g,true,862.0999999940395,1,r,,3,0,1,
r98,RSVPtest,47,g,true,1414.3999999910593,0,b,,2,3,0,
r98,RSVPtest,48,g,true,948.5,0,b,,3,3,0,
r98,RSVPtest,49,g,true,1454.5,0,b,,3,3,0,
r98,RSVPtest,50,g,false,1728,1,r,,0,0,2,
r98,RSVPtest,51,g,true,1086.2000000029802,1,r,,3,1,1,
r98,RSVPtest,52,g,true,853.7999999970198,1,r,,3,2,1,
r98,RSVPtest,53,g,false,1030,0,b,,3,3,0,
r98,RSVPtest,54,g,false,1639.7999999970198,1,r,,0,2,1,
r98,RSVPtest,55,g,true,1548.2000000029802,1,r,,3,1,1,
r98,RSVPtest,56,g,false,1317.7000000029802,1,r,,0,0,2,
r98,RSVPtest,57,g,true,476.20000000298023,0,b,,2,3,0,
r98,RSVPtest,58,g,true,1293.1000000089407,2,g,,3,0,1,
r98,RSVPtest,59,g,true,1100.0999999940395,2,g,,2,1,1,
r98,RSVPtest,60,g,true,1022.3999999910593,1,r,,2,1,1,
brk,brk,brk,brk,brk,brk,brk,brk,brk,brk,brk,brk,
r98,RSVPtest,61,g,false,993.1999999880791,1,r,,0,1,1,
r98,RSVPtest,62,g,true,884.5,2,g,,3,2,1,
r98,RSVPtest,63,g,true,859.5,2,g,,0,2,1,
r98,RSVPtest,64,g,true,1838,2,g,,0,0,2,
r98,RSVPtest,65,g,false,952.5,1,r,,1,1,2,
r98,RSVPtest,66,g,true,1189.2999999970198,1,r,,3,0,1,
r98,RSVPtest,67,g,true,1068.2999999970198,0,b,,0,3,0,
r98,RSVPtest,68,g,true,861.2000000029802,1,r,,2,1,1,
r98,RSVPtest,69,g,true,1158.5,2,g,,3,0,1,
r98,RSVPtest,70,g,true,1030.0999999940395,2,g,,0,2,1,
r98,RSVPtest,71,g,true,694,1,r,,0,1,1,
r98,RSVPtest,72,g,true,663.7000000029802,0,b,,0,3,0,
r98,RSVPtest,73,g,false,1197.199999988079,1,r,,0,2,1,
r98,RSVPtest,74,g,true,837.5,0,b,,3,3,0,
r98,RSVPtest,75,g,true,911.7000000029802,2,g,,3,2,1,
r98,RSVPtest,76,g,true,808.2999999970198,2,g,,3,0,1,
r98,RSVPtest,77,g,true,1565.9000000059605,1,r,,2,1,1,
r98,RSVPtest,78,g,true,1127.0999999940395,0,b,,0,3,0,
r98,RSVPtest,79,g,true,639.0999999940395,0,b,,2,3,0,
r98,RSVPtest,80,g,true,820.8999999910593,1,r,,3,1,1,
r98,RSVPtest,81,g,false,1317.2000000029802,1,r,,3,0,1,
r98,RSVPtest,82,g,true,925.1999999880791,2,g,,2,2,2,
r98,RSVPtest,83,g,true,837.1000000089407,2,g,,1,1,2,
r98,RSVPtest,84,g,true,1060.699999988079,2,g,,3,0,1,
r98,RSVPtest,85,g,true,893.7999999970198,1,r,,3,0,1,
r98,RSVPtest,86,g,true,1190.2000000029802,1,r,,0,1,1,
r98,RSVPtest,87,g,true,1070.2999999970198,0,b,,2,3,0,
r98,RSVPtest,88,g,true,923.7999999970198,2,g,,3,1,1,
r98,RSVPtest,89,g,false,895.8999999910593,1,r,,3,0,1,
r98,RSVPtest,90,g,false,1516.8999999910593,1,r,,3,2,1,
r98,RSVPtest,91,g,true,1228.199999988079,1,r,,3,2,1,
r98,RSVPtest,92,g,null,null,2,g,,1,1,2,
r98,RSVPtest,93,g,true,926.5999999940395,1,r,,3,1,1,
r98,RSVPtest,94,g,true,1197.5,2,g,,3,2,1,
r98,RSVPtest,95,g,true,909.5,1,r,,3,1,1,
r98,RSVPtest,96,g,true,1172.6000000089407,0,b,,1,3,0,
r98,RSVPtest,97,g,true,1187.5,2,g,,1,2,1,
r98,RSVPtest,98,g,true,916.7999999970198,1,r,,0,2,1,
r98,RSVPtest,99,g,true,1734.5999999940395,1,r,,2,0,1,
r98,RSVPtest,100,g,true,1692.5999999940395,2,g,,0,0,2,
r98,RSVPtest,101,g,null,null,0,b,,3,3,0,
r98,RSVPtest,102,g,true,775.2000000029802,0,b,,1,3,0,
r98,RSVPtest,103,g,true,1204.5999999940395,2,g,,3,2,1,
r98,RSVPtest,104,g,false,1342.5,1,r,,1,2,1,
r98,RSVPtest,105,g,true,740.7999999970198,1,r,,0,1,1,
r98,RSVPtest,106,g,true,803.8000000119209,2,g,,2,0,1,
r98,RSVPtest,107,g,true,789,2,g,,0,2,1,
r98,RSVPtest,108,g,false,900,1,r,,3,0,1,
r98,RSVPtest,109,g,true,1225.1000000089407,1,r,,3,2,1,
r98,RSVPtest,110,g,true,914.7000000029802,1,r,,2,0,1,
r98,RSVPtest,111,g,true,771.5,1,r,,2,0,1,
r98,RSVPtest,112,g,true,645.2999999970198,2,g,,2,0,1,
r98,RSVPtest,113,g,true,1645.3999999910593,1,r,,3,1,1,
r98,RSVPtest,114,g,true,704.7999999970198,2,g,,3,0,1,
r98,RSVPtest,115,g,true,982.0999999940395,1,r,,1,1,2,
r98,RSVPtest,116,g,true,810.5,0,b,,1,3,0,
r98,RSVPtest,117,g,false,1165.4000000059605,1,r,,1,1,2,
r98,RSVPtest,118,g,true,747,0,b,,1,3,0,
r98,RSVPtest,119,g,true,1291.7999999970198,1,r,,3,0,1,
r98,RSVPtest,120,g,true,1538.4000000059605,0,b,,3,3,0,
brk,brk,brk,brk,brk,brk,brk,brk,brk,brk,brk,brk,
r98,RSVPtest,121,g,true,637.0999999940395,2,g,,2,0,1,
r98,RSVPtest,122,g,true,685.0999999940395,1,r,,0,0,2,
r98,RSVPtest,123,g,true,764.9000000059605,1,r,,0,2,1,
r98,RSVPtest,124,g,true,765,1,r,,3,2,1,
r98,RSVPtest,125,g,true,1732.7999999970198,0,b,,3,3,0,
r98,RSVPtest,126,g,true,693.9000000059605,1,r,,2,0,1,
r98,RSVPtest,127,g,true,827.7999999970198,2,g,,0,1,1,
r98,RSVPtest,128,g,true,676.1000000089407,0,b,,3,3,0,
r98,RSVPtest,129,g,false,731.5999999940395,2,g,,0,1,1,
r98,RSVPtest,130,g,false,734.2999999970198,2,g,,2,1,1,
r98,RSVPtest,131,g,false,1332.2999999970198,2,g,,2,2,2,
r98,RSVPtest,132,g,true,1661.300000011921,2,g,,3,2,1,
r98,RSVPtest,133,g,true,1397.7000000029802,0,b,,2,3,0,
r98,RSVPtest,134,g,true,1045.9000000059605,2,g,,3,2,1,
r98,RSVPtest,135,g,true,1629.5,2,g,,0,0,2,
r98,RSVPtest,136,g,true,940.5999999940395,0,b,,0,3,0,
r98,RSVPtest,137,g,true,834.7000000029802,1,r,,3,0,1,
r98,RSVPtest,138,g,true,1731,0,b,,3,3,0,
r98,RSVPtest,139,g,false,1282.9000000059605,2,g,,1,0,1,
r98,RSVPtest,140,g,true,1803.4000000059605,1,r,,2,2,2,
r98,RSVPtest,141,g,false,1278.2999999970198,1,r,,0,2,1,
r98,RSVPtest,142,g,true,1187.9000000059605,0,b,,2,3,0,
r98,RSVPtest,143,g,true,1092,2,g,,2,2,2,
r98,RSVPtest,144,g,true,1117.4000000059605,0,b,,0,3,0,
r98,RSVPtest,145,g,true,1052.7999999970198,2,g,,1,1,2,
r98,RSVPtest,146,g,true,1332.4000000059605,2,g,,1,0,1,
r98,RSVPtest,147,g,false,1292.5999999940395,2,g,,3,1,1,
r98,RSVPtest,148,g,true,1195.2000000029802,0,b,,3,3,0,
r98,RSVPtest,149,g,true,1659.8999999910593,2,g,,2,1,1,
r98,RSVPtest,150,g,true,861.2999999970198,1,r,,2,1,1,
r98,RSVPtest,151,g,true,675.2999999970198,0,b,,1,3,0,
r98,RSVPtest,152,g,true,1580.7999999970198,1,r,,3,0,1,
r98,RSVPtest,153,g,true,571.7000000029802,1,r,,2,1,1,
r98,RSVPtest,154,g,true,938,0,b,,0,3,0,
r98,RSVPtest,155,g,false,910.5,2,g,,3,0,1,
r98,RSVPtest,156,g,false,965.6000000089407,1,r,,3,1,1,
r98,RSVPtest,157,g,false,684.6000000089407,0,b,,1,3,0,
r98,RSVPtest,158,g,true,1276.699999988079,1,r,,1,2,1,
r98,RSVPtest,159,g,false,1356.2999999970198,1,r,,3,2,1,
r98,RSVPtest,160,g,true,763,0,b,,2,3,0,
r98,RSVPtest,161,g,true,1483.5999999940395,0,b,,3,3,0,
r98,RSVPtest,162,g,false,1731.7999999970198,2,g,,1,0,1,
r98,RSVPtest,163,g,true,1838.7999999970198,2,g,,1,2,1,
r98,RSVPtest,164,g,true,1068.800000011921,2,g,,3,2,1,
r98,RSVPtest,165,g,true,1435.9000000059605,2,g,,0,1,1,
r98,RSVPtest,166,g,true,1276.2000000029802,2,g,,1,0,1,
r98,RSVPtest,167,g,true,1898.7999999970198,2,g,,3,0,1,
r98,RSVPtest,168,g,true,1197.5,2,g,,3,1,1,
r98,RSVPtest,169,g,false,1142.5999999940395,1,r,,0,0,2,
r98,RSVPtest,170,g,true,1203.2000000029802,2,g,,1,1,2,
r98,RSVPtest,171,g,true,1425.4000000059605,0,b,,0,3,0,
r98,RSVPtest,172,g,null,null,0,b,,1,3,0,
r98,RSVPtest,173,g,true,648.3000000119209,1,r,,1,1,2,
r98,RSVPtest,174,g,true,1446.199999988079,2,g,,3,1,1,
r98,RSVPtest,175,g,false,1755.0999999940395,0,b,,3,3,0,
r98,RSVPtest,176,g,false,1083.2999999970198,0,b,,3,3,0,
r98,RSVPtest,177,g,true,500.40000000596046,2,g,,0,1,1,
r98,RSVPtest,178,g,true,1636.5999999940395,2,g,,1,2,1,
r98,RSVPtest,179,g,true,547.4000000059605,1,r,,2,2,2,
r98,RSVPtest,180,g,true,1539.300000011921,2,g,,3,2,1,
brk,brk,brk,brk,brk,brk,brk,brk,brk,brk,brk,brk,
r98,RSVPtest,181,g,true,868.6000000089407,2,g,,0,0,2,
r98,RSVPtest,182,g,true,577.5999999940395,2,g,,0,1,1,
r98,RSVPtest,183,g,true,851.5999999940395,1,r,,0,0,2,
r98,RSVPtest,184,g,true,715.4000000059605,1,r,,1,0,1,
r98,RSVPtest,185,g,true,586.2999999970198,2,g,,0,0,2,
r98,RSVPtest,186,g,true,452.1000000089407,2,g,,2,1,1,
r98,RSVPtest,187,g,true,851.5,0,b,,3,3,0,
r98,RSVPtest,188,g,true,747.1000000089407,0,b,,0,3,0,
r98,RSVPtest,189,g,false,805.2999999970198,1,r,,0,1,1,
r98,RSVPtest,190,g,true,868.8999999910593,2,g,,3,1,1,
r98,RSVPtest,191,g,true,1347.7999999970198,1,r,,3,2,1,
r98,RSVPtest,192,g,true,731.5,1,r,,2,2,2,
r98,RSVPtest,193,g,true,786.6000000089407,2,g,,3,0,1,
r98,RSVPtest,194,g,true,1801,2,g,,1,0,1,
r98,RSVPtest,195,g,true,789.3999999910593,1,r,,1,0,1,
r98,RSVPtest,196,g,true,762.7999999970198,0,b,,2,3,0,
r98,RSVPtest,197,g,true,980.6000000089407,2,g,,1,2,1,
r98,RSVPtest,198,g,true,1082.300000011921,1,r,,1,1,2,
r98,RSVPtest,199,g,null,null,2,g,,3,1,1,
r98,RSVPtest,200,g,true,707.8999999910593,1,r,,1,0,1,
r98,RSVPtest,201,g,true,1403.2000000029802,1,r,,3,1,1,
r98,RSVPtest,202,g,true,1122.5999999940395,0,b,,2,3,0,
r98,RSVPtest,203,g,false,1267.8999999910593,2,g,,1,2,1,
r98,RSVPtest,204,g,true,1146.199999988079,1,r,,1,0,1,
r98,RSVPtest,205,g,false,493.8999999910593,1,r,,3,1,1,
r98,RSVPtest,206,g,true,1305.5,2,g,,3,1,1,
r98,RSVPtest,207,g,true,899.6999999880791,1,r,,2,1,1,
r98,RSVPtest,208,g,true,785.7000000029802,1,r,,3,0,1,
r98,RSVPtest,209,g,true,532.3999999910593,0,b,,1,3,0,
r98,RSVPtest,210,g,true,739.9000000059605,0,b,,2,3,0,
r98,RSVPtest,211,g,true,1004.3999999910593,1,r,,3,2,1,
r98,RSVPtest,212,g,true,423,2,g,,2,1,1,
r98,RSVPtest,213,g,true,434.8999999910593,2,g,,2,1,1,
r98,RSVPtest,214,g,true,691.1000000089407,2,g,,3,2,1,
r98,RSVPtest,215,g,false,929,0,b,,0,3,0,
r98,RSVPtest,216,g,true,915.2999999970198,0,b,,3,3,0,
r98,RSVPtest,217,g,true,1289.0999999940395,1,r,,2,0,1,
r98,RSVPtest,218,g,true,508.59999999403954,2,g,,2,0,1,
r98,RSVPtest,219,g,true,702.4000000059605,0,b,,3,3,0,
r98,RSVPtest,220,g,true,1523.699999988079,0,b,,0,3,0,
r98,RSVPtest,221,g,true,1488.7999999970198,2,g,,3,2,1,
r98,RSVPtest,222,g,true,849.7000000029802,2,g,,3,2,1,
r98,RSVPtest,223,g,true,682.5,0,b,,3,3,0,
r98,RSVPtest,224,g,true,1073.5999999940395,1,r,,0,2,1,
r98,RSVPtest,225,g,true,1226.0999999940395,2,g,,2,2,2,
r98,RSVPtest,226,g,true,609.2999999970198,2,g,,1,2,1,
r98,RSVPtest,227,g,true,776.5,1,r,,0,1,1,
r98,RSVPtest,228,g,false,722.5,2,g,,2,2,2,
r98,RSVPtest,229,g,true,925.7999999970198,0,b,,0,3,0,
r98,RSVPtest,230,g,true,696.2999999970198,1,r,,1,2,1,
r98,RSVPtest,231,g,true,801.2999999970198,1,r,,3,1,1,
r98,RSVPtest,232,g,true,940.5999999940395,2,g,,1,1,2,
r98,RSVPtest,233,g,true,973.2999999970198,2,g,,3,0,1,
r98,RSVPtest,234,g,true,1129.5,2,g,,3,0,1,
r98,RSVPtest,235,g,true,820.8000000119209,0,b,,3,3,0,
r98,RSVPtest,236,g,false,812.5,1,r,,1,0,1,
r98,RSVPtest,237,g,false,1705.800000011921,1,r,,3,2,1,
r98,RSVPtest,238,g,false,1301.7000000029802,1,r,,3,1,1,
r98,RSVPtest,239,g,false,843.4000000059605,1,r,,2,2,2,
r98,RSVPtest,240,g,true,753.9000000059605,1,r,,3,1,1,
subID,trialType,trialNum,cntBalance,correct,rt,rwdType,tgtCol,tgtDir,tgtPos,colPos,colMatch,
13z,VDACtrain,0,g,true,934.7000000029802,2,g,h,5,,,
13z,VDACtrain,0,g,true,709,1,r,v,3,,,
13z,VDACtrain,0,g,null,null,2,g,v,0,,,
13z,VDACtrain,0,g,true,909.5,1,r,h,0,,,
13z,VDACtrain,0,g,true,995.8000000044703,2,g,h,3,,,
13z,VDACtrain,0,g,null,null,2,g,v,2,,,
13z,VDACtrain,0,g,null,null,1,r,v,4,,,
13z,VDACtrain,0,g,true,594.1999999955297,1,r,h,2,,,
13z,VDACtrain,0,g,null,null,2,g,v,5,,,
13z,VDACtrain,0,g,true,878.8999999985099,1,r,h,1,,,
13z,VDACtest,1,g,true,708.1000000014901,1,r,v,4,,,
13z,VDACtest,2,g,false,546.1999999955297,2,g,h,4,,,
13z,VDACtest,3,g,null,null,2,g,v,4,,,
13z,VDACtest,4,g,true,630.3999999985099,1,r,v,2,,,
13z,VDACtest,5,g,false,802.3000000044703,1,r,h,0,,,
13z,VDACtest,6,g,true,811.9000000059605,2,g,h,1,,,
13z,VDACtest,7,g,true,675.5,2,g,h,3,,,
13z,VDACtest,8,g,null,null,1,r,h,3,,,
13z,VDACtest,9,g,true,727.2000000029802,1,r,v,2,,,
13z,VDACtest,10,g,true,819.2999999970198,2,g,h,3,,,
13z,VDACtest,11,g,true,676.5,2,g,v,2,,,
13z,VDACtest,12,g,true,597.1000000014901,2,g,v,2,,,
13z,VDACtest,13,g,true,692.7999999970198,2,g,h,1,,,
13z,VDACtest,14,g,true,699.8000000044703,1,r,h,2,,,
13z,VDACtest,15,g,true,629.6000000014901,2,g,v,4,,,
13z,VDACtest,16,g,true,701.0999999940395,1,r,v,0,,,
13z,VDACtest,17,g,true,611.5,2,g,v,1,,,
13z,VDACtest,18,g,true,574.1000000014901,2,g,h,3,,,
13z,VDACtest,19,g,false,877.2999999970198,2,g,h,5,,,
13z,VDACtest,20,g,null,null,1,r,h,4,,,
13z,VDACtest,21,g,true,648.1000000014901,1,r,v,0,,,
13z,VDACtest,22,g,true,643.5999999940395,2,g,h,3,,,
13z,VDACtest,23,g,true,549.7999999970198,2,g,v,0,,,
13z,VDACtest,24,g,false,756.2000000029802,2,g,v,5,,,
13z,VDACtest,25,g,true,892.7999999970198,2,g,h,0,,,
13z,VDACtest,26,g,null,null,1,r,h,2,,,
13z,VDACtest,27,g,true,681.1999999955297,2,g,h,0,,,
13z,VDACtest,28,g,true,700.8999999985099,1,r,h,5,,,
13z,VDACtest,29,g,true,788.3999999985099,1,r,h,5,,,
13z,VDACtest,30,g,true,613.6000000014901,2,g,h,0,,,
13z,VDACtest,31,g,true,525.2000000029802,2,g,h,5,,,
13z,VDACtest,32,g,true,684.6000000014901,2,g,v,5,,,
13z,VDACtest,33,g,true,924.6999999955297,2,g,h,1,,,
13z,VDACtest,34,g,true,676.9000000059605,2,g,v,0,,,
13z,VDACtest,35,g,true,724.5,1,r,v,2,,,
13z,VDACtest,36,g,null,null,1,r,h,1,,,
13z,VDACtest,37,g,false,808.7000000029802,1,r,h,1,,,
13z,VDACtest,38,g,true,636.1999999955297,2,g,v,4,,,
13z,VDACtest,39,g,true,652.5999999940395,1,r,v,1,,,
13z,VDACtest,40,g,true,693.2000000029802,1,r,h,4,,,
13z,VDACtest,41,g,false,699.2999999970198,2,g,h,0,,,
13z,VDACtest,42,g,true,501,2,g,h,4,,,
13z,VDACtest,43,g,true,572.5,2,g,h,4,,,
13z,VDACtest,44,g,true,570.8999999985099,1,r,v,5,,,
13z,VDACtest,45,g,true,485,2,g,v,5,,,
13z,VDACtest,46,g,true,725.2999999970198,1,r,h,3,,,
13z,VDACtest,47,g,true,716.2000000029802,1,r,v,1,,,
13z,VDACtest,48,g,true,620.4000000059605,1,r,v,0,,,
13z,VDACtest,49,g,true,660.7999999970198,1,r,h,1,,,
13z,VDACtest,50,g,true,652.1000000014901,2,g,v,4,,,
brk,brk,brk,brk,brk,brk,brk,brk,brk,brk,brk,brk,
13z,VDACtest,51,g,false,635.2000000029802,2,g,h,5,,,
13z,VDACtest,52,g,true,714.5,2,g,v,3,,,
13z,VDACtest,53,g,true,547.2000000029802,2,g,v,3,,,
13z,VDACtest,54,g,true,548.1999999955297,1,r,h,0,,,
13z,VDACtest,55,g,true,573,2,g,v,5,,,
13z,VDACtest,56,g,false,691.2000000029802,1,r,h,2,,,
13z,VDACtest,57,g,true,796.5999999940395,2,g,h,5,,,
13z,VDACtest,58,g,true,682.6000000014901,1,r,h,3,,,
13z,VDACtest,59,g,true,612.8999999985099,2,g,h,5,,,
13z,VDACtest,60,g,true,596.6000000014901,1,r,h,1,,,
13z,VDACtest,61,g,true,682.6000000014901,1,r,v,5,,,
13z,VDACtest,62,g,true,635,2,g,v,1,,,
13z,VDACtest,63,g,true,517.8999999985099,1,r,v,3,,,
13z,VDACtest,64,g,true,590.7000000029802,1,r,v,5,,,
13z,VDACtest,65,g,true,604.6999999955297,1,r,h,5,,,
13z,VDACtest,66,g,true,556.8000000044703,2,g,v,1,,,
13z,VDACtest,67,g,true,715.2999999970198,1,r,v,0,,,
13z,VDACtest,68,g,true,771.6999999955297,2,g,h,2,,,
13z,VDACtest,69,g,true,708.7000000029802,1,r,h,0,,,
13z,VDACtest,70,g,true,675,1,r,v,5,,,
13z,VDACtest,71,g,null,null,2,g,v,4,,,
13z,VDACtest,72,g,true,871.1000000014901,1,r,h,4,,,
13z,VDACtest,73,g,true,524.1999999955297,1,r,v,3,,,
13z,VDACtest,74,g,null,null,1,r,h,1,,,
13z,VDACtest,75,g,true,659.3999999985099,1,r,v,5,,,
13z,VDACtest,76,g,true,531.3999999985099,1,r,v,1,,,
13z,VDACtest,77,g,true,636.7999999970198,1,r,h,4,,,
13z,VDACtest,78,g,true,586.3999999985099,2,g,v,5,,,
13z,VDACtest,79,g,true,611.6000000014901,1,r,v,0,,,
13z,VDACtest,80,g,true,762.8000000044703,2,g,h,1,,,
13z,VDACtest,81,g,true,501.20000000298023,1,r,v,4,,,
