subID,trialType,trialNum,cntBalance,correct,rt,rwdType,tgtCol,tgtDir,tgtPos,colPos,colMatch,
n9d,VDACtrain,0,r,false,944.1999999992549,1,g,h,5,,,
n9d,VDACtrain,0,r,true,669,1,g,v,5,,,
n9d,VDACtrain,0,r,null,null,2,r,h,2,,,
n9d,VDACtrain,0,r,true,646.6999999992549,1,g,v,2,,,
n9d,VDACtrain,0,r,false,554,1,g,h,3,,,
n9d,VDACtrain,0,r,true,562.3000000007451,1,g,v,0,,,
n9d,VDACtrain,0,r,true,412.30000000074506,2,r,h,1,,,
n9d,VDACtrain,0,r,false,340.5,2,r,h,0,,,
n9d,VDACtrain,0,r,true,428,2,r,v,3,,,
n9d,VDACtrain,0,r,true,596,2,r,v,4,,,
n9d,VDACtest,1,r,false,548.5999999977648,1,g,v,5,,,
n9d,VDACtest,2,r,true,474.6000000014901,1,g,v,0,,,
n9d,VDACtest,3,r,true,499.1000000014901,2,r,h,1,,,
n9d,VDACtest,4,r,true,436,2,r,v,0,,,
n9d,VDACtest,5,r,true,403,1,g,h,0,,,
n9d,VDACtest,6,r,true,452.6000000014901,2,r,h,4,,,
n9d,VDACtest,7,r,false,371.80000000074506,1,g,h,5,,,
n9d,VDACtest,8,r,true,548.9000000022352,2,r,v,1,,,
n9d,VDACtest,9,r,null,null,2,r,v,2,,,
n9d,VDACtest,10,r,true,363.6000000014901,2,r,v,0,,,
n9d,VDACtest,11,r,true,468.3999999985099,1,g,h,4,,,
n9d,VDACtest,12,r,false,785.3000000007451,1,g,v,3,,,
n9d,VDACtest,13,r,false,459.8999999985099,1,g,h,1,,,
n9d,VDACtest,14,r,true,531.8999999985099,1,g,v,4,,,
n9d,VDACtest,15,r,true,436.1000000014901,2,r,v,1,,,
n9d,VDACtest,16,r,true,436,1,g,v,1,,,
n9d,VDACtest,17,r,true,516.1999999992549,1,g,v,0,,,
n9d,VDACtest,18,r,false,364.30000000074506,2,r,v,4,,,
n9d,VDACtest,19,r,true,387.4000000022352,1,g,v,5,,,
n9d,VDACtest,20,r,true,458.80000000074506,2,r,h,5,,,
n9d,VDACtest,21,r,true,371.29999999701977,2,r,h,4,,,
n9d,VDACtest,22,r,true,303.19999999925494,2,r,v,0,,,
n9d,VDACtest,23,r,false,460.80000000074506,1,g,v,4,,,
n9d,VDACtest,24,r,true,777.3000000007451,2,r,h,3,,,
n9d,VDACtest,25,r,true,668,2,r,v,1,,,
n9d,VDACtest,26,r,true,660.1999999992549,1,g,v,3,,,
n9d,VDACtest,27,r,false,387.1000000014901,2,r,h,1,,,
n9d,VDACtest,28,r,false,427.5,1,g,h,1,,,
n9d,VDACtest,29,r,true,300.79999999701977,2,r,v,5,,,
n9d,VDACtest,30,r,false,402.6000000014901,1,g,v,4,,,
n9d,VDACtest,31,r,true,371.69999999925494,2,r,h,0,,,
n9d,VDACtest,32,r,false,396.0999999977648,2,r,h,2,,,
n9d,VDACtest,33,r,true,467.20000000298023,1,g,v,1,,,
n9d,VDACtest,34,r,true,549.6999999992549,2,r,v,0,,,
n9d,VDACtest,35,r,true,587.3999999985099,1,g,v,2,,,
n9d,VDACtest,36,r,true,386.6000000014901,2,r,v,3,,,
n9d,VDACtest,37,r,true,316.4000000022352,1,g,v,0,,,
n9d,VDACtest,38,r,true,451.69999999925494,1,g,v,5,,,
n9d,VDACtest,39,r,false,370.30000000074506,2,r,v,4,,,
n9d,VDACtest,40,r,false,530.5,1,g,h,1,,,
n9d,VDACtest,41,r,true,563.6000000014901,1,g,h,4,,,
n9d,VDACtest,42,r,true,340.30000000074506,2,r,v,2,,,
n9d,VDACtest,43,r,true,770.9000000022352,2,r,h,4,,,
n9d,VDACtest,44,r,true,507.69999999925494,2,r,v,1,,,
n9d,VDACtest,45,r,true,531.5,1,g,h,4,,,
n9d,VDACtest,46,r,false,557.3000000007451,1,g,v,2,,,
n9d,VDACtest,47,r,false,523.5,2,r,v,2,,,
n9d,VDACtest,48,r,false,458.8999999985099,2,r,h,0,,,
n9d,VDACtest,49,r,false,459.69999999925494,2,r,h,5,,,
n9d,VDACtest,50,r,true,676,2,r,v,4,,,
brk,brk,brk,brk,brk,brk,brk,brk,brk,brk,brk,brk,
n9d,VDACtest,51,r,true,396.9000000022352,2,r,h,2,,,
n9d,VDACtest,52,r,true,395,1,g,h,2,,,
n9d,VDACtest,53,r,true,492,1,g,v,4,,,
n9d,VDACtest,54,r,true,357.19999999925494,2,r,h,0,,,
n9d,VDACtest,55,r,true,531.5999999977648,1,g,v,2,,,
n9d,VDACtest,56,r,true,266.70000000298023,2,r,h,4,,,
n9d,VDACtest,57,r,false,317,1,g,h,0,,,
n9d,VDACtest,58,r,true,515.5999999977648,2,r,v,0,,,
n9d,VDACtest,59,r,true,436.70000000298023,2,r,v,1,,,
n9d,VDACtest,60,r,true,332.3999999985099,1,g,h,5,,,
n9d,VDACtest,61,r,true,459.5,1,g,h,2,,,
n9d,VDACtest,62,r,false,507.9000000022352,2,r,h,0,,,
n9d,VDACtest,63,r,true,541.4000000022352,2,r,v,3,,,
n9d,VDACtest,64,r,true,371.9000000022352,1,g,h,5,,,
n9d,VDACtest,65,r,true,491.80000000074506,1,g,h,3,,,
n9d,VDACtest,66,r,true,619,1,g,h,3,,,
n9d,VDACtest,67,r,true,452.30000000074506,2,r,h,4,,,
n9d,VDACtest,68,r,false,340.4000000022352,2,r,v,3,,,
n9d,VDACtest,69,r,true,549.1000000014901,1,g,h,4,,,
n9d,VDACtest,70,r,false,465.69999999925494,2,r,h,1,,,
n9d,VDACtest,71,r,true,372.8999999985099,2,r,h,3,,,
n9d,VDACtest,72,r,false,452.19999999925494,1,g,h,1,,,
n9d,VDACtest,73,r,true,362.8999999985099,1,g,v,5,,,
n9d,VDACtest,74,r,true,404.0999999977648,1,g,h,2,,,
n9d,VDACtest,75,r,true,469.5999999977648,1,g,v,3,,,
n9d,VDACtest,76,r,true,444.69999999925494,2,r,h,3,,,
n9d,VDACtest,77,r,true,411.79999999701977,2,r,v,5,,,
n9d,VDACtest,78,r,true,555.5,2,r,h,1,,,
n9d,VDACtest,79,r,false,484.8999999985099,1,g,h,4,,,
n9d,VDACtest,80,r,true,491,1,g,h,4,,,
n9d,VDACtest,81,r,true,404.19999999925494,1,g,h,0,,,
n9d,VDACtest,82,r,true,604.5,2,r,v,3,,,
n9d,VDACtest,83,r,false,436.19999999925494,2,r,v,3,,,
n9d,VDACtest,84,r,false,804.5,1,g,v,1,,,
n9d,VDACtest,85,r,true,457.79999999701977,2,r,v,0,,,
n9d,VDACtest,86,r,false,388.3999999985099,2,r,v,4,,,
n9d,VDACtest,87,r,true,404.6000000014901,2,r,v,5,,,
n9d,VDACtest,88,r,true,418.69999999925494,1,g,v,0,,,
n9d,VDACtest,89,r,true,419.5,2,r,v,4,,,
n9d,VDACtest,90,r,false,394,2,r,h,0,,,
n9d,VDACtest,91,r,false,563.8000000007451,1,g,h,0,,,
n9d,VDACtest,92,r,true,516.8000000007451,2,r,v,3,,,
n9d,VDACtest,93,r,false,468.6000000014901,2,r,h,4,,,
n9d,VDACtest,94,r,true,571.5999999977648,1,g,h,2,,,
n9d,VDACtest,95,r,true,436.70000000298023,2,r,h,3,,,
n9d,VDACtest,96,r,true,389.5,1,g,v,5,,,
n9d,VDACtest,97,r,false,522.6000000014901,2,r,h,5,,,
n9d,VDACtest,98,r,false,460.5,1,g,h,5,,,
n9d,VDACtest,99,r,true,532.2999999970198,1,g,h,2,,,
n9d,VDACtest,100,r,true,475.5,1,g,v,3,,,
brk,brk,brk,brk,brk,brk,brk,brk,brk,brk,brk,brk,
n9d,VDACtest,101,r,true,589.6999999992549,1,g,v,2,,,
n9d,VDACtest,102,r,true,411.8999999985099,1,g,h,0,,,
n9d,VDACtest,103,r,false,420.79999999701977,2,r,v,4,,,
n9d,VDACtest,104,r,true,436.69999999925494,2,r,v,2,,,
n9d,VDACtest,105,r,true,555.7999999970198,2,r,h,2,,,
n9d,VDACtest,106,r,true,490.19999999925494,1,g,h,2,,,
n9d,VDACtest,107,r,true,516.4000000022352,1,g,h,3,,,
n9d,VDACtest,108,r,true,460.79999999701977,2,r,v,4,,,
n9d,VDACtest,109,r,true,555.1999999992549,2,r,v,2,,,
n9d,VDACtest,110,r,false,468,1,g,v,4,,,
n9d,VDACtest,111,r,true,443.69999999925494,2,r,v,1,,,
n9d,VDACtest,112,r,null,null,2,r,h,2,,,
n9d,VDACtest,113,r,true,446.80000000074506,1,g,h,5,,,
n9d,VDACtest,114,r,true,411.80000000074506,1,g,h,0,,,
n9d,VDACtest,115,r,true,395.5999999977648,1,g,h,1,,,
n9d,VDACtest,116,r,false,411.30000000074506,1,g,v,3,,,
n9d,VDACtest,117,r,true,475.0999999977648,1,g,h,3,,,
n9d,VDACtest,118,r,true,523.8000000007451,2,r,h,5,,,
n9d,VDACtest,119,r,false,428.30000000074506,2,r,h,0,,,
n9d,VDACtest,120,r,true,451.69999999925494,1,g,v,1,,,
n9d,VDACtest,121,r,false,499.30000000074506,1,g,v,0,,,
n9d,VDACtest,122,r,true,699.6999999992549,2,r,h,1,,,
n9d,VDACtest,123,r,true,483.20000000298023,2,r,h,1,,,
n9d,VDACtest,124,r,true,434.80000000074506,2,r,v,1,,,
n9d,VDACtest,125,r,true,475.19999999925494,2,r,h,2,,,
n9d,VDACtest,126,r,true,507,2,r,v,2,,,
n9d,VDACtest,127,r,true,468.19999999925494,1,g,h,3,,,
n9d,VDACtest,128,r,true,617.8999999985099,1,g,h,1,,,
n9d,VDACtest,129,r,true,386.8999999985099,2,r,h,0,,,
n9d,VDACtest,130,r,true,643.2999999970198,1,g,h,0,,,
n9d,VDACtest,131,r,true,436.09999999403954,1,g,h,2,,,
n9d,VDACtest,132,r,true,555.1999999955297,1,g,v,1,,,
n9d,VDACtest,133,r,true,611.8999999985099,2,r,v,2,,,
n9d,VDACtest,134,r,true,476.1000000014901,1,g,h,4,,,
n9d,VDACtest,135,r,true,472.69999999552965,1,g,v,0,,,
n9d,VDACtest,136,r,true,802.1999999955297,2,r,h,5,,,
n9d,VDACtest,137,r,false,621.6000000014901,1,g,v,2,,,
n9d,VDACtest,138,r,true,506.69999999552965,1,g,v,0,,,
n9d,VDACtest,139,r,true,418.5,2,r,v,5,,,
n9d,VDACtest,140,r,true,485,2,r,h,5,,,
n9d,VDACtest,141,r,false,866.0999999940395,1,g,h,3,,,
n9d,VDACtest,142,r,true,722.8999999985099,1,g,h,1,,,
n9d,VDACtest,143,r,true,452.30000000447035,2,r,h,1,,,
n9d,VDACtest,144,r,false,515.8999999985099,1,g,v,2,,,
n9d,VDACtest,145,r,true,611.3999999985099,1,g,h,3,,,
n9d,VDACtest,146,r,true,371.09999999403954,2,r,v,5,,,
n9d,VDACtest,147,r,true,403.59999999403954,2,r,v,3,,,
n9d,VDACtest,148,r,false,370.80000000447035,2,r,h,3,,,
n9d,VDACtest,149,r,true,376.40000000596046,2,r,h,3,,,
n9d,VDACtest,150,r,true,571,1,g,v,2,,,
brk,brk,brk,brk,brk,brk,brk,brk,brk,brk,brk,brk,
n9d,VDACtest,151,r,true,504.1000000014901,1,g,v,4,,,
n9d,VDACtest,152,r,false,387.5,1,g,v,3,,,
n9d,VDACtest,153,r,true,355.79999999701977,1,g,h,3,,,
n9d,VDACtest,154,r,true,388.8999999985099,2,r,v,0,,,
n9d,VDACtest,155,r,true,636.7999999970198,2,r,h,1,,,
n9d,VDACtest,156,r,true,506.79999999701977,1,g,h,1,,,
n9d,VDACtest,157,r,true,523.9000000059605,1,g,h,4,,,
n9d,VDACtest,158,r,false,380.79999999701977,1,g,h,0,,,
n9d,VDACtest,159,r,true,517,2,r,v,1,,,
n9d,VDACtest,160,r,true,411.09999999403954,1,g,v,1,,,
n9d,VDACtest,161,r,true,451.69999999552965,2,r,v,5,,,
n9d,VDACtest,162,r,true,323.8999999985099,2,r,h,3,,,
n9d,VDACtest,163,r,true,426.40000000596046,2,r,h,5,,,
n9d,VDACtest,164,r,true,450.6000000014901,1,g,v,5,,,
n9d,VDACtest,165,r,false,484.09999999403954,1,g,h,1,,,
n9d,VDACtest,166,r,true,379.5,2,r,h,4,,,
n9d,VDACtest,167,r,false,426.6000000014901,1,g,v,3,,,
n9d,VDACtest,168,r,true,412.3999999985099,1,g,v,5,,,
n9d,VDACtest,169,r,true,468.29999999701977,2,r,h,4,,,
n9d,VDACtest,170,r,true,450.8999999985099,1,g,v,3,,,
n9d,VDACtest,171,r,true,395.20000000298023,1,g,h,2,,,
n9d,VDACtest,172,r,true,514.8999999985099,1,g,h,5,,,
n9d,VDACtest,173,r,true,443.8999999985099,2,r,v,4,,,
n9d,VDACtest,174,r,false,394.29999999701977,1,g,v,1,,,
n9d,VDACtest,175,r,false,468,1,g,v,4,,,
n9d,VDACtest,176,r,true,435.3999999985099,2,r,v,1,,,
n9d,VDACtest,177,r,true,396.30000000447035,1,g,h,5,,,
n9d,VDACtest,178,r,true,460.79999999701977,1,g,v,4,,,
n9d,VDACtest,179,r,false,516.7000000029802,1,g,h,4,,,
n9d,VDACtest,180,r,true,756,2,r,h,2,,,
n9d,VDACtest,181,r,true,476.3999999985099,2,r,v,5,,,
n9d,VDACtest,182,r,true,419.70000000298023,2,r,h,2,,,
n9d,VDACtest,183,r,true,540.3999999985099,2,r,v,4,,,
n9d,VDACtest,184,r,false,442.59999999403954,2,r,h,5,,,
n9d,VDACtest,185,r,false,363.70000000298023,2,r,v,3,,,
n9d,VDACtest,186,r,true,604.1000000014901,2,r,h,4,,,
n9d,VDACtest,187,r,true,452.29999999701977,2,r,h,3,,,
n9d,VDACtest,188,r,true,339.3999999985099,1,g,v,0,,,
n9d,VDACtest,189,r,false,556.6000000014901,2,r,h,1,,,
n9d,VDACtest,190,r,true,596.5,2,r,v,0,,,
n9d,VDACtest,191,r,true,404,2,r,v,5,,,
n9d,VDACtest,192,r,false,403.70000000298023,2,r,v,2,,,
n9d,VDACtest,193,r,true,442.5,1,g,v,1,,,
n9d,VDACtest,194,r,true,489.19999999552965,1,g,v,5,,,
n9d,VDACtest,195,r,true,546.2999999970198,1,g,h,5,,,
n9d,VDACtest,196,r,true,493.20000000298023,2,r,h,2,,,
n9d,VDACtest,197,r,true,499.6000000014901,2,r,h,0,,,
n9d,VDACtest,198,r,true,427.29999999701977,1,g,v,2,,,
n9d,VDACtest,199,r,true,419,1,g,v,4,,,
n9d,VDACtest,200,r,true,363.29999999701977,1,g,v,1,,,
n9d,RSVPtrain,0,r,false,852.2999999970198,1,g,,3,0,1,
n9d,RSVPtrain,0,r,true,495.70000000298023,2,r,,3,2,1,
n9d,RSVPtrain,0,r,true,581.8000000044703,2,r,,0,0,2,
n9d,RSVPtrain,0,r,true,414.09999999403954,0,b,,1,3,0,
n9d,RSVPtrain,0,r,true,925.1000000014901,0,b,,3,3,0,
n9d,RSVPtrain,0,r,true,684.5999999940395,0,b,,0,3,0,
n9d,RSVPtrain,0,r,true,814.1000000014901,1,g,,3,1,1,
n9d,RSVPtrain,0,r,true,1972.5999999940395,1,g,,2,2,2,
n9d,RSVPtrain,0,r,false,1509.6000000014901,2,r,,1,1,2,
n9d,RSVPtrain,0,r,false,903.1000000014901,1,g,,1,0,1,
n9d,RSVPtest,1,r,true,491.80000000447035,0,b,,3,3,0,
n9d,RSVPtest,2,r,true,869.6999999955297,1,g,,2,1,1,
n9d,RSVPtest,3,r,true,764.9000000059605,0,b,,1,3,0,
n9d,RSVPtest,4,r,false,1638,0,b,,3,3,0,
n9d,RSVPtest,5,r,true,916.3000000044703,2,r,,3,0,1,
n9d,RSVPtest,6,r,true,347.79999999701977,0,b,,1,3,0,
n9d,RSVPtest,7,r,true,1763.6000000014901,1,g,,0,0,2,
n9d,RSVPtest,8,r,true,819.4000000059605,0,b,,0,3,0,
n9d,RSVPtest,9,r,false,1188.1999999955297,1,g,,1,0,1,
n9d,RSVPtest,10,r,true,1676.5,2,r,,1,2,1,
n9d,RSVPtest,11,r,true,645.7999999970198,1,g,,2,1,1,
n9d,RSVPtest,12,r,false,610.2999999970198,1,g,,1,1,2,
n9d,RSVPtest,13,r,true,638.1999999955297,2,r,,3,2,1,
n9d,RSVPtest,14,r,true,599.8999999985099,0,b,,3,3,0,
n9d,RSVPtest,15,r,false,1103.3999999985099,0,b,,2,3,0,
n9d,RSVPtest,16,r,true,855.8999999985099,2,r,,3,2,1,
n9d,RSVPtest,17,r,false,1142,1,g,,3,1,1,
n9d,RSVPtest,18,r,true,956.1000000014901,2,r,,3,2,1,
n9d,RSVPtest,19,r,true,703.3999999985099,2,r,,3,2,1,
n9d,RSVPtest,20,r,true,622.2999999970198,0,b,,3,3,0,
n9d,RSVPtest,21,r,false,678.8999999985099,2,r,,0,2,1,
n9d,RSVPtest,22,r,true,470.19999999552965,2,r,,0,2,1,
n9d,RSVPtest,23,r,true,517.7000000029802,2,r,,3,2,1,
n9d,RSVPtest,24,r,true,896.1000000014901,1,g,,3,1,1,
n9d,RSVPtest,25,r,true,526.4000000059605,1,g,,3,1,1,
n9d,RSVPtest,26,r,true,551.1000000014901,1,g,,3,1,1,
n9d,RSVPtest,27,r,true,526.2999999970198,0,b,,3,3,0,
n9d,RSVPtest,28,r,true,573.9000000059605,0,b,,1,3,0,
n9d,RSVPtest,29,r,true,710.2000000029802,1,g,,3,0,1,
n9d,RSVPtest,30,r,false,773.8000000044703,2,r,,2,0,1,
n9d,RSVPtest,31,r,true,572.1000000014901,0,b,,3,3,0,
n9d,RSVPtest,32,r,true,886.1000000014901,1,g,,2,1,1,
n9d,RSVPtest,33,r,true,567.3999999985099,1,g,,1,1,2,
n9d,RSVPtest,34,r,true,764.6000000014901,2,r,,1,0,1,
n9d,RSVPtest,35,r,true,695.7999999970198,0,b,,1,3,0,
n9d,RSVPtest,36,r,false,789.2000000029802,1,g,,3,0,1,
n9d,RSVPtest,37,r,true,1005.1999999955297,2,r,,3,1,1,
n9d,RSVPtest,38,r,false,780.5,0,b,,3,3,0,
n9d,RSVPtest,39,r,true,950.3999999985099,2,r,,2,0,1,
n9d,RSVPtest,40,r,true,628.5,2,r,,3,2,1,
n9d,RSVPtest,41,r,false,1405.1999999955297,1,g,,0,2,1,
n9d,RSVPtest,42,r,true,804.1000000014901,1,g,,3,2,1,
n9d,RSVPtest,43,r,true,638.1999999955297,2,r,,1,2,1,
n9d,RSVPtest,44,r,true,656.1000000014901,2,r,,3,1,1,
n9d,RSVPtest,45,r,true,575.2000000029802,2,r,,3,2,1,
n9d,RSVPtest,46,r,false,1590.2999999970198,0,b,,1,3,0,
n9d,RSVPtest,47,r,true,717.1000000014901,0,b,,3,3,0,
n9d,RSVPtest,48,r,true,941.3999999985099,1,g,,3,1,1,
n9d,RSVPtest,49,r,true,875.5,1,g,,2,0,1,
n9d,RSVPtest,50,r,true,1330.1999999955297,0,b,,1,3,0,
n9d,RSVPtest,51,r,true,982.7000000029802,0,b,,0,3,0,
n9d,RSVPtest,52,r,true,852.0999999940395,0,b,,2,3,0,
n9d,RSVPtest,53,r,true,1092.3000000044703,1,g,,0,1,1,
n9d,RSVPtest,54,r,true,1020.4000000059605,0,b,,0,3,0,
n9d,RSVPtest,55,r,true,561.3999999985099,1,g,,3,0,1,
n9d,RSVPtest,56,r,true,977.9000000059605,2,r,,0,2,1,
n9d,RSVPtest,57,r,true,749.7000000029802,2,r,,2,2,2,
n9d,RSVPtest,58,r,true,589.5,2,r,,0,0,2,
n9d,RSVPtest,59,r,true,427.8999999985099,0,b,,0,3,0,
n9d,RSVPtest,60,r,false,804.2000000029802,1,g,,2,2,2,
brk,brk,brk,brk,brk,brk,brk,brk,brk,brk,brk,brk,
n9d,RSVPtest,61,r,true,579.1000000014901,2,r,,0,2,1,
n9d,RSVPtest,62,r,true,475.1000000014901,2,r,,3,2,1,
n9d,RSVPtest,63,r,true,731.3999999985099,1,g,,3,2,1,
n9d,RSVPtest,64,r,true,715,2,r,,2,0,1,
n9d,RSVPtest,65,r,true,477.1000000014901,1,g,,2,0,1,
n9d,RSVPtest,66,r,true,730.7999999970198,1,g,,3,0,1,
n9d,RSVPtest,67,r,true,1086.2000000029802,0,b,,2,3,0,
n9d,RSVPtest,68,r,false,1205.1000000014901,1,g,,2,0,1,
n9d,RSVPtest,69,r,false,554.3999999985099,1,g,,0,1,1,
n9d,RSVPtest,70,r,false,539.6999999955297,1,g,,2,2,2,
n9d,RSVPtest,71,r,false,437.6000000014901,0,b,,0,3,0,
n9d,RSVPtest,72,r,true,820.9000000059605,0,b,,0,3,0,
n9d,RSVPtest,73,r,true,590.2999999970198,0,b,,0,3,0,
n9d,RSVPtest,74,r,true,541.3000000044703,2,r,,3,2,1,
n9d,RSVPtest,75,r,true,982.2999999970198,1,g,,1,0,1,
n9d,RSVPtest,76,r,false,939.9000000059605,2,r,,0,1,1,
n9d,RSVPtest,77,r,true,539.8999999985099,2,r,,3,0,1,
n9d,RSVPtest,78,r,true,668.2999999970198,0,b,,3,3,0,
n9d,RSVPtest,79,r,true,509.79999999701977,1,g,,3,2,1,
n9d,RSVPtest,80,r,true,500.1000000014901,2,r,,3,1,1,
n9d,RSVPtest,81,r,true,612.5,1,g,,0,1,1,
n9d,RSVPtest,82,r,true,443.8999999985099,0,b,,2,3,0,
n9d,RSVPtest,83,r,true,1132,2,r,,3,1,1,
n9d,RSVPtest,84,r,true,620.3999999985099,1,g,,2,1,1,
n9d,RSVPtest,85,r,true,972.8000000044703,1,g,,3,1,1,
n9d,RSVPtest,86,r,true,548,1,g,,1,0,1,
n9d,RSVPtest,87,r,true,724.8999999985099,2,r,,2,1,1,
n9d,RSVPtest,88,r,false,628.8999999985099,0,b,,3,3,0,
n9d,RSVPtest,89,r,false,725.2000000029802,2,r,,1,0,1,
n9d,RSVPtest,90,r,true,485.1000000014901,1,g,,0,2,1,
n9d,RSVPtest,91,r,true,1213.2000000029802,1,g,,1,2,1,
n9d,RSVPtest,92,r,true,670,0,b,,2,3,0,
n9d,RSVPtest,93,r,true,1076.8999999985099,0,b,,3,3,0,
n9d,RSVPtest,94,r,true,1386.3000000044703,1,g,,3,2,1,
n9d,RSVPtest,95,r,true,723.2000000029802,0,b,,0,3,0,
n9d,RSVPtest,96,r,true,524.6000000014901,0,b,,2,3,0,
n9d,RSVPtest,97,r,true,653.1999999955297,1,g,,2,2,2,
n9d,RSVPtest,98,r,true,529.5,0,b,,3,3,0,
n9d,RSVPtest,99,r,false,581.5,2,r,,2,2,2,
n9d,RSVPtest,100,r,true,757.3999999985099,2,r,,0,0,2,
n9d,RSVPtest,101,r,true,524.0999999940395,0,b,,2,3,0,
n9d,RSVPtest,102,r,true,677.1000000014901,0,b,,2,3,0,
n9d,RSVPtest,103,r,true,588.1000000014901,0,b,,1,3,0,
n9d,RSVPtest,104,r,true,435,2,r,,0,1,1,
n9d,RSVPtest,105,r,true,629.6999999955297,0,b,,2,3,0,
n9d,RSVPtest,106,r,true,1052,2,r,,1,0,1,
n9d,RSVPtest,107,r,true,467.5,2,r,,2,1,1,
n9d,RSVPtest,108,r,false,866.3999999985099,1,g,,1,2,1,
n9d,RSVPtest,109,r,true,524.1000000014901,2,r,,3,0,1,
n9d,RSVPtest,110,r,false,1476.8999999985099,2,r,,3,0,1,
n9d,RSVPtest,111,r,true,580.6999999955297,1,g,,1,0,1,
n9d,RSVPtest,112,r,true,587.3999999985099,1,g,,1,1,2,
n9d,RSVPtest,113,r,true,660.7000000029802,2,r,,0,0,2,
n9d,RSVPtest,114,r,true,571.4000000059605,2,r,,1,1,2,
n9d,RSVPtest,115,r,true,533.3000000044703,0,b,,1,3,0,
n9d,RSVPtest,116,r,true,596,2,r,,1,1,2,
n9d,RSVPtest,117,r,false,668.6000000014901,2,r,,2,0,1,
n9d,RSVPtest,118,r,true,436.3999999985099,1,g,,2,2,2,
n9d,RSVPtest,119,r,true,627.8000000044703,2,r,,0,0,2,
n9d,RSVPtest,120,r,false,749.5,2,r,,3,0,1,
brk,brk,brk,brk,brk,brk,brk,brk,brk,brk,brk,brk,
n9d,RSVPtest,121,r,false,414.5,1,g,,1,0,1,
n9d,RSVPtest,122,r,false,680.3999999985099,1,g,,0,0,2,
n9d,RSVPtest,123,r,false,708.1000000014901,1,g,,0,2,1,
n9d,RSVPtest,124,r,true,779.1000000014901,1,g,,3,0,1,
n9d,RSVPtest,125,r,true,635.3999999985099,2,r,,1,1,2,
n9d,RSVPtest,126,r,true,987.3999999985099,2,r,,0,2,1,
n9d,RSVPtest,127,r,true,691.2000000029802,1,g,,1,0,1,
n9d,RSVPtest,128,r,true,823.6999999955297,2,r,,2,1,1,
n9d,RSVPtest,129,r,false,596.3999999985099,0,b,,1,3,0,
n9d,RSVPtest,130,r,true,788,2,r,,0,1,1,
n9d,RSVPtest,131,r,true,540,1,g,,2,1,1,
n9d,RSVPtest,132,r,true,443.8999999985099,1,g,,2,2,2,
n9d,RSVPtest,133,r,true,748.2999999970198,2,r,,2,0,1,
n9d,RSVPtest,134,r,true,893.2000000029802,1,g,,3,1,1,
n9d,RSVPtest,135,r,false,614.1000000014901,1,g,,0,2,1,
n9d,RSVPtest,136,r,true,885.1000000014901,1,g,,3,1,1,
n9d,RSVPtest,137,r,false,787.8999999985099,2,r,,2,1,1,
n9d,RSVPtest,138,r,true,820.5,0,b,,3,3,0,
n9d,RSVPtest,139,r,true,532.6999999955297,1,g,,2,1,1,
n9d,RSVPtest,140,r,true,1564,2,r,,1,2,1,
n9d,RSVPtest,141,r,true,1876.2999999970198,1,g,,3,0,1,
n9d,RSVPtest,142,r,true,786.2999999970198,1,g,,3,2,1,
n9d,RSVPtest,143,r,true,1874.5999999940395,2,r,,3,0,1,
n9d,RSVPtest,144,r,true,619.3999999985099,0,b,,1,3,0,
n9d,RSVPtest,145,r,false,1182.5,0,b,,3,3,0,
n9d,RSVPtest,146,r,true,697.6000000014901,0,b,,3,3,0,
n9d,RSVPtest,147,r,true,651,0,b,,3,3,0,
n9d,RSVPtest,148,r,false,698.6999999955297,1,g,,0,0,2,
n9d,RSVPtest,149,r,true,868.9000000059605,1,g,,3,1,1,
n9d,RSVPtest,150,r,true,596.3999999985099,1,g,,3,0,1,
n9d,RSVPtest,151,r,true,635.7000000029802,1,g,,3,2,1,
n9d,RSVPtest,152,r,true,797,1,g,,0,2,1,
n9d,RSVPtest,153,r,true,1133.2000000029802,0,b,,3,3,0,
n9d,RSVPtest,154,r,false,796.2000000029802,0,b,,2,3,0,
n9d,RSVPtest,155,r,true,716.6000000014901,1,g,,1,1,2,
n9d,RSVPtest,156,r,true,701.1000000014901,1,g,,1,2,1,
n9d,RSVPtest,157,r,true,690.8999999985099,2,r,,0,2,1,
n9d,RSVPtest,158,r,true,1473.9000000059605,2,r,,1,1,2,
n9d,RSVPtest,159,r,true,690.6000000014901,1,g,,3,2,1,
n9d,RSVPtest,160,r,true,604.2000000029802,1,g,,3,0,1,
n9d,RSVPtest,161,r,true,1115.5,2,r,,1,2,1,
n9d,RSVPtest,162,r,true,571.6000000014901,0,b,,0,3,0,
n9d,RSVPtest,163,r,true,554.2999999970198,1,g,,3,2,1,
n9d,RSVPtest,164,r,true,1235.2999999970198,2,r,,2,2,2,
n9d,RSVPtest,165,r,false,924.0999999940395,0,b,,3,3,0,
n9d,RSVPtest,166,r,true,491.29999999701977,1,g,,0,0,2,
n9d,RSVPtest,167,r,true,1379.7000000029802,2,r,,3,0,1,
n9d,RSVPtest,168,r,true,1505.5,2,r,,2,1,1,
n9d,RSVPtest,169,r,true,658.8999999985099,2,r,,3,0,1,
n9d,RSVPtest,170,r,true,552.8999999985099,2,r,,0,1,1,
n9d,RSVPtest,171,r,true,972,2,r,,3,1,1,
n9d,RSVPtest,172,r,false,1376.5999999940395,2,r,,1,1,2,
n9d,RSVPtest,173,r,true,740,1,g,,0,1,1,
n9d,RSVPtest,174,r,true,546.2999999970198,2,r,,3,1,1,
n9d,RSVPtest,175,r,true,603.7000000029802,1,g,,0,1,1,
n9d,RSVPtest,176,r,true,585.7000000029802,1,g,,3,0,1,
n9d,RSVPtest,177,r,true,915.3000000044703,2,r,,3,1,1,
n9d,RSVPtest,178,r,false,1554.2000000029802,2,r,,2,2,2,
n9d,RSVPtest,179,r,true,1152.8999999985099,0,b,,3,3,0,
n9d,RSVPtest,180,r,true,593.7000000029802,0,b,,3,3,0,
brk,brk,brk,brk,brk,brk,brk,brk,brk,brk,brk,brk,
n9d,RSVPtest,181,r,true,487.79999999701977,2,r,,3,0,1,
n9d,RSVPtest,182,r,true,521.1000000014901,2,r,,0,1,1,
n9d,RSVPtest,183,r,true,676.4000000059605,1,g,,1,2,1,
n9d,RSVPtest,184,r,true,561.1000000014901,1,g,,3,2,1,
n9d,RSVPtest,185,r,true,522.3999999985099,2,r,,1,2,1,
n9d,RSVPtest,186,r,true,1137.1000000014901,2,r,,1,0,1,
n9d,RSVPtest,187,r,true,578.2000000029802,1,g,,3,2,1,
n9d,RSVPtest,188,r,true,729.3999999985099,0,b,,3,3,0,
n9d,RSVPtest,189,r,true,523.1000000014901,0,b,,2,3,0,
n9d,RSVPtest,190,r,true,618.6000000014901,2,r,,3,1,1,
n9d,RSVPtest,191,r,true,868.7000000029802,0,b,,3,3,0,
n9d,RSVPtest,192,r,true,650.5,2,r,,3,0,1,
n9d,RSVPtest,193,r,true,1146.6000000014901,1,g,,1,2,1,
n9d,RSVPtest,194,r,false,930.4000000059605,1,g,,0,1,1,
n9d,RSVPtest,195,r,true,645.6000000014901,0,b,,3,3,0,
n9d,RSVPtest,196,r,true,764,2,r,,3,0,1,
n9d,RSVPtest,197,r,true,540,1,g,,3,0,1,
n9d,RSVPtest,198,r,true,652.5,0,b,,1,3,0,
n9d,RSVPtest,199,r,false,2284.39999999851,2,r,,3,1,1,
n9d,RSVPtest,200,r,true,1123.8000000044703,2,r,,1,1,2,
n9d,RSVPtest,201,r,true,1073.8999999985099,0,b,,0,3,0,
n9d,RSVPtest,202,r,true,705,2,r,,1,0,1,
n9d,RSVPtest,203,r,true,948.1999999955297,1,g,,3,2,1,
n9d,RSVPtest,204,r,true,1699.5,1,g,,3,2,1,
n9d,RSVPtest,205,r,true,770.7000000029802,2,r,,0,1,1,
n9d,RSVPtest,206,r,true,1058.2999999970198,2,r,,3,0,1,
n9d,RSVPtest,207,r,true,659.1000000014901,1,g,,3,1,1,
n9d,RSVPtest,208,r,true,730.7999999970198,2,r,,2,1,1,
n9d,RSVPtest,209,r,true,699.2000000029802,2,r,,3,1,1,
n9d,RSVPtest,210,r,true,627,1,g,,2,0,1,
n9d,RSVPtest,211,r,true,956.5,2,r,,3,1,1,
n9d,RSVPtest,212,r,true,458.59999999403954,1,g,,2,0,1,
n9d,RSVPtest,213,r,true,556.3999999985099,2,r,,3,2,1,
n9d,RSVPtest,214,r,false,611.2999999970198,2,r,,1,0,1,
n9d,RSVPtest,215,r,true,715.8000000044703,1,g,,1,2,1,
n9d,RSVPtest,216,r,true,687,1,g,,1,1,2,
n9d,RSVPtest,217,r,true,746,1,g,,3,0,1,
n9d,RSVPtest,218,r,false,1146.3000000044703,0,b,,2,3,0,
n9d,RSVPtest,219,r,true,468.70000000298023,2,r,,2,0,1,
n9d,RSVPtest,220,r,true,737.1000000014901,2,r,,2,2,2,
n9d,RSVPtest,221,r,false,834,1,g,,3,0,1,
n9d,RSVPtest,222,r,true,528.6000000014901,1,g,,2,2,2,
n9d,RSVPtest,223,r,true,468.79999999701977,0,b,,0,3,0,
n9d,RSVPtest,224,r,true,632.6000000014901,1,g,,3,1,1,
n9d,RSVPtest,225,r,false,748.1999999955297,0,b,,0,3,0,
n9d,RSVPtest,226,r,true,1031.7000000029802,2,r,,3,2,1,
n9d,RSVPtest,227,r,true,721,2,r,,3,2,1,
n9d,RSVPtest,228,r,true,490.1000000014901,1,g,,0,0,2,
n9d,RSVPtest,229,r,true,979.4000000059605,2,r,,3,1,1,
n9d,RSVPtest,230,r,true,680.8999999985099,0,b,,3,3,0,
n9d,RSVPtest,231,r,null,null,1,g,,1,1,2,
n9d,RSVPtest,232,r,false,526.5,2,r,,1,2,1,
n9d,RSVPtest,233,r,true,546,1,g,,0,2,1,
n9d,RSVPtest,234,r,true,520,1,g,,2,0,1,
n9d,RSVPtest,235,r,false,586.2000000029802,2,r,,0,0,2,
n9d,RSVPtest,236,r,false,753.2000000029802,1,g,,3,1,1,
n9d,RSVPtest,237,r,true,520.5,2,r,,0,0,2,
n9d,RSVPtest,238,r,true,952.8000000044703,1,g,,0,0,2,
n9d,RSVPtest,239,r,true,538.2000000029802,0,b,,1,3,0,
n9d,RSVPtest,240,r,true,559,2,r,,2,2,2,
