subID,trialType,trialNum,cntBalance,correct,rt,rwdType,tgtCol,tgtDir,tgtPos,colPos,colMatch,
c9o,VDACtrain,0,g,null,null,1,r,v,4,,,
c9o,VDACtrain,0,g,true,848.8000000044703,1,r,v,3,,,
c9o,VDACtrain,0,g,true,768.7999999970198,1,r,h,0,,,
c9o,VDACtrain,0,g,false,667,1,r,h,1,,,
c9o,VDACtrain,0,g,true,713,2,g,v,5,,,
c9o,VDACtrain,0,g,false,225,2,g,v,2,,,
c9o,VDACtrain,0,g,true,691.8000000044703,2,g,h,3,,,
c9o,VDACtrain,0,g,true,666.3999999985099,2,g,v,0,,,
c9o,VDACtrain,0,g,false,480.70000000298023,2,g,h,5,,,
c9o,VDACtrain,0,g,true,740,1,r,h,2,,,
c9o,VDACtest,1,g,true,634.8999999985099,2,g,v,5,,,
c9o,VDACtest,2,g,true,609.8999999985099,1,r,v,1,,,
c9o,VDACtest,3,g,true,610.2999999970198,1,r,v,1,,,
c9o,VDACtest,4,g,true,818.5,1,r,v,0,,,
c9o,VDACtest,5,g,true,482,1,r,h,4,,,
c9o,VDACtest,6,g,true,674.1000000014901,1,r,h,2,,,
c9o,VDACtest,7,g,true,729.7000000029802,2,g,h,2,,,
c9o,VDACtest,8,g,true,584.7000000029802,2,g,h,4,,,
c9o,VDACtest,9,g,false,679.5,2,g,h,1,,,
c9o,VDACtest,10,g,true,730.1999999955297,1,r,v,1,,,
c9o,VDACtest,11,g,true,627.1000000014901,1,r,h,3,,,
c9o,VDACtest,12,g,true,458.19999999552965,2,g,v,3,,,
c9o,VDACtest,13,g,false,705.7999999970198,1,r,v,2,,,
c9o,VDACtest,14,g,true,677.2000000029802,2,g,v,1,,,
c9o,VDACtest,15,g,true,571.2000000029802,2,g,v,5,,,
c9o,VDACtest,16,g,true,456.69999999552965,2,g,v,4,,,
c9o,VDACtest,17,g,false,529.6000000014901,2,g,h,5,,,
c9o,VDACtest,18,g,true,482.29999999701977,2,g,h,3,,,
c9o,VDACtest,19,g,true,594.7999999970198,1,r,h,0,,,
c9o,VDACtest,20,g,true,809.8999999985099,2,g,h,5,,,
c9o,VDACtest,21,g,true,538.6000000014901,2,g,v,3,,,
c9o,VDACtest,22,g,true,752.6000000014901,1,r,h,1,,,
c9o,VDACtest,23,g,false,585.7999999970198,1,r,h,5,,,
c9o,VDACtest,24,g,true,770,1,r,h,2,,,
c9o,VDACtest,25,g,true,490.3999999985099,2,g,v,4,,,
c9o,VDACtest,26,g,false,657.7999999970198,1,r,v,1,,,
c9o,VDACtest,27,g,null,null,1,r,v,3,,,
c9o,VDACtest,28,g,true,672.7000000029802,2,g,h,1,,,
c9o,VDACtest,29,g,true,418.5,1,r,v,0,,,
c9o,VDACtest,30,g,false,499,1,r,h,1,,,
c9o,VDACtest,31,g,true,370.1000000014901,1,r,h,1,,,
c9o,VDACtest,32,g,true,754.1000000014901,1,r,h,3,,,
c9o,VDACtest,33,g,true,521.8000000044703,2,g,h,5,,,
c9o,VDACtest,34,g,true,569.6000000014901,2,g,h,2,,,
c9o,VDACtest,35,g,true,386.40000000596046,1,r,h,3,,,
c9o,VDACtest,36,g,true,608,1,r,v,1,,,
c9o,VDACtest,37,g,true,634.5,2,g,v,0,,,
c9o,VDACtest,38,g,false,562.0999999940395,2,g,h,4,,,
c9o,VDACtest,39,g,true,913.8000000044703,1,r,h,2,,,
c9o,VDACtest,40,g,true,570,2,g,v,5,,,
c9o,VDACtest,41,g,false,523.3000000044703,1,r,h,5,,,
c9o,VDACtest,42,g,true,635.3000000044703,1,r,v,0,,,
c9o,VDACtest,43,g,true,619.7999999970198,2,g,v,1,,,
c9o,VDACtest,44,g,true,627.3999999985099,1,r,h,3,,,
c9o,VDACtest,45,g,true,776.5,1,r,v,2,,,
c9o,VDACtest,46,g,true,587.1000000014901,1,r,v,1,,,
c9o,VDACtest,47,g,true,698.6999999955297,1,r,v,2,,,
c9o,VDACtest,48,g,true,673.2000000029802,2,g,h,0,,,
c9o,VDACtest,49,g,false,521.7999999970198,2,g,v,2,,,
c9o,VDACtest,50,g,true,614.5,1,r,v,4,,,
brk,brk,brk,brk,brk,brk,brk,brk,brk,brk,brk,brk,
c9o,VDACtest,51,g,true,683.6000000014901,2,g,h,0,,,
c9o,VDACtest,52,g,true,361.1000000014901,1,r,h,0,,,
c9o,VDACtest,53,g,true,483.30000000447035,2,g,v,5,,,
c9o,VDACtest,54,g,true,850.2000000029802,1,r,h,4,,,
c9o,VDACtest,55,g,true,874.2000000029802,2,g,v,3,,,
c9o,VDACtest,56,g,true,674.8000000044703,1,r,h,1,,,
c9o,VDACtest,57,g,true,569,2,g,h,3,,,
c9o,VDACtest,58,g,true,488.69999999552965,1,r,v,1,,,
c9o,VDACtest,59,g,true,722.1000000014901,2,g,h,4,,,
c9o,VDACtest,60,g,false,514.5,1,r,h,1,,,
c9o,VDACtest,61,g,false,607.8000000044703,1,r,h,2,,,
c9o,VDACtest,62,g,true,400.30000000447035,1,r,h,2,,,
c9o,VDACtest,63,g,true,803.0999999940395,2,g,h,1,,,
c9o,VDACtest,64,g,true,473.79999999701977,2,g,h,1,,,
c9o,VDACtest,65,g,true,579,1,r,h,0,,,
c9o,VDACtest,66,g,true,667.5,2,g,h,5,,,
c9o,VDACtest,67,g,true,712.3000000044703,1,r,h,2,,,
c9o,VDACtest,68,g,true,578,2,g,h,3,,,
c9o,VDACtest,69,g,true,906.3999999985099,1,r,v,0,,,
c9o,VDACtest,70,g,null,null,2,g,v,0,,,
c9o,VDACtest,71,g,true,787.5,1,r,h,3,,,
c9o,VDACtest,72,g,true,715.6000000014901,2,g,v,0,,,
c9o,VDACtest,73,g,true,538.5,1,r,h,5,,,
c9o,VDACtest,74,g,true,689.5,2,g,v,3,,,
c9o,VDACtest,75,g,true,427.20000000298023,2,g,v,4,,,
c9o,VDACtest,76,g,null,null,1,r,h,2,,,
c9o,VDACtest,77,g,true,828.8999999985099,1,r,h,5,,,
c9o,VDACtest,78,g,true,492.5,1,r,v,5,,,
c9o,VDACtest,79,g,true,891.6999999955297,2,g,h,1,,,
c9o,VDACtest,80,g,true,651.7000000029802,2,g,v,3,,,
c9o,VDACtest,81,g,true,595.5,1,r,h,2,,,
c9o,VDACtest,82,g,true,634.4000000059605,1,r,v,0,,,
c9o,VDACtest,83,g,true,667.2000000029802,2,g,v,0,,,
c9o,VDACtest,84,g,null,null,1,r,v,3,,,
c9o,VDACtest,85,g,true,641.3999999985099,2,g,h,0,,,
c9o,VDACtest,86,g,true,762.5,1,r,v,4,,,
c9o,VDACtest,87,g,true,507.69999999552965,2,g,v,4,,,
c9o,VDACtest,88,g,true,411.5,1,r,h,5,,,
c9o,VDACtest,89,g,true,627.7999999970198,2,g,v,0,,,
c9o,VDACtest,90,g,true,458.70000000298023,1,r,v,5,,,
c9o,VDACtest,91,g,true,490.80000000447035,2,g,v,0,,,
c9o,VDACtest,92,g,true,626,2,g,h,4,,,
c9o,VDACtest,93,g,true,467.5,1,r,v,4,,,
c9o,VDACtest,94,g,true,515.6000000014901,1,r,v,0,,,
c9o,VDACtest,95,g,true,450.19999999552965,1,r,h,1,,,
c9o,VDACtest,96,g,true,434.8999999985099,1,r,v,5,,,
c9o,VDACtest,97,g,false,507.70000000298023,2,g,h,5,,,
c9o,VDACtest,98,g,true,636.2999999970198,1,r,v,4,,,
c9o,VDACtest,99,g,true,547.3000000044703,2,g,v,5,,,
c9o,VDACtest,100,g,true,531.2999999970198,2,g,v,2,,,
brk,brk,brk,brk,brk,brk,brk,brk,brk,brk,brk,brk,
c9o,VDACtest,101,g,false,698.4000000059605,2,g,v,2,,,
c9o,VDACtest,102,g,true,577.1999999955297,2,g,v,3,,,
c9o,VDACtest,103,g,true,587,2,g,h,4,,,
c9o,VDACtest,104,g,true,706.3000000044703,2,g,h,4,,,
c9o,VDACtest,105,g,true,466.70000000298023,2,g,v,4,,,
c9o,VDACtest,106,g,true,483.5,1,r,v,4,,,
c9o,VDACtest,107,g,true,523.6000000014901,1,r,v,5,,,
c9o,VDACtest,108,g,true,528.5,1,r,h,0,,,
c9o,VDACtest,109,g,true,898.3999999985099,2,g,h,3,,,
c9o,VDACtest,110,g,true,836.3000000044703,2,g,h,3,,,
c9o,VDACtest,111,g,true,490.69999999552965,2,g,v,2,,,
c9o,VDACtest,112,g,true,643,2,g,v,1,,,
c9o,VDACtest,113,g,true,555.5,2,g,v,1,,,
c9o,VDACtest,114,g,true,480.69999999552965,1,r,h,4,,,
c9o,VDACtest,115,g,false,754.1999999955297,2,g,h,1,,,
c9o,VDACtest,116,g,true,513.8999999985099,1,r,v,0,,,
c9o,VDACtest,117,g,true,609.3000000044703,2,g,v,4,,,
c9o,VDACtest,118,g,true,539.7000000029802,1,r,v,5,,,
c9o,VDACtest,119,g,true,468.6000000014901,1,r,h,3,,,
c9o,VDACtest,120,g,false,745.5,2,g,v,1,,,
c9o,VDACtest,121,g,false,690.1000000014901,1,r,v,3,,,
c9o,VDACtest,122,g,true,729.3000000044703,2,g,h,1,,,
c9o,VDACtest,123,g,true,706.2000000029802,1,r,h,0,,,
c9o,VDACtest,124,g,true,763.8999999985099,1,r,h,4,,,
c9o,VDACtest,125,g,true,761.6000000014901,2,g,v,4,,,
c9o,VDACtest,126,g,true,442.20000000298023,2,g,h,4,,,
c9o,VDACtest,127,g,true,465.79999999701977,1,r,v,5,,,
c9o,VDACtest,128,g,true,489.70000000298023,2,g,h,4,,,
c9o,VDACtest,129,g,true,714.8999999985099,1,r,h,1,,,
c9o,VDACtest,130,g,true,747.1000000014901,1,r,h,1,,,
c9o,VDACtest,131,g,true,680.7000000029802,2,g,h,4,,,
c9o,VDACtest,132,g,false,482.09999999403954,1,r,v,1,,,
c9o,VDACtest,133,g,true,474,2,g,h,2,,,
c9o,VDACtest,134,g,true,475.79999999701977,2,g,v,5,,,
c9o,VDACtest,135,g,true,617.5,1,r,v,2,,,
c9o,VDACtest,136,g,true,488.79999999701977,2,g,v,3,,,
c9o,VDACtest,137,g,true,739.6000000014901,2,g,v,0,,,
c9o,VDACtest,138,g,true,746.7000000029802,1,r,h,4,,,
c9o,VDACtest,139,g,true,610.3999999985099,2,g,v,1,,,
c9o,VDACtest,140,g,true,643.5,1,r,h,1,,,
c9o,VDACtest,141,g,true,793.6999999955297,2,g,v,1,,,
c9o,VDACtest,142,g,true,625.7999999970198,1,r,h,4,,,
c9o,VDACtest,143,g,true,963.6999999955297,2,g,h,0,,,
c9o,VDACtest,144,g,true,657.3999999985099,2,g,h,5,,,
c9o,VDACtest,145,g,true,482.8999999985099,2,g,h,3,,,
c9o,VDACtest,146,g,true,699.3999999985099,1,r,v,5,,,
c9o,VDACtest,147,g,true,626.2000000029802,2,g,v,4,,,
c9o,VDACtest,148,g,true,771.8999999985099,2,g,h,2,,,
c9o,VDACtest,149,g,true,672.8000000044703,1,r,h,4,,,
c9o,VDACtest,150,g,false,513.8999999985099,1,r,v,1,,,
brk,brk,brk,brk,brk,brk,brk,brk,brk,brk,brk,brk,
c9o,VDACtest,151,g,true,869.6000000014901,2,g,h,1,,,
c9o,VDACtest,152,g,true,674.7000000029802,1,r,v,3,,,
c9o,VDACtest,153,g,true,746,1,r,h,0,,,
c9o,VDACtest,154,g,true,506.79999999701977,2,g,h,3,,,
c9o,VDACtest,155,g,true,488.6000000014901,2,g,h,5,,,
c9o,VDACtest,156,g,true,714.7000000029802,2,g,h,3,,,
c9o,VDACtest,157,g,true,594.0999999940395,1,r,v,3,,,
c9o,VDACtest,158,g,true,546.7999999970198,2,g,v,1,,,
c9o,VDACtest,159,g,true,474.8999999985099,2,g,h,0,,,
c9o,VDACtest,160,g,true,561.6000000014901,1,r,h,4,,,
c9o,VDACtest,161,g,true,522.5,2,g,h,0,,,
c9o,VDACtest,162,g,true,515.2000000029802,2,g,v,2,,,
c9o,VDACtest,163,g,true,601.9000000059605,1,r,h,5,,,
c9o,VDACtest,164,g,true,496.6000000014901,1,r,v,5,,,
c9o,VDACtest,165,g,true,545.7999999970198,1,r,v,4,,,
c9o,VDACtest,166,g,true,595.2000000029802,2,g,v,4,,,
c9o,VDACtest,167,g,true,498.20000000298023,2,g,v,5,,,
c9o,VDACtest,168,g,true,601.7000000029802,2,g,v,1,,,
c9o,VDACtest,169,g,true,472.90000000596046,1,r,h,0,,,
c9o,VDACtest,170,g,true,776.6999999955297,1,r,v,2,,,
c9o,VDACtest,171,g,true,722.2999999970198,2,g,v,0,,,
c9o,VDACtest,172,g,true,569.9000000059605,2,g,h,2,,,
c9o,VDACtest,173,g,true,818.2999999970198,1,r,h,5,,,
c9o,VDACtest,174,g,true,425.79999999701977,2,g,v,5,,,
c9o,VDACtest,175,g,null,null,1,r,v,4,,,
c9o,VDACtest,176,g,true,595.1000000014901,1,r,v,2,,,
c9o,VDACtest,177,g,true,554,2,g,h,1,,,
c9o,VDACtest,178,g,true,611.3999999985099,1,r,h,3,,,
c9o,VDACtest,179,g,true,546,1,r,v,0,,,
c9o,VDACtest,180,g,true,586.1999999955297,1,r,v,3,,,
c9o,VDACtest,181,g,true,498.6000000014901,2,g,h,0,,,
c9o,VDACtest,182,g,false,400.8999999985099,1,r,v,3,,,
c9o,VDACtest,183,g,true,449.90000000596046,2,g,h,2,,,
c9o,VDACtest,184,g,true,534.3999999985099,1,r,v,2,,,
c9o,VDACtest,185,g,true,587,2,g,v,3,,,
c9o,VDACtest,186,g,true,497.80000000447035,1,r,v,4,,,
c9o,VDACtest,187,g,true,481.6000000014901,1,r,v,4,,,
c9o,VDACtest,188,g,true,379.3999999985099,2,g,h,2,,,
c9o,VDACtest,189,g,true,602.2000000029802,2,g,v,2,,,
c9o,VDACtest,190,g,true,537.2000000029802,1,r,h,3,,,
c9o,VDACtest,191,g,true,520.1000000014901,1,r,v,2,,,
c9o,VDACtest,192,g,true,505,2,g,h,5,,,
c9o,VDACtest,193,g,true,650,1,r,h,4,,,
c9o,VDACtest,194,g,true,462.70000000298023,1,r,v,3,,,
c9o,VDACtest,195,g,true,568.8000000044703,2,g,h,0,,,
c9o,VDACtest,196,g,true,715.2000000029802,2,g,v,2,,,
c9o,VDACtest,197,g,true,585.7000000029802,2,g,h,2,,,
c9o,VDACtest,198,g,true,714.2000000029802,1,r,h,0,,,
c9o,VDACtest,199,g,true,658.0999999940395,2,g,v,2,,,
c9o,VDACtest,200,g,true,730.2999999970198,1,r,h,5,,,
c9o,RSVPtrain,0,g,false,1272.9000000059605,2,g,,1,0,1,
c9o,RSVPtrain,0,g,true,606.7999999970198,0,b,,3,3,0,
c9o,RSVPtrain,0,g,true,606.1999999955297,0,b,,0,3,0,
c9o,RSVPtrain,0,g,true,829.8999999985099,2,g,,3,0,1,
c9o,RSVPtrain,0,g,true,1652.3999999985099,1,r,,1,1,2,
c9o,RSVPtrain,0,g,true,847.2999999970198,1,r,,3,2,1,
c9o,RSVPtrain,0,g,true,951.8000000044703,0,b,,1,3,0,
c9o,RSVPtrain,0,g,true,679.3999999985099,2,g,,2,2,2,
c9o,RSVPtrain,0,g,true,701.4000000059605,2,g,,3,1,1,
c9o,RSVPtrain,0,g,true,1357.8999999985099,1,r,,0,0,2,
c9o,RSVPtest,1,g,false,726.7999999970198,2,g,,1,2,1,
c9o,RSVPtest,2,g,true,677.1000000014901,1,r,,3,1,1,
c9o,RSVPtest,3,g,true,692.8999999985099,1,r,,3,2,1,
c9o,RSVPtest,4,g,true,753.8999999985099,1,r,,3,2,1,
c9o,RSVPtest,5,g,true,613.6999999955297,2,g,,2,0,1,
c9o,RSVPtest,6,g,false,510.8999999985099,1,r,,1,2,1,
c9o,RSVPtest,7,g,true,579,0,b,,1,3,0,
c9o,RSVPtest,8,g,true,965.3999999985099,1,r,,3,0,1,
c9o,RSVPtest,9,g,true,734.9000000059605,2,g,,0,0,2,
c9o,RSVPtest,10,g,true,660.7000000029802,2,g,,2,1,1,
c9o,RSVPtest,11,g,true,677.1000000014901,0,b,,3,3,0,
c9o,RSVPtest,12,g,true,565.1999999955297,1,r,,0,0,2,
c9o,RSVPtest,13,g,true,957,2,g,,3,2,1,
c9o,RSVPtest,14,g,true,659.8000000044703,1,r,,3,0,1,
c9o,RSVPtest,15,g,true,606.2999999970198,0,b,,0,3,0,
c9o,RSVPtest,16,g,true,908.3999999985099,0,b,,0,3,0,
c9o,RSVPtest,17,g,true,891.7999999970198,1,r,,2,2,2,
c9o,RSVPtest,18,g,false,1013.5999999940395,2,g,,0,2,1,
c9o,RSVPtest,19,g,true,645.2999999970198,1,r,,2,2,2,
c9o,RSVPtest,20,g,true,735.8000000044703,0,b,,3,3,0,
c9o,RSVPtest,21,g,false,1059,1,r,,1,1,2,
c9o,RSVPtest,22,g,true,708.5,1,r,,2,0,1,
c9o,RSVPtest,23,g,true,467.6000000014901,1,r,,1,0,1,
c9o,RSVPtest,24,g,true,730.8000000044703,2,g,,0,0,2,
c9o,RSVPtest,25,g,true,1099.0999999940395,1,r,,1,1,2,
c9o,RSVPtest,26,g,true,499.29999999701977,1,r,,1,0,1,
c9o,RSVPtest,27,g,true,811.5,2,g,,0,0,2,
c9o,RSVPtest,28,g,true,570.7000000029802,2,g,,1,1,2,
c9o,RSVPtest,29,g,true,425.1000000014901,0,b,,0,3,0,
c9o,RSVPtest,30,g,true,724.5,2,g,,0,1,1,
c9o,RSVPtest,31,g,true,529.4000000059605,0,b,,0,3,0,
c9o,RSVPtest,32,g,false,1012.6000000014901,2,g,,3,0,1,
c9o,RSVPtest,33,g,false,706.2000000029802,1,r,,1,2,1,
c9o,RSVPtest,34,g,true,987.6999999955297,0,b,,0,3,0,
c9o,RSVPtest,35,g,false,828.8000000044703,0,b,,3,3,0,
c9o,RSVPtest,36,g,true,834.7999999970198,1,r,,0,1,1,
c9o,RSVPtest,37,g,true,588.3999999985099,1,r,,0,1,1,
c9o,RSVPtest,38,g,false,763.2999999970198,2,g,,3,0,1,
c9o,RSVPtest,39,g,false,899.5,1,r,,1,1,2,
c9o,RSVPtest,40,g,true,676.8000000044703,1,r,,1,0,1,
c9o,RSVPtest,41,g,true,862.7000000029802,1,r,,2,0,1,
c9o,RSVPtest,42,g,false,977.5999999940395,1,r,,1,1,2,
c9o,RSVPtest,43,g,true,827.2999999970198,0,b,,3,3,0,
c9o,RSVPtest,44,g,true,922,2,g,,3,0,1,
c9o,RSVPtest,45,g,true,1010.7999999970198,2,g,,0,2,1,
c9o,RSVPtest,46,g,true,678.3000000044703,2,g,,1,0,1,
c9o,RSVPtest,47,g,true,859.5,0,b,,3,3,0,
c9o,RSVPtest,48,g,true,1068.4000000059605,2,g,,2,1,1,
c9o,RSVPtest,49,g,false,1378.5,1,r,,2,1,1,
c9o,RSVPtest,50,g,true,795.6000000014901,2,g,,3,2,1,
c9o,RSVPtest,51,g,true,491.40000000596046,1,r,,1,0,1,
c9o,RSVPtest,52,g,false,660,0,b,,0,3,0,
c9o,RSVPtest,53,g,true,422.09999999403954,1,r,,0,2,1,
c9o,RSVPtest,54,g,true,491.6000000014901,1,r,,0,2,1,
c9o,RSVPtest,55,g,true,769.1000000014901,2,g,,1,2,1,
c9o,RSVPtest,56,g,null,null,0,b,,3,3,0,
c9o,RSVPtest,57,g,true,524.3999999985099,0,b,,3,3,0,
c9o,RSVPtest,58,g,false,980.7999999970198,1,r,,3,1,1,
c9o,RSVPtest,59,g,true,374.09999999403954,1,r,,1,2,1,
c9o,RSVPtest,60,g,false,212.40000000596046,0,b,,1,3,0,
brk,brk,brk,brk,brk,brk,brk,brk,brk,brk,brk,brk,
c9o,RSVPtest,61,g,true,239.80000000447035,2,g,,2,2,2,
c9o,RSVPtest,62,g,false,76.39999999850988,0,b,,1,3,0,
c9o,RSVPtest,63,g,false,314.70000000298023,2,g,,3,0,1,
c9o,RSVPtest,64,g,true,206.10000000149012,2,g,,2,1,1,
c9o,RSVPtest,65,g,false,133.60000000149012,0,b,,3,3,0,
c9o,RSVPtest,66,g,false,156.20000000298023,1,r,,3,1,1,
c9o,RSVPtest,67,g,true,84.20000000298023,2,g,,3,0,1,
c9o,RSVPtest,68,g,true,156.69999999552965,0,b,,1,3,0,
c9o,RSVPtest,69,g,false,132.19999999552965,1,r,,3,1,1,
c9o,RSVPtest,70,g,true,60.20000000298023,1,r,,3,0,1,
c9o,RSVPtest,71,g,true,124.89999999850988,1,r,,3,1,1,
c9o,RSVPtest,72,g,false,103.60000000149012,0,b,,2,3,0,
c9o,RSVPtest,73,g,true,13.299999997019768,2,g,,1,1,2,
c9o,RSVPtest,74,g,false,125,1,r,,2,2,2,
c9o,RSVPtest,75,g,true,235.5,2,g,,0,0,2,
c9o,RSVPtest,76,g,true,509.6000000014901,2,g,,3,1,1,
c9o,RSVPtest,77,g,true,443.19999999552965,2,g,,3,0,1,
c9o,RSVPtest,78,g,true,532.8999999985099,1,r,,0,0,2,
c9o,RSVPtest,79,g,false,899.5,2,g,,2,2,2,
c9o,RSVPtest,80,g,false,432.20000000298023,0,b,,2,3,0,
c9o,RSVPtest,81,g,true,779.6000000014901,2,g,,1,0,1,
c9o,RSVPtest,82,g,false,1243.3000000044703,0,b,,0,3,0,
c9o,RSVPtest,83,g,true,1042.7000000029802,2,g,,1,0,1,
c9o,RSVPtest,84,g,true,529.0999999940395,0,b,,0,3,0,
c9o,RSVPtest,85,g,false,617.5,0,b,,3,3,0,
c9o,RSVPtest,86,g,true,745.7000000029802,1,r,,3,2,1,
c9o,RSVPtest,87,g,false,1195.6999999955297,2,g,,3,0,1,
c9o,RSVPtest,88,g,false,571.1000000014901,1,r,,2,0,1,
c9o,RSVPtest,89,g,false,259.1000000014901,2,g,,3,0,1,
c9o,RSVPtest,90,g,true,212.39999999850988,2,g,,2,2,2,
c9o,RSVPtest,91,g,true,123.30000000447035,2,g,,3,2,1,
c9o,RSVPtest,92,g,false,110.10000000149012,2,g,,2,1,1,
c9o,RSVPtest,93,g,true,21.600000001490116,0,b,,1,3,0,
c9o,RSVPtest,94,g,false,243.70000000298023,1,r,,3,0,1,
c9o,RSVPtest,95,g,false,410.29999999701977,2,g,,2,1,1,
c9o,RSVPtest,96,g,false,251.89999999850988,2,g,,3,2,1,
c9o,RSVPtest,97,g,true,307.1000000014901,1,r,,3,0,1,
c9o,RSVPtest,98,g,true,143.29999999701977,2,g,,3,1,1,
c9o,RSVPtest,99,g,true,83.29999999701977,1,r,,3,2,1,
c9o,RSVPtest,100,g,true,455.19999999552965,2,g,,3,1,1,
c9o,RSVPtest,101,g,false,323.1000000014901,0,b,,3,3,0,
c9o,RSVPtest,102,g,true,43.29999999701977,1,r,,3,2,1,
c9o,RSVPtest,103,g,true,72.29999999701977,1,r,,3,0,1,
c9o,RSVPtest,104,g,true,737,2,g,,3,1,1,
c9o,RSVPtest,105,g,false,562.1999999955297,1,r,,0,2,1,
c9o,RSVPtest,106,g,true,193.89999999850988,2,g,,2,0,1,
c9o,RSVPtest,107,g,false,673.8999999985099,1,r,,0,0,2,
c9o,RSVPtest,108,g,true,10.400000005960464,0,b,,1,3,0,
c9o,RSVPtest,109,g,true,436.5,1,r,,3,1,1,
c9o,RSVPtest,110,g,true,513.5,2,g,,2,2,2,
c9o,RSVPtest,111,g,true,291,0,b,,3,3,0,
c9o,RSVPtest,112,g,true,490.20000000298023,1,r,,1,1,2,
c9o,RSVPtest,113,g,true,364.59999999403954,2,g,,1,0,1,
c9o,RSVPtest,114,g,true,820.2000000029802,1,r,,1,2,1,
c9o,RSVPtest,115,g,true,558.1000000014901,1,r,,0,2,1,
c9o,RSVPtest,116,g,true,749,1,r,,3,0,1,
c9o,RSVPtest,117,g,true,574.1999999955297,2,g,,3,2,1,
c9o,RSVPtest,118,g,false,483.5,1,r,,3,0,1,
c9o,RSVPtest,119,g,true,697.8999999985099,1,r,,3,1,1,
c9o,RSVPtest,120,g,false,475.20000000298023,1,r,,2,2,2,
brk,brk,brk,brk,brk,brk,brk,brk,brk,brk,brk,brk,
c9o,RSVPtest,121,g,false,415.5,0,b,,3,3,0,
c9o,RSVPtest,122,g,false,338.6000000014901,2,g,,1,2,1,
c9o,RSVPtest,123,g,false,459.8999999985099,2,g,,0,0,2,
c9o,RSVPtest,124,g,true,331.5,2,g,,2,2,2,
c9o,RSVPtest,125,g,true,634.5,1,r,,0,0,2,
c9o,RSVPtest,126,g,false,627.8000000044703,2,g,,0,2,1,
c9o,RSVPtest,127,g,true,387.6000000014901,2,g,,2,0,1,
c9o,RSVPtest,128,g,true,539.0999999940395,1,r,,3,2,1,
c9o,RSVPtest,129,g,true,338.29999999701977,0,b,,0,3,0,
c9o,RSVPtest,130,g,null,null,2,g,,3,0,1,
c9o,RSVPtest,131,g,false,108.60000000149012,1,r,,3,1,1,
c9o,RSVPtest,132,g,true,42.80000000447035,0,b,,2,3,0,
c9o,RSVPtest,133,g,false,977.5,2,g,,1,0,1,
c9o,RSVPtest,134,g,true,257.30000000447035,1,r,,0,0,2,
c9o,RSVPtest,135,g,true,762.2000000029802,1,r,,3,2,1,
c9o,RSVPtest,136,g,false,1.1000000014901161,2,g,,0,2,1,
c9o,RSVPtest,137,g,false,539.1999999955297,1,r,,2,0,1,
c9o,RSVPtest,138,g,true,812.3999999985099,2,g,,3,1,1,
c9o,RSVPtest,139,g,true,380.1000000014901,2,g,,3,0,1,
c9o,RSVPtest,140,g,true,665.8999999985099,0,b,,3,3,0,
c9o,RSVPtest,141,g,true,513.7999999970198,1,r,,0,1,1,
c9o,RSVPtest,142,g,false,585.5999999940395,2,g,,0,2,1,
c9o,RSVPtest,143,g,false,546.2000000029802,1,r,,1,1,2,
c9o,RSVPtest,144,g,true,432.69999999552965,2,g,,2,2,2,
c9o,RSVPtest,145,g,false,649.8999999985099,1,r,,1,0,1,
c9o,RSVPtest,146,g,false,584.8999999985099,2,g,,1,2,1,
c9o,RSVPtest,147,g,false,882.2000000029802,0,b,,2,3,0,
c9o,RSVPtest,148,g,true,327.29999999701977,2,g,,3,0,1,
c9o,RSVPtest,149,g,false,291.5,2,g,,3,2,1,
c9o,RSVPtest,150,g,true,75,0,b,,1,3,0,
c9o,RSVPtest,151,g,true,17.100000001490116,1,r,,0,1,1,
c9o,RSVPtest,152,g,true,154.40000000596046,0,b,,2,3,0,
c9o,RSVPtest,153,g,false,561.7000000029802,1,r,,2,0,1,
c9o,RSVPtest,154,g,true,666.1999999955297,2,g,,2,0,1,
c9o,RSVPtest,155,g,false,369.70000000298023,2,g,,3,2,1,
c9o,RSVPtest,156,g,true,851.1000000014901,1,r,,2,1,1,
c9o,RSVPtest,157,g,true,690.4000000059605,1,r,,3,1,1,
c9o,RSVPtest,158,g,false,708,1,r,,2,2,2,
c9o,RSVPtest,159,g,false,673.7999999970198,2,g,,0,1,1,
c9o,RSVPtest,160,g,false,985.4000000059605,0,b,,3,3,0,
c9o,RSVPtest,161,g,false,657.1999999955297,1,r,,0,1,1,
c9o,RSVPtest,162,g,false,655.3000000044703,0,b,,1,3,0,
c9o,RSVPtest,163,g,false,828.0999999940395,1,r,,1,2,1,
c9o,RSVPtest,164,g,false,1042,0,b,,1,3,0,
c9o,RSVPtest,165,g,true,930.8999999985099,1,r,,3,0,1,
c9o,RSVPtest,166,g,true,1226,2,g,,1,2,1,
c9o,RSVPtest,167,g,true,1026.6000000014901,1,r,,0,0,2,
c9o,RSVPtest,168,g,false,1442.5,2,g,,3,1,1,
c9o,RSVPtest,169,g,true,368.79999999701977,2,g,,0,2,1,
c9o,RSVPtest,170,g,true,704.3999999985099,0,b,,2,3,0,
c9o,RSVPtest,171,g,true,610.3000000044703,1,r,,2,1,1,
c9o,RSVPtest,172,g,false,1431.7000000029802,2,g,,0,1,1,
c9o,RSVPtest,173,g,true,997.2000000029802,2,g,,1,0,1,
c9o,RSVPtest,174,g,false,947.3999999985099,1,r,,3,2,1,
c9o,RSVPtest,175,g,true,1144.2000000029802,2,g,,3,2,1,
c9o,RSVPtest,176,g,false,891.3000000044703,2,g,,1,1,2,
c9o,RSVPtest,177,g,true,1138.1999999955297,2,g,,2,1,1,
c9o,RSVPtest,178,g,false,849.8000000044703,1,r,,0,1,1,
c9o,RSVPtest,179,g,false,894.8999999985099,1,r,,2,2,2,
c9o,RSVPtest,180,g,true,104.70000000298023,1,r,,1,2,1,
brk,brk,brk,brk,brk,brk,brk,brk,brk,brk,brk,brk,
c9o,RSVPtest,181,g,true,9,0,b,,2,3,0,
c9o,RSVPtest,182,g,false,303.70000000298023,0,b,,0,3,0,
c9o,RSVPtest,183,g,false,195.69999999552965,2,g,,3,1,1,
c9o,RSVPtest,184,g,true,186.10000000149012,0,b,,3,3,0,
c9o,RSVPtest,185,g,true,333.6000000014901,1,r,,3,2,1,
c9o,RSVPtest,186,g,true,65.39999999850988,1,r,,0,2,1,
c9o,RSVPtest,187,g,true,124.89999999850988,1,r,,2,1,1,
c9o,RSVPtest,188,g,false,50,2,g,,3,1,1,
c9o,RSVPtest,189,g,true,224.5,0,b,,3,3,0,
c9o,RSVPtest,190,g,false,12.199999995529652,2,g,,3,0,1,
c9o,RSVPtest,191,g,false,2.2999999970197678,0,b,,3,3,0,
c9o,RSVPtest,192,g,true,162.10000000149012,0,b,,1,3,0,
c9o,RSVPtest,193,g,false,217.79999999701977,2,g,,3,1,1,
c9o,RSVPtest,194,g,true,160.29999999701977,0,b,,2,3,0,
c9o,RSVPtest,195,g,false,167.79999999701977,1,r,,3,1,1,
c9o,RSVPtest,196,g,false,391.3999999985099,0,b,,0,3,0,
c9o,RSVPtest,197,g,true,299.1000000014901,2,g,,1,1,2,
c9o,RSVPtest,198,g,true,265.3999999985099,2,g,,3,2,1,
c9o,RSVPtest,199,g,null,null,0,b,,2,3,0,
c9o,RSVPtest,200,g,true,783,0,b,,3,3,0,
c9o,RSVPtest,201,g,false,2,1,r,,0,2,1,
c9o,RSVPtest,202,g,true,162.19999999552965,1,r,,1,0,1,
c9o,RSVPtest,203,g,false,129.10000000149012,1,r,,3,0,1,
c9o,RSVPtest,204,g,true,150,0,b,,3,3,0,
c9o,RSVPtest,205,g,true,259.09999999403954,0,b,,3,3,0,
c9o,RSVPtest,206,g,false,64,1,r,,3,1,1,
c9o,RSVPtest,207,g,true,60.600000001490116,2,g,,2,0,1,
c9o,RSVPtest,208,g,true,160.70000000298023,2,g,,3,2,1,
c9o,RSVPtest,209,g,true,97.20000000298023,0,b,,2,3,0,
c9o,RSVPtest,210,g,false,249.10000000149012,2,g,,2,0,1,
c9o,RSVPtest,211,g,true,3.2999999970197678,0,b,,1,3,0,
c9o,RSVPtest,212,g,true,40.100000001490116,0,b,,3,3,0,
c9o,RSVPtest,213,g,false,80.79999999701977,1,r,,3,0,1,
c9o,RSVPtest,214,g,true,32,0,b,,1,3,0,
c9o,RSVPtest,215,g,false,31.899999998509884,2,g,,3,1,1,
c9o,RSVPtest,216,g,false,158.89999999850988,0,b,,3,3,0,
c9o,RSVPtest,217,g,true,28.899999998509884,2,g,,1,2,1,
c9o,RSVPtest,218,g,true,538.3999999985099,0,b,,0,3,0,
c9o,RSVPtest,219,g,true,67.89999999850988,1,r,,3,2,1,
c9o,RSVPtest,220,g,true,34.899999998509884,2,g,,3,1,1,
c9o,RSVPtest,221,g,false,839.2999999970198,2,g,,0,1,1,
c9o,RSVPtest,222,g,true,1290.5999999940395,1,r,,3,0,1,
c9o,RSVPtest,223,g,true,232.79999999701977,1,r,,2,1,1,
c9o,RSVPtest,224,g,false,136.69999999552965,0,b,,3,3,0,
c9o,RSVPtest,225,g,false,14.199999995529652,0,b,,3,3,0,
c9o,RSVPtest,226,g,true,58.899999998509884,2,g,,1,1,2,
c9o,RSVPtest,227,g,false,241.80000000447035,2,g,,3,2,1,
c9o,RSVPtest,228,g,false,71.80000000447035,1,r,,3,2,1,
c9o,RSVPtest,229,g,false,58.899999998509884,2,g,,3,1,1,
c9o,RSVPtest,230,g,true,215.5,2,g,,1,1,2,
c9o,RSVPtest,231,g,true,9.899999998509884,0,b,,2,3,0,
c9o,RSVPtest,232,g,true,597.8000000044703,1,r,,3,1,1,
c9o,RSVPtest,233,g,true,703.3999999985099,2,g,,3,2,1,
c9o,RSVPtest,234,g,true,896.8999999985099,1,r,,3,2,1,
c9o,RSVPtest,235,g,true,375.09999999403954,2,g,,0,1,1,
c9o,RSVPtest,236,g,false,600.1000000014901,2,g,,0,0,2,
c9o,RSVPtest,237,g,false,785.8999999985099,0,b,,2,3,0,
c9o,RSVPtest,238,g,false,538.6999999955297,1,r,,2,1,1,
c9o,RSVPtest,239,g,false,71.89999999850988,1,r,,2,0,1,
c9o,RSVPtest,240,g,false,363.80000000447035,2,g,,0,1,1,
