subID,trialType,trialNum,cntBalance,correct,rt,rwdType,tgtCol,tgtDir,tgtPos,colPos,colMatch
c1z,VDACtrain,0,g,null,null,2,g,v,5,,
c1z,VDACtrain,0,g,TRUE,621.3,2,g,v,0,,
c1z,VDACtrain,0,g,null,null,2,g,h,5,,
c1z,VDACtrain,0,g,FALSE,594.1,1,r,h,0,,
c1z,VDACtrain,0,g,null,null,1,r,v,3,,
c1z,VDACtrain,0,g,TRUE,961.4,2,g,h,3,,
c1z,VDACtrain,0,g,FALSE,613.3,1,r,h,1,,
c1z,VDACtrain,0,g,TRUE,797.5,1,r,v,4,,
c1z,VDACtrain,0,g,TRUE,742.2,2,g,v,2,,
c1z,VDACtrain,0,g,FALSE,646.7,1,r,h,2,,
c1z,VDACtrain,0,g,TRUE,888.2,2,g,h,3,,
c1z,VDACtrain,0,g,TRUE,621.8,2,g,v,2,,
c1z,VDACtrain,0,g,TRUE,582.9,1,r,h,0,,
c1z,VDACtrain,0,g,TRUE,709.4,2,g,v,0,,
c1z,VDACtrain,0,g,FALSE,877.1,1,r,h,2,,
c1z,VDACtrain,0,g,TRUE,798.5,2,g,h,5,,
c1z,VDACtrain,0,g,TRUE,678.2,1,r,h,1,,
c1z,VDACtrain,0,g,TRUE,621.4,1,r,v,4,,
c1z,VDACtrain,0,g,TRUE,546.4,1,r,v,3,,
c1z,VDACtrain,0,g,TRUE,508.5,2,g,v,5,,
c1z,VDACtest,1,g,TRUE,698.2,1,r,h,5,,
c1z,VDACtest,2,g,TRUE,635.3,1,r,v,4,,
c1z,VDACtest,3,g,TRUE,565.8,1,r,h,5,,
c1z,VDACtest,4,g,TRUE,599.3,1,r,h,3,,
c1z,VDACtest,5,g,TRUE,796.8,1,r,h,1,,
c1z,VDACtest,6,g,TRUE,365.3,2,g,v,4,,
c1z,VDACtest,7,g,FALSE,460.9,1,r,v,5,,
c1z,VDACtest,8,g,TRUE,509.3,2,g,h,3,,
c1z,VDACtest,9,g,FALSE,620.9,1,r,h,4,,
c1z,VDACtest,10,g,TRUE,581.6,1,r,h,4,,
c1z,VDACtest,11,g,TRUE,478.3,2,g,v,3,,
c1z,VDACtest,12,g,null,null,2,g,v,2,,
c1z,VDACtest,13,g,FALSE,855.9,2,g,h,2,,
c1z,VDACtest,14,g,TRUE,629.1,2,g,v,1,,
c1z,VDACtest,15,g,TRUE,628,2,g,h,2,,
c1z,VDACtest,16,g,TRUE,615.7,2,g,v,0,,
c1z,VDACtest,17,g,FALSE,596.7,2,g,h,4,,
c1z,VDACtest,18,g,TRUE,684.9,2,g,h,2,,
c1z,VDACtest,19,g,TRUE,509.3,1,r,v,5,,
c1z,VDACtest,20,g,TRUE,876.3,1,r,h,0,,
c1z,VDACtest,21,g,TRUE,581.9,2,g,v,4,,
c1z,VDACtest,22,g,TRUE,534.3,1,r,v,3,,
c1z,VDACtest,23,g,TRUE,454.6,2,g,v,5,,
c1z,VDACtest,24,g,TRUE,444.6,2,g,v,4,,
c1z,VDACtest,25,g,TRUE,421,1,r,h,2,,
c1z,VDACtest,26,g,TRUE,403.3,2,g,v,5,,
c1z,VDACtest,27,g,TRUE,533,1,r,h,4,,
c1z,VDACtest,28,g,TRUE,525.2,1,r,h,0,,
c1z,VDACtest,29,g,TRUE,388.3,2,g,v,0,,
c1z,VDACtest,30,g,TRUE,420.6,2,g,h,3,,
c1z,VDACtest,31,g,TRUE,444.8,1,r,v,4,,
c1z,VDACtest,32,g,TRUE,414.8,2,g,h,4,,
c1z,VDACtest,33,g,FALSE,509.2,1,r,h,5,,
c1z,VDACtest,34,g,TRUE,413.7,2,g,v,5,,
c1z,VDACtest,35,g,FALSE,508.6,1,r,h,1,,
c1z,VDACtest,36,g,TRUE,364.3,1,r,h,5,,
c1z,VDACtest,37,g,TRUE,437.6,2,g,h,4,,
c1z,VDACtest,38,g,TRUE,524.6,2,g,v,2,,
c1z,VDACtest,39,g,TRUE,660.4,1,r,h,2,,
c1z,VDACtest,40,g,TRUE,478.8,1,r,h,0,,
c1z,VDACtest,41,g,TRUE,404.9,2,g,v,4,,
c1z,VDACtest,42,g,FALSE,491.9,1,r,v,0,,
c1z,VDACtest,43,g,FALSE,435.8,1,r,h,4,,
c1z,VDACtest,44,g,FALSE,498,2,g,h,0,,
c1z,VDACtest,45,g,TRUE,678.6,2,g,v,1,,
c1z,VDACtest,46,g,TRUE,357.2,1,r,h,4,,
c1z,VDACtest,47,g,FALSE,543.2,1,r,v,1,,
c1z,VDACtest,48,g,FALSE,550.5,1,r,v,0,,
c1z,VDACtest,49,g,TRUE,542.6,2,g,v,1,,
c1z,VDACtest,50,g,TRUE,525.7,1,r,h,3,,
brk,brk,brk,brk,brk,brk,brk,brk,brk,brk,brk,brk
c1z,VDACtest,51,g,TRUE,596.8,2,g,v,0,,
c1z,VDACtest,52,g,TRUE,524.8,1,r,v,0,,
c1z,VDACtest,53,g,TRUE,492.8,1,r,v,3,,
c1z,VDACtest,54,g,TRUE,413.5,2,g,h,3,,
c1z,VDACtest,55,g,TRUE,413.8,1,r,v,3,,
c1z,VDACtest,56,g,TRUE,534.2,2,g,h,4,,
c1z,VDACtest,57,g,TRUE,438.5,2,g,h,3,,
c1z,VDACtest,58,g,FALSE,436.6,1,r,h,0,,
c1z,VDACtest,59,g,TRUE,716.2,1,r,v,3,,
c1z,VDACtest,60,g,TRUE,508.6,1,r,h,1,,
c1z,VDACtest,61,g,TRUE,397.9,2,g,v,4,,
c1z,VDACtest,62,g,TRUE,501.5,1,r,v,5,,
c1z,VDACtest,63,g,TRUE,365,2,g,v,4,,
c1z,VDACtest,64,g,TRUE,484.4,1,r,v,3,,
c1z,VDACtest,65,g,TRUE,461.4,1,r,h,1,,
c1z,VDACtest,66,g,TRUE,414,2,g,v,0,,
c1z,VDACtest,67,g,FALSE,557.4,1,r,h,1,,
c1z,VDACtest,68,g,TRUE,542.1,2,g,h,1,,
c1z,VDACtest,69,g,TRUE,477,1,r,v,2,,
c1z,VDACtest,70,g,TRUE,371.3,2,g,h,5,,
c1z,VDACtest,71,g,TRUE,453.2,2,g,h,3,,
c1z,VDACtest,72,g,TRUE,533.8,2,g,v,2,,
c1z,VDACtest,73,g,FALSE,670.1,1,r,v,5,,
c1z,VDACtest,74,g,FALSE,501.1,2,g,h,5,,
c1z,VDACtest,75,g,TRUE,470.7,1,r,v,5,,
c1z,VDACtest,76,g,TRUE,421.3,2,g,h,0,,
c1z,VDACtest,77,g,FALSE,685,1,r,h,4,,
c1z,VDACtest,78,g,TRUE,469.5,2,g,v,0,,
c1z,VDACtest,79,g,TRUE,547.7,1,r,h,3,,
c1z,VDACtest,80,g,FALSE,575,1,r,v,2,,
c1z,VDACtest,81,g,TRUE,543.2,1,r,h,0,,
c1z,VDACtest,82,g,TRUE,556.8,1,r,h,5,,
c1z,VDACtest,83,g,TRUE,549.2,1,r,h,1,,
c1z,VDACtest,84,g,FALSE,452.8,2,g,h,1,,
c1z,VDACtest,85,g,TRUE,569.1,1,r,h,5,,
c1z,VDACtest,86,g,TRUE,749.2,1,r,h,4,,
c1z,VDACtest,87,g,TRUE,365.9,2,g,v,0,,
c1z,VDACtest,88,g,FALSE,429.2,1,r,v,1,,
c1z,VDACtest,89,g,TRUE,454.9,1,r,v,4,,
c1z,VDACtest,90,g,TRUE,373.8,1,r,v,5,,
c1z,VDACtest,91,g,TRUE,479.1,1,r,h,0,,
c1z,VDACtest,92,g,TRUE,518.5,2,g,h,2,,
c1z,VDACtest,93,g,FALSE,476.3,2,g,h,5,,
c1z,VDACtest,94,g,TRUE,580.6,2,g,h,3,,
c1z,VDACtest,95,g,TRUE,413.2,2,g,h,1,,
c1z,VDACtest,96,g,TRUE,610,1,r,h,2,,
c1z,VDACtest,97,g,TRUE,515.8,2,g,v,1,,
c1z,VDACtest,98,g,TRUE,541,2,g,h,4,,
c1z,VDACtest,99,g,TRUE,517.7,2,g,h,5,,
c1z,VDACtest,100,g,FALSE,517.6,1,r,h,3,,
brk,brk,brk,brk,brk,brk,brk,brk,brk,brk,brk,brk
c1z,VDACtest,101,g,TRUE,890,1,r,h,3,,
c1z,VDACtest,102,g,TRUE,421.1,2,g,v,5,,
c1z,VDACtest,103,g,FALSE,653.8,1,r,v,1,,
c1z,VDACtest,104,g,TRUE,468.5,1,r,v,0,,
c1z,VDACtest,105,g,TRUE,476.1,2,g,h,5,,
c1z,VDACtest,106,g,TRUE,597.4,2,g,h,1,,
c1z,VDACtest,107,g,TRUE,413.9,2,g,h,5,,
c1z,VDACtest,108,g,TRUE,381.6,1,r,v,1,,
c1z,VDACtest,109,g,TRUE,620.6,2,g,h,5,,
c1z,VDACtest,110,g,TRUE,532.7,2,g,h,1,,
c1z,VDACtest,111,g,TRUE,597.6,2,g,h,3,,
c1z,VDACtest,112,g,TRUE,469.5,2,g,v,1,,
c1z,VDACtest,113,g,TRUE,461.2,2,g,v,5,,
c1z,VDACtest,114,g,TRUE,412.3,2,g,h,1,,
c1z,VDACtest,115,g,TRUE,619.9,2,g,h,0,,
c1z,VDACtest,116,g,TRUE,982.2,1,r,h,3,,
c1z,VDACtest,117,g,TRUE,485.3,2,g,v,5,,
c1z,VDACtest,118,g,TRUE,502,2,g,h,1,,
c1z,VDACtest,119,g,TRUE,430.5,2,g,v,1,,
c1z,VDACtest,120,g,TRUE,467,1,r,v,1,,
c1z,VDACtest,121,g,TRUE,517.5,1,r,v,0,,
c1z,VDACtest,122,g,FALSE,508.7,2,g,v,4,,
c1z,VDACtest,123,g,TRUE,645.2,1,r,h,3,,
c1z,VDACtest,124,g,TRUE,637.2,2,g,h,4,,
c1z,VDACtest,125,g,TRUE,524.6,2,g,v,3,,
c1z,VDACtest,126,g,TRUE,460.7,2,g,v,5,,
c1z,VDACtest,127,g,TRUE,549.2,1,r,h,2,,
c1z,VDACtest,128,g,FALSE,444.2,1,r,v,2,,
c1z,VDACtest,129,g,TRUE,581.9,1,r,v,4,,
c1z,VDACtest,130,g,FALSE,541.9,2,g,h,1,,
c1z,VDACtest,131,g,TRUE,557.5,1,r,v,3,,
c1z,VDACtest,132,g,TRUE,531.8,2,g,v,2,,
c1z,VDACtest,133,g,TRUE,477.1,1,r,v,1,,
c1z,VDACtest,134,g,TRUE,549.7,2,g,h,3,,
c1z,VDACtest,135,g,TRUE,580.9,1,r,h,2,,
c1z,VDACtest,136,g,TRUE,636.4,2,g,h,0,,
c1z,VDACtest,137,g,TRUE,579.3,2,g,v,2,,
c1z,VDACtest,138,g,TRUE,502,2,g,v,3,,
c1z,VDACtest,139,g,TRUE,588.6,2,g,h,5,,
c1z,VDACtest,140,g,TRUE,637.4,2,g,v,1,,
c1z,VDACtest,141,g,TRUE,501.6,1,r,h,0,,
c1z,VDACtest,142,g,FALSE,445.3,1,r,v,2,,
c1z,VDACtest,143,g,FALSE,478.2,2,g,h,0,,
c1z,VDACtest,144,g,FALSE,675.9,2,g,v,1,,
c1z,VDACtest,145,g,TRUE,565.1,1,r,v,2,,
c1z,VDACtest,146,g,TRUE,732.4,2,g,h,4,,
c1z,VDACtest,147,g,TRUE,517.4,2,g,h,4,,
c1z,VDACtest,148,g,TRUE,573,2,g,v,0,,
c1z,VDACtest,149,g,TRUE,659.4,2,g,v,4,,
c1z,VDACtest,150,g,TRUE,500.3,2,g,v,3,,
brk,brk,brk,brk,brk,brk,brk,brk,brk,brk,brk,brk
c1z,VDACtest,151,g,FALSE,537,2,g,h,0,,
c1z,VDACtest,152,g,TRUE,612.8,2,g,h,4,,
c1z,VDACtest,153,g,TRUE,646,1,r,v,5,,
c1z,VDACtest,154,g,TRUE,533.8,1,r,h,3,,
c1z,VDACtest,155,g,FALSE,486.3,1,r,v,0,,
c1z,VDACtest,156,g,TRUE,668.6,2,g,h,0,,
c1z,VDACtest,157,g,FALSE,566.1,1,r,h,1,,
c1z,VDACtest,158,g,TRUE,596.3,2,g,v,0,,
c1z,VDACtest,159,g,FALSE,540.7,1,r,v,0,,
c1z,VDACtest,160,g,TRUE,645.7,1,r,h,0,,
c1z,VDACtest,161,g,TRUE,597.5,1,r,v,1,,
c1z,VDACtest,162,g,TRUE,668.7,1,r,h,4,,
c1z,VDACtest,163,g,TRUE,621.3,2,g,v,3,,
c1z,VDACtest,164,g,TRUE,557.2,1,r,v,3,,
c1z,VDACtest,165,g,TRUE,485.2,1,r,h,5,,
c1z,VDACtest,166,g,TRUE,469.1,2,g,v,2,,
c1z,VDACtest,167,g,TRUE,653.1,2,g,h,0,,
c1z,VDACtest,168,g,FALSE,566.1,1,r,h,2,,
c1z,VDACtest,169,g,TRUE,660.4,1,r,h,4,,
c1z,VDACtest,170,g,TRUE,572,1,r,v,4,,
c1z,VDACtest,171,g,TRUE,621.9,2,g,h,2,,
c1z,VDACtest,172,g,TRUE,637.4,1,r,h,2,,
c1z,VDACtest,173,g,TRUE,564.7,1,r,h,2,,
c1z,VDACtest,174,g,TRUE,501.4,2,g,v,2,,
c1z,VDACtest,175,g,TRUE,622,1,r,v,2,,
c1z,VDACtest,176,g,TRUE,509.7,1,r,v,1,,
c1z,VDACtest,177,g,TRUE,524.3,1,r,v,1,,
c1z,VDACtest,178,g,TRUE,581.7,1,r,v,4,,
c1z,VDACtest,179,g,TRUE,548.8,2,g,v,1,,
c1z,VDACtest,180,g,TRUE,541.6,2,g,h,1,,
c1z,VDACtest,181,g,FALSE,723.9,1,r,v,4,,
c1z,VDACtest,182,g,TRUE,668.5,2,g,h,2,,
c1z,VDACtest,183,g,TRUE,547.4,1,r,h,1,,
c1z,VDACtest,184,g,TRUE,564.2,1,r,v,3,,
c1z,VDACtest,185,g,TRUE,452.6,1,r,v,2,,
c1z,VDACtest,186,g,TRUE,526.9,1,r,v,5,,
c1z,VDACtest,187,g,TRUE,580.2,2,g,v,4,,
c1z,VDACtest,188,g,TRUE,469.1,1,r,h,5,,
c1z,VDACtest,189,g,TRUE,516.5,1,r,v,2,,
c1z,VDACtest,190,g,TRUE,486.4,2,g,v,3,,
c1z,VDACtest,191,g,TRUE,419.9,2,g,v,3,,
c1z,VDACtest,192,g,TRUE,643.1,1,r,v,4,,
c1z,VDACtest,193,g,TRUE,460.6,1,r,v,0,,
c1z,VDACtest,194,g,TRUE,506.9,1,r,h,1,,
c1z,VDACtest,195,g,TRUE,540.2,2,g,v,2,,
c1z,VDACtest,196,g,TRUE,540.6,1,r,v,4,,
c1z,VDACtest,197,g,TRUE,436,2,g,v,5,,
c1z,VDACtest,198,g,TRUE,478.5,2,g,h,2,,
c1z,VDACtest,199,g,FALSE,581.6,2,g,v,3,,
c1z,VDACtest,200,g,TRUE,436,2,g,h,2,,
c1z,RSVPtrain,0,g,FALSE,1028.9,0,b,,0,3,0
c1z,RSVPtrain,0,g,TRUE,856.6,2,g,,3,1,1
c1z,RSVPtrain,0,g,TRUE,703,1,r,,0,0,2
c1z,RSVPtrain,0,g,FALSE,617.1,1,r,,1,1,2
c1z,RSVPtrain,0,g,TRUE,999.4,1,r,,3,2,1
c1z,RSVPtrain,0,g,FALSE,906.6,0,b,,1,3,0
c1z,RSVPtrain,0,g,TRUE,992.9,0,b,,3,3,0
c1z,RSVPtrain,0,g,FALSE,897.6,2,g,,1,0,1
c1z,RSVPtrain,0,g,TRUE,927.6,2,g,,3,0,1
c1z,RSVPtrain,0,g,TRUE,528.9,2,g,,2,2,2
c1z,RSVPtest,1,g,TRUE,618.5,1,r,,0,2,1
c1z,RSVPtest,2,g,TRUE,598.9,0,b,,3,3,0
c1z,RSVPtest,3,g,TRUE,649.7,0,b,,3,3,0
c1z,RSVPtest,4,g,TRUE,805.6,0,b,,3,3,0
c1z,RSVPtest,5,g,TRUE,641.2,2,g,,3,0,1
c1z,RSVPtest,6,g,FALSE,810.2,1,r,,0,2,1
c1z,RSVPtest,7,g,FALSE,689.5,0,b,,0,3,0
c1z,RSVPtest,8,g,TRUE,384.6,1,r,,0,1,1
c1z,RSVPtest,9,g,TRUE,912.4,2,g,,0,1,1
c1z,RSVPtest,10,g,FALSE,1031.4,2,g,,1,2,1
c1z,RSVPtest,11,g,TRUE,408,1,r,,2,2,2
c1z,RSVPtest,12,g,TRUE,863,2,g,,1,0,1
c1z,RSVPtest,13,g,TRUE,704.4,0,b,,3,3,0
c1z,RSVPtest,14,g,TRUE,792.5,0,b,,2,3,0
c1z,RSVPtest,15,g,TRUE,502.1,0,b,,2,3,0
c1z,RSVPtest,16,g,TRUE,870.6,2,g,,2,1,1
c1z,RSVPtest,17,g,TRUE,623.9,0,b,,2,3,0
c1z,RSVPtest,18,g,TRUE,526.8,0,b,,3,3,0
c1z,RSVPtest,19,g,TRUE,799.9,2,g,,3,1,1
c1z,RSVPtest,20,g,FALSE,1125.1,1,r,,1,2,1
c1z,RSVPtest,21,g,TRUE,622.8,0,b,,1,3,0
c1z,RSVPtest,22,g,TRUE,686.6,1,r,,0,0,2
c1z,RSVPtest,23,g,FALSE,703.6,0,b,,3,3,0
c1z,RSVPtest,24,g,TRUE,422.7,0,b,,0,3,0
c1z,RSVPtest,25,g,TRUE,649.2,2,g,,0,0,2
c1z,RSVPtest,26,g,FALSE,584.4,0,b,,2,3,0
c1z,RSVPtest,27,g,FALSE,920.2,2,g,,3,1,1
c1z,RSVPtest,28,g,FALSE,997.3,2,g,,0,1,1
c1z,RSVPtest,29,g,TRUE,775.3,1,r,,3,1,1
c1z,RSVPtest,30,g,TRUE,564.9,2,g,,1,1,2
c1z,RSVPtest,31,g,TRUE,679.2,2,g,,2,2,2
c1z,RSVPtest,32,g,TRUE,741.4,0,b,,3,3,0
c1z,RSVPtest,33,g,TRUE,958.9,1,r,,0,2,1
c1z,RSVPtest,34,g,TRUE,735,0,b,,0,3,0
c1z,RSVPtest,35,g,TRUE,621.5,0,b,,1,3,0
c1z,RSVPtest,36,g,TRUE,686.4,2,g,,3,1,1
c1z,RSVPtest,37,g,TRUE,727,0,b,,3,3,0
c1z,RSVPtest,38,g,TRUE,503.4,1,r,,2,2,2
c1z,RSVPtest,39,g,TRUE,599.7,0,b,,0,3,0
c1z,RSVPtest,40,g,TRUE,991.1,2,g,,1,2,1
c1z,RSVPtest,41,g,TRUE,984.5,2,g,,3,0,1
c1z,RSVPtest,42,g,FALSE,368.7,0,b,,2,3,0
c1z,RSVPtest,43,g,TRUE,863.1,0,b,,0,3,0
c1z,RSVPtest,44,g,TRUE,965.8,0,b,,3,3,0
c1z,RSVPtest,45,g,TRUE,408.4,2,g,,0,2,1
c1z,RSVPtest,46,g,TRUE,639.2,1,r,,2,2,2
c1z,RSVPtest,47,g,TRUE,927.9,1,r,,1,0,1
c1z,RSVPtest,48,g,TRUE,1007.9,1,r,,2,1,1
c1z,RSVPtest,49,g,TRUE,647.6,1,r,,0,1,1
c1z,RSVPtest,50,g,TRUE,774.7,2,g,,3,1,1
c1z,RSVPtest,51,g,TRUE,1184.1,2,g,,1,0,1
c1z,RSVPtest,52,g,TRUE,664.9,2,g,,3,2,1
c1z,RSVPtest,53,g,TRUE,910.6,1,r,,3,1,1
c1z,RSVPtest,54,g,TRUE,734.1,1,r,,0,0,2
c1z,RSVPtest,55,g,TRUE,590.6,1,r,,3,1,1
c1z,RSVPtest,56,g,FALSE,959.7,1,r,,1,2,1
c1z,RSVPtest,57,g,TRUE,653.6,1,r,,0,1,1
c1z,RSVPtest,58,g,TRUE,773.9,0,b,,3,3,0
c1z,RSVPtest,59,g,TRUE,929.2,1,r,,3,0,1
c1z,RSVPtest,60,g,FALSE,694.2,0,b,,3,3,0
brk,brk,brk,brk,brk,brk,brk,brk,brk,brk,brk,brk
c1z,RSVPtest,61,g,TRUE,1061.8,2,g,,1,2,1
c1z,RSVPtest,62,g,TRUE,647.1,0,b,,0,3,0
c1z,RSVPtest,63,g,TRUE,792.5,1,r,,2,1,1
c1z,RSVPtest,64,g,TRUE,838.2,1,r,,3,0,1
c1z,RSVPtest,65,g,TRUE,664.7,1,r,,3,0,1
c1z,RSVPtest,66,g,TRUE,542.2,2,g,,0,2,1
c1z,RSVPtest,67,g,TRUE,582.4,0,b,,2,3,0
c1z,RSVPtest,68,g,TRUE,542.3,1,r,,1,0,1
c1z,RSVPtest,69,g,FALSE,622.9,2,g,,3,2,1
c1z,RSVPtest,70,g,FALSE,1016.7,2,g,,1,0,1
c1z,RSVPtest,71,g,TRUE,682.8,1,r,,0,2,1
c1z,RSVPtest,72,g,TRUE,693.9,2,g,,0,1,1
c1z,RSVPtest,73,g,TRUE,927.7,2,g,,3,0,1
c1z,RSVPtest,74,g,TRUE,700.6,1,r,,3,2,1
c1z,RSVPtest,75,g,TRUE,615.9,1,r,,2,0,1
c1z,RSVPtest,76,g,TRUE,463.3,2,g,,0,2,1
c1z,RSVPtest,77,g,TRUE,647,2,g,,0,0,2
c1z,RSVPtest,78,g,TRUE,932.8,1,r,,3,2,1
c1z,RSVPtest,79,g,TRUE,792.1,1,r,,3,0,1
c1z,RSVPtest,80,g,TRUE,731.8,2,g,,2,0,1
c1z,RSVPtest,81,g,TRUE,686.7,2,g,,2,0,1
c1z,RSVPtest,82,g,FALSE,421.7,0,b,,3,3,0
c1z,RSVPtest,83,g,TRUE,766.5,1,r,,3,0,1
c1z,RSVPtest,84,g,TRUE,1036.3,1,r,,3,0,1
c1z,RSVPtest,85,g,TRUE,1148.4,2,g,,3,2,1
c1z,RSVPtest,86,g,TRUE,692.1,2,g,,1,1,2
c1z,RSVPtest,87,g,TRUE,982.4,0,b,,1,3,0
c1z,RSVPtest,88,g,TRUE,847.6,1,r,,3,0,1
c1z,RSVPtest,89,g,TRUE,694,0,b,,3,3,0
c1z,RSVPtest,90,g,TRUE,735.3,1,r,,3,0,1
c1z,RSVPtest,91,g,TRUE,675.8,2,g,,2,1,1
c1z,RSVPtest,92,g,FALSE,821.3,0,b,,1,3,0
c1z,RSVPtest,93,g,TRUE,886.3,0,b,,0,3,0
c1z,RSVPtest,94,g,TRUE,957.6,2,g,,0,1,1
c1z,RSVPtest,95,g,FALSE,1038.4,2,g,,3,0,1
c1z,RSVPtest,96,g,FALSE,1278.5,0,b,,1,3,0
c1z,RSVPtest,97,g,TRUE,516.3,0,b,,0,3,0
c1z,RSVPtest,98,g,TRUE,668,1,r,,3,1,1
c1z,RSVPtest,99,g,TRUE,1006,1,r,,3,2,1
c1z,RSVPtest,100,g,TRUE,893.9,0,b,,2,3,0
c1z,RSVPtest,101,g,FALSE,830.4,0,b,,1,3,0
c1z,RSVPtest,102,g,TRUE,740,1,r,,3,2,1
c1z,RSVPtest,103,g,TRUE,439.1,0,b,,0,3,0
c1z,RSVPtest,104,g,TRUE,974.9,1,r,,0,0,2
c1z,RSVPtest,105,g,TRUE,781.8,0,b,,3,3,0
c1z,RSVPtest,106,g,TRUE,517.2,1,r,,2,1,1
c1z,RSVPtest,107,g,TRUE,407.4,2,g,,0,0,2
c1z,RSVPtest,108,g,TRUE,701.3,1,r,,0,0,2
c1z,RSVPtest,109,g,TRUE,678.1,0,b,,3,3,0
c1z,RSVPtest,110,g,TRUE,652.6,0,b,,1,3,0
c1z,RSVPtest,111,g,FALSE,814.7,1,r,,3,2,1
c1z,RSVPtest,112,g,TRUE,421.2,1,r,,1,0,1
c1z,RSVPtest,113,g,TRUE,781.2,1,r,,2,0,1
c1z,RSVPtest,114,g,TRUE,821.9,1,r,,1,1,2
c1z,RSVPtest,115,g,TRUE,614.3,1,r,,1,2,1
c1z,RSVPtest,116,g,TRUE,708.2,2,g,,0,1,1
c1z,RSVPtest,117,g,FALSE,943.6,2,g,,2,0,1
c1z,RSVPtest,118,g,FALSE,1165.7,1,r,,0,2,1
c1z,RSVPtest,119,g,FALSE,959,1,r,,0,2,1
c1z,RSVPtest,120,g,TRUE,685.4,1,r,,3,1,1
brk,brk,brk,brk,brk,brk,brk,brk,brk,brk,brk,brk
c1z,RSVPtest,121,g,TRUE,764,2,g,,3,1,1
c1z,RSVPtest,122,g,TRUE,605,2,g,,3,1,1
c1z,RSVPtest,123,g,TRUE,813.3,1,r,,0,0,2
c1z,RSVPtest,124,g,TRUE,590.2,2,g,,2,2,2
c1z,RSVPtest,125,g,FALSE,885.1,2,g,,3,0,1
c1z,RSVPtest,126,g,TRUE,639.4,2,g,,3,1,1
c1z,RSVPtest,127,g,TRUE,997.4,0,b,,0,3,0
c1z,RSVPtest,128,g,TRUE,683.3,0,b,,3,3,0
c1z,RSVPtest,129,g,TRUE,436.4,0,b,,2,3,0
c1z,RSVPtest,130,g,FALSE,1108.3,1,r,,1,1,2
c1z,RSVPtest,131,g,TRUE,757.5,1,r,,0,1,1
c1z,RSVPtest,132,g,TRUE,876.6,2,g,,3,2,1
c1z,RSVPtest,133,g,TRUE,722.7,1,r,,2,0,1
c1z,RSVPtest,134,g,TRUE,998.8,0,b,,1,3,0
c1z,RSVPtest,135,g,FALSE,614.3,1,r,,3,2,1
c1z,RSVPtest,136,g,TRUE,813.8,2,g,,3,1,1
c1z,RSVPtest,137,g,TRUE,389.2,2,g,,0,1,1
c1z,RSVPtest,138,g,TRUE,499.7,1,r,,1,1,2
c1z,RSVPtest,139,g,TRUE,855.6,1,r,,3,2,1
c1z,RSVPtest,140,g,TRUE,805.3,2,g,,1,1,2
c1z,RSVPtest,141,g,TRUE,917.7,2,g,,1,0,1
c1z,RSVPtest,142,g,TRUE,876.3,0,b,,3,3,0
c1z,RSVPtest,143,g,TRUE,757.3,1,r,,1,1,2
c1z,RSVPtest,144,g,TRUE,693,2,g,,1,2,1
c1z,RSVPtest,145,g,TRUE,435.5,2,g,,2,0,1
c1z,RSVPtest,146,g,TRUE,635.4,1,r,,0,0,2
c1z,RSVPtest,147,g,FALSE,723.7,1,r,,3,0,1
c1z,RSVPtest,148,g,FALSE,710.1,0,b,,2,3,0
c1z,RSVPtest,149,g,TRUE,492.1,2,g,,2,0,1
c1z,RSVPtest,150,g,FALSE,749.2,1,r,,3,1,1
c1z,RSVPtest,151,g,TRUE,747.9,0,b,,3,3,0
c1z,RSVPtest,152,g,FALSE,1379.9,1,r,,1,1,2
c1z,RSVPtest,153,g,TRUE,804,2,g,,2,1,1
c1z,RSVPtest,154,g,TRUE,781.3,2,g,,3,2,1
c1z,RSVPtest,155,g,TRUE,932,2,g,,3,0,1
c1z,RSVPtest,156,g,TRUE,763.4,2,g,,3,1,1
c1z,RSVPtest,157,g,TRUE,890.6,1,r,,3,2,1
c1z,RSVPtest,158,g,TRUE,709.4,0,b,,3,3,0
c1z,RSVPtest,159,g,TRUE,1205.5,0,b,,3,3,0
c1z,RSVPtest,160,g,TRUE,661,2,g,,3,2,1
c1z,RSVPtest,161,g,TRUE,733.8,2,g,,1,0,1
c1z,RSVPtest,162,g,TRUE,894,2,g,,3,2,1
c1z,RSVPtest,163,g,TRUE,814.3,0,b,,1,3,0
c1z,RSVPtest,164,g,TRUE,756.3,1,r,,3,2,1
c1z,RSVPtest,165,g,TRUE,846.3,1,r,,2,1,1
c1z,RSVPtest,166,g,FALSE,844.8,1,r,,3,1,1
c1z,RSVPtest,167,g,FALSE,1055.9,2,g,,1,2,1
c1z,RSVPtest,168,g,TRUE,940.2,2,g,,3,1,1
c1z,RSVPtest,169,g,FALSE,750.4,1,r,,3,0,1
c1z,RSVPtest,170,g,TRUE,477.8,0,b,,1,3,0
c1z,RSVPtest,171,g,TRUE,964.4,2,g,,3,0,1
c1z,RSVPtest,172,g,TRUE,868.4,0,b,,3,3,0
c1z,RSVPtest,173,g,TRUE,740.6,1,r,,1,1,2
c1z,RSVPtest,174,g,FALSE,660.3,1,r,,1,2,1
c1z,RSVPtest,175,g,TRUE,644.6,1,r,,3,2,1
c1z,RSVPtest,176,g,TRUE,764.9,1,r,,3,1,1
c1z,RSVPtest,177,g,TRUE,694.1,1,r,,3,0,1
c1z,RSVPtest,178,g,FALSE,844.4,2,g,,2,0,1
c1z,RSVPtest,179,g,TRUE,811.3,2,g,,3,2,1
c1z,RSVPtest,180,g,TRUE,868,1,r,,1,2,1
brk,brk,brk,brk,brk,brk,brk,brk,brk,brk,brk,brk
c1z,RSVPtest,181,g,FALSE,717.9,1,r,,3,1,1
c1z,RSVPtest,182,g,TRUE,693,2,g,,3,2,1
c1z,RSVPtest,183,g,TRUE,523.8,0,b,,2,3,0
c1z,RSVPtest,184,g,TRUE,814.4,1,r,,2,1,1
c1z,RSVPtest,185,g,TRUE,717,2,g,,1,2,1
c1z,RSVPtest,186,g,TRUE,605.2,1,r,,3,1,1
c1z,RSVPtest,187,g,FALSE,764.6,2,g,,3,0,1
c1z,RSVPtest,188,g,FALSE,852.2,2,g,,3,2,1
c1z,RSVPtest,189,g,TRUE,802.4,2,g,,3,0,1
c1z,RSVPtest,190,g,TRUE,780.5,1,r,,3,2,1
c1z,RSVPtest,191,g,TRUE,1012.3,2,g,,0,2,1
c1z,RSVPtest,192,g,TRUE,676,2,g,,0,2,1
c1z,RSVPtest,193,g,TRUE,537.7,2,g,,2,2,2
c1z,RSVPtest,194,g,FALSE,862.1,1,r,,0,1,1
c1z,RSVPtest,195,g,TRUE,899.9,2,g,,3,1,1
c1z,RSVPtest,196,g,FALSE,739.1,0,b,,1,3,0
c1z,RSVPtest,197,g,FALSE,661.4,2,g,,0,2,1
c1z,RSVPtest,198,g,TRUE,1106.4,2,g,,3,2,1
c1z,RSVPtest,199,g,TRUE,762.8,2,g,,2,1,1
c1z,RSVPtest,200,g,TRUE,637.3,1,r,,2,0,1
c1z,RSVPtest,201,g,TRUE,442.1,2,g,,0,0,2
c1z,RSVPtest,202,g,TRUE,573.6,2,g,,1,0,1
c1z,RSVPtest,203,g,TRUE,420.7,2,g,,0,0,2
c1z,RSVPtest,204,g,FALSE,908.4,2,g,,2,2,2
c1z,RSVPtest,205,g,FALSE,460,2,g,,3,0,1
c1z,RSVPtest,206,g,FALSE,668.3,1,r,,1,0,1
c1z,RSVPtest,207,g,TRUE,838.1,2,g,,3,0,1
c1z,RSVPtest,208,g,TRUE,1002,2,g,,3,2,1
c1z,RSVPtest,209,g,TRUE,891.8,0,b,,3,3,0
c1z,RSVPtest,210,g,TRUE,769.8,1,r,,2,0,1
c1z,RSVPtest,211,g,FALSE,1083.3,0,b,,0,3,0
c1z,RSVPtest,212,g,TRUE,772.2,1,r,,2,0,1
c1z,RSVPtest,213,g,TRUE,665.8,1,r,,3,1,1
c1z,RSVPtest,214,g,FALSE,684.7,1,r,,1,0,1
c1z,RSVPtest,215,g,TRUE,609.4,1,r,,3,1,1
c1z,RSVPtest,216,g,TRUE,725.4,2,g,,3,1,1
c1z,RSVPtest,217,g,TRUE,523.7,2,g,,2,1,1
c1z,RSVPtest,218,g,FALSE,910.2,2,g,,1,1,2
c1z,RSVPtest,219,g,TRUE,630.2,1,r,,2,2,2
c1z,RSVPtest,220,g,TRUE,580.3,0,b,,3,3,0
c1z,RSVPtest,221,g,TRUE,669.6,2,g,,1,1,2
c1z,RSVPtest,222,g,TRUE,389.6,2,g,,2,2,2
c1z,RSVPtest,223,g,FALSE,854.2,2,g,,3,0,1
c1z,RSVPtest,224,g,FALSE,865.3,1,r,,1,0,1
c1z,RSVPtest,225,g,TRUE,813.3,0,b,,2,3,0
c1z,RSVPtest,226,g,TRUE,594.7,1,r,,3,0,1
c1z,RSVPtest,227,g,TRUE,662.8,0,b,,2,3,0
c1z,RSVPtest,228,g,TRUE,908.6,1,r,,1,2,1
c1z,RSVPtest,229,g,TRUE,636.3,0,b,,3,3,0
c1z,RSVPtest,230,g,TRUE,488.7,2,g,,2,2,2
c1z,RSVPtest,231,g,TRUE,739.9,0,b,,1,3,0
c1z,RSVPtest,232,g,FALSE,1173.1,1,r,,0,1,1
c1z,RSVPtest,233,g,TRUE,773,2,g,,2,1,1
c1z,RSVPtest,234,g,TRUE,685.1,1,r,,2,1,1
c1z,RSVPtest,235,g,TRUE,776.9,2,g,,1,1,2
c1z,RSVPtest,236,g,TRUE,501.4,0,b,,0,3,0
c1z,RSVPtest,237,g,TRUE,379.3,1,r,,2,2,2
c1z,RSVPtest,238,g,TRUE,859.7,1,r,,3,2,1
c1z,RSVPtest,239,g,TRUE,695.9,1,r,,2,2,2
c1z,RSVPtest,240,g,TRUE,768.8,2,g,,0,0,2
subID,trialType,trialNum,cntBalance,correct,rt,rwdType,tgtCol,tgtDir,tgtPos,colPos,colMatch
fw6,VDACtrain,0,g,null,null,1,r,h,0,,
fw6,VDACtrain,0,g,TRUE,859.2999997,2,g,h,5,,
fw6,VDACtrain,0,g,null,null,1,r,v,4,,
fw6,VDACtrain,0,g,TRUE,728.0999999,2,g,h,3,,
fw6,VDACtrain,0,g,TRUE,682.8999996,2,g,v,0,,
fw6,VDACtrain,0,g,null,null,1,r,h,1,,
fw6,VDACtrain,0,g,null,null,1,r,h,2,,
fw6,VDACtrain,0,g,TRUE,799.5,2,g,v,5,,
fw6,VDACtrain,0,g,TRUE,788.5,2,g,v,2,,
fw6,VDACtrain,0,g,FALSE,651.9000001,1,r,v,3,,
fw6,VDACtest,1,g,TRUE,609.5999999,1,r,v,4,,
fw6,VDACtest,2,g,FALSE,698.9000001,1,r,v,3,,
fw6,VDACtest,3,g,TRUE,779.5,2,g,h,1,,
fw6,VDACtest,4,g,TRUE,705.8000002,1,r,h,0,,
fw6,VDACtest,5,g,TRUE,639.7000003,2,g,v,4,,
fw6,VDACtest,6,g,TRUE,666.2999997,2,g,h,1,,
fw6,VDACtest,7,g,TRUE,683.5,2,g,v,0,,
fw6,VDACtest,8,g,TRUE,636,1,r,h,3,,
fw6,VDACtest,9,g,TRUE,680.8000002,1,r,v,5,,
fw6,VDACtest,10,g,FALSE,578.9000001,1,r,v,2,,
fw6,VDACtest,11,g,TRUE,706.5,2,g,v,0,,
fw6,VDACtest,12,g,TRUE,523.8999996,1,r,v,5,,
fw6,VDACtest,13,g,TRUE,501,2,g,h,5,,
fw6,VDACtest,14,g,TRUE,882.7999997,1,r,v,1,,
fw6,VDACtest,15,g,FALSE,597,2,g,v,1,,
fw6,VDACtest,16,g,FALSE,635.9000001,2,g,v,2,,
fw6,VDACtest,17,g,TRUE,674.7999997,1,r,h,2,,
fw6,VDACtest,18,g,TRUE,740.0999999,1,r,h,4,,
fw6,VDACtest,19,g,TRUE,620.3000002,1,r,v,3,,
fw6,VDACtest,20,g,TRUE,659.6999998,1,r,v,4,,
fw6,VDACtest,21,g,TRUE,579.7999997,1,r,h,2,,
fw6,VDACtest,22,g,TRUE,640.7000003,2,g,v,3,,
fw6,VDACtest,23,g,TRUE,780.5999999,2,g,h,4,,
fw6,VDACtest,24,g,TRUE,747.3000002,2,g,v,2,,
fw6,VDACtest,25,g,TRUE,522.0999999,2,g,v,2,,
fw6,VDACtest,26,g,TRUE,651.8000002,2,g,h,1,,
fw6,VDACtest,27,g,null,null,1,r,h,2,,
fw6,VDACtest,28,g,TRUE,582.7999997,2,g,h,2,,
fw6,VDACtest,29,g,TRUE,666.5999999,2,g,v,0,,
fw6,VDACtest,30,g,TRUE,652.7000003,1,r,v,3,,
fw6,VDACtest,31,g,null,null,2,g,v,1,,
fw6,VDACtest,32,g,TRUE,622.9000001,2,g,h,4,,
fw6,VDACtest,33,g,TRUE,643.9000001,1,r,h,3,,
fw6,VDACtest,34,g,TRUE,564.2999997,2,g,v,2,,
fw6,VDACtest,35,g,TRUE,570.8000002,1,r,h,1,,
fw6,VDACtest,36,g,TRUE,755.7000003,2,g,v,0,,
fw6,VDACtest,37,g,null,null,1,r,v,2,,
fw6,VDACtest,38,g,TRUE,679.9000001,1,r,v,5,,
fw6,VDACtest,39,g,TRUE,611.5999999,2,g,v,3,,
fw6,VDACtest,40,g,TRUE,711.2999997,2,g,v,0,,
fw6,VDACtest,41,g,TRUE,557.4000001,1,r,h,3,,
fw6,VDACtest,42,g,TRUE,781.5,2,g,h,1,,
fw6,VDACtest,43,g,TRUE,812,1,r,v,5,,
fw6,VDACtest,44,g,TRUE,516.6999998,1,r,v,5,,
fw6,VDACtest,45,g,TRUE,578.2999997,2,g,v,5,,
fw6,VDACtest,46,g,TRUE,938.7999997,1,r,v,3,,
fw6,VDACtest,47,g,null,null,2,g,v,2,,
fw6,VDACtest,48,g,TRUE,545.3999996,1,r,h,4,,
fw6,VDACtest,49,g,null,null,1,r,v,2,,
fw6,VDACtest,50,g,TRUE,702.2000003,2,g,h,0,,
brk,brk,brk,brk,brk,brk,brk,brk,brk,brk,brk,brk
fw6,VDACtest,51,g,TRUE,895.8999996,1,r,h,0,,
fw6,VDACtest,52,g,TRUE,569.1999998,1,r,h,3,,
fw6,VDACtest,53,g,TRUE,481.4000001,2,g,v,3,,
fw6,VDACtest,54,g,TRUE,747.8999996,2,g,h,2,,
fw6,VDACtest,55,g,TRUE,914.5999999,1,r,h,4,,
fw6,VDACtest,56,g,TRUE,690.4000001,1,r,v,2,,
fw6,VDACtest,57,g,TRUE,546.5,1,r,h,3,,
fw6,VDACtest,58,g,FALSE,530.7000003,1,r,h,1,,
fw6,VDACtest,59,g,null,null,2,g,h,0,,
fw6,VDACtest,60,g,TRUE,596.2999997,1,r,v,3,,
fw6,VDACtest,61,g,TRUE,651.8000002,2,g,v,2,,
fw6,VDACtest,62,g,TRUE,603.2000003,1,r,h,5,,
fw6,VDACtest,63,g,FALSE,798.0999999,2,g,h,2,,
fw6,VDACtest,64,g,TRUE,483.7999997,2,g,h,2,,
fw6,VDACtest,65,g,TRUE,588.3000002,2,g,v,3,,
fw6,VDACtest,66,g,TRUE,602.7000003,2,g,h,4,,
fw6,VDACtest,67,g,TRUE,644.3999996,2,g,h,2,,
fw6,VDACtest,68,g,TRUE,594.8999996,1,r,v,4,,
fw6,VDACtest,69,g,TRUE,990.9000001,1,r,v,1,,
fw6,VDACtest,70,g,TRUE,644,1,r,h,5,,
fw6,VDACtest,71,g,TRUE,714.8999996,2,g,v,5,,
fw6,VDACtest,72,g,TRUE,626.9000001,1,r,v,5,,
fw6,VDACtest,73,g,TRUE,724,2,g,v,0,,
fw6,VDACtest,74,g,TRUE,938.5,1,r,h,3,,
fw6,VDACtest,75,g,TRUE,668,1,r,h,5,,
fw6,VDACtest,76,g,TRUE,955,1,r,h,1,,
fw6,VDACtest,77,g,TRUE,635.9000001,2,g,v,1,,
fw6,VDACtest,78,g,TRUE,651.8000002,1,r,v,0,,
fw6,VDACtest,79,g,TRUE,730.2999997,1,r,v,4,,
fw6,VDACtest,80,g,TRUE,690.5,1,r,h,0,,
fw6,VDACtest,81,g,TRUE,653.0999999,1,r,h,3,,
fw6,VDACtest,82,g,TRUE,659.0999999,2,g,h,5,,
fw6,VDACtest,83,g,TRUE,627.0999999,1,r,h,0,,
fw6,VDACtest,84,g,TRUE,741.5,2,g,h,4,,
fw6,VDACtest,85,g,TRUE,947,1,r,v,1,,
fw6,VDACtest,86,g,TRUE,578.4000001,1,r,h,4,,
fw6,VDACtest,87,g,TRUE,571.7999997,2,g,h,3,,
fw6,VDACtest,88,g,TRUE,571.5,1,r,v,4,,
fw6,VDACtest,89,g,TRUE,564.3000002,1,r,v,3,,
fw6,VDACtest,90,g,TRUE,660.3999996,1,r,h,4,,
fw6,VDACtest,91,g,TRUE,948.2000003,1,r,h,0,,
fw6,VDACtest,92,g,TRUE,478.2000003,2,g,h,3,,
fw6,VDACtest,93,g,TRUE,669.4000001,1,r,h,0,,
fw6,VDACtest,94,g,TRUE,793.5,2,g,v,1,,
fw6,VDACtest,95,g,TRUE,596.7000003,2,g,v,5,,
fw6,VDACtest,96,g,TRUE,620.4000001,2,g,v,4,,
fw6,VDACtest,97,g,TRUE,601.6000004,2,g,h,4,,
fw6,VDACtest,98,g,TRUE,587.8000002,1,r,v,4,,
fw6,VDACtest,99,g,TRUE,481.7999997,2,g,h,3,,
fw6,VDACtest,100,g,TRUE,948,1,r,v,1,,
brk,brk,brk,brk,brk,brk,brk,brk,brk,brk,brk,brk
fw6,VDACtest,101,g,TRUE,930.0999999,2,g,h,3,,
fw6,VDACtest,102,g,TRUE,743.8000002,1,r,h,2,,
fw6,VDACtest,103,g,TRUE,755.4000001,2,g,h,5,,
fw6,VDACtest,104,g,TRUE,541.0999999,1,r,h,2,,
fw6,VDACtest,105,g,TRUE,738.5999999,1,r,h,5,,
fw6,VDACtest,106,g,TRUE,493,2,g,h,5,,
fw6,VDACtest,107,g,TRUE,586.3000002,2,g,v,1,,
fw6,VDACtest,108,g,TRUE,619.1999998,1,r,h,1,,
fw6,VDACtest,109,g,TRUE,451.7999997,2,g,h,1,,
fw6,VDACtest,110,g,TRUE,788.5999999,1,r,h,4,,
fw6,VDACtest,111,g,TRUE,522.9000001,2,g,h,5,,
fw6,VDACtest,112,g,TRUE,917.6999998,1,r,v,1,,
fw6,VDACtest,113,g,TRUE,666,1,r,v,4,,
fw6,VDACtest,114,g,TRUE,635.7000003,2,g,v,3,,
fw6,VDACtest,115,g,TRUE,640.0999999,2,g,v,1,,
fw6,VDACtest,116,g,TRUE,547.0999999,2,g,v,4,,
fw6,VDACtest,117,g,TRUE,642.0999999,2,g,h,3,,
fw6,VDACtest,118,g,TRUE,612,1,r,h,4,,
fw6,VDACtest,119,g,TRUE,616.9000001,1,r,h,3,,
fw6,VDACtest,120,g,TRUE,491.6000004,1,r,v,4,,
fw6,VDACtest,121,g,TRUE,507,2,g,v,4,,
fw6,VDACtest,122,g,null,null,2,g,v,2,,
fw6,VDACtest,123,g,TRUE,503.1000004,2,g,v,4,,
fw6,VDACtest,124,g,TRUE,942.8999996,1,r,h,5,,
fw6,VDACtest,125,g,TRUE,651.5999999,1,r,v,3,,
fw6,VDACtest,126,g,TRUE,649.5,1,r,v,4,,
fw6,VDACtest,127,g,TRUE,724.5,2,g,h,0,,
fw6,VDACtest,128,g,TRUE,724.3000002,2,g,v,3,,
fw6,VDACtest,129,g,TRUE,602.2999997,2,g,h,5,,
fw6,VDACtest,130,g,TRUE,482.0999999,2,g,v,4,,
fw6,VDACtest,131,g,TRUE,682.2000003,2,g,h,2,,
fw6,VDACtest,132,g,TRUE,811.5,1,r,v,1,,
fw6,VDACtest,133,g,TRUE,691.5,2,g,v,5,,
fw6,VDACtest,134,g,TRUE,643.1999998,1,r,h,0,,
fw6,VDACtest,135,g,TRUE,546,2,g,h,1,,
fw6,VDACtest,136,g,TRUE,579.1999998,1,r,v,5,,
fw6,VDACtest,137,g,TRUE,628,2,g,v,1,,
fw6,VDACtest,138,g,TRUE,527.7999997,1,r,h,1,,
fw6,VDACtest,139,g,TRUE,772.1999998,1,r,h,4,,
fw6,VDACtest,140,g,TRUE,484.8000002,2,g,v,5,,
fw6,VDACtest,141,g,TRUE,594.9000001,2,g,v,4,,
fw6,VDACtest,142,g,TRUE,578.8000002,2,g,h,5,,
fw6,VDACtest,143,g,FALSE,548,2,g,v,5,,
fw6,VDACtest,144,g,TRUE,755.5999999,1,r,v,0,,
fw6,VDACtest,145,g,TRUE,707,1,r,h,5,,
fw6,VDACtest,146,g,TRUE,577.1999998,2,g,v,5,,
fw6,VDACtest,147,g,TRUE,594.9000001,1,r,h,2,,
fw6,VDACtest,148,g,TRUE,787.0999999,1,r,h,4,,
fw6,VDACtest,149,g,TRUE,681.3999996,1,r,v,3,,
fw6,VDACtest,150,g,TRUE,546.7000003,1,r,v,0,,
brk,brk,brk,brk,brk,brk,brk,brk,brk,brk,brk,brk
fw6,VDACtest,151,g,TRUE,802.5,2,g,h,2,,
fw6,VDACtest,152,g,TRUE,490.4000001,2,g,v,0,,
fw6,VDACtest,153,g,TRUE,682.6000004,2,g,h,1,,
fw6,VDACtest,154,g,TRUE,500.8000002,1,r,v,0,,
fw6,VDACtest,155,g,TRUE,539.5,2,g,h,3,,
fw6,VDACtest,156,g,TRUE,516.1999998,1,r,v,0,,
fw6,VDACtest,157,g,TRUE,549.3000002,2,g,h,0,,
fw6,VDACtest,158,g,TRUE,744.8000002,1,r,v,2,,
fw6,VDACtest,159,g,TRUE,466.7999997,2,g,h,2,,
fw6,VDACtest,160,g,TRUE,525.0999999,1,r,h,2,,
fw6,VDACtest,161,g,TRUE,725.5999999,2,g,h,5,,
fw6,VDACtest,162,g,TRUE,610.7999997,2,g,h,4,,
fw6,VDACtest,163,g,TRUE,610.2000003,1,r,h,2,,
fw6,VDACtest,164,g,TRUE,651.1999998,2,g,h,0,,
fw6,VDACtest,165,g,TRUE,513.3000002,2,g,v,3,,
fw6,VDACtest,166,g,TRUE,536.9000001,2,g,h,0,,
fw6,VDACtest,167,g,TRUE,451.3000002,2,g,h,0,,
fw6,VDACtest,168,g,TRUE,731.3999996,1,r,v,2,,
fw6,VDACtest,169,g,TRUE,499.5999999,1,r,v,2,,
fw6,VDACtest,170,g,TRUE,595.5999999,2,g,v,5,,
fw6,VDACtest,171,g,TRUE,572.5999999,1,r,h,0,,
fw6,VDACtest,172,g,TRUE,491.8999996,2,g,h,0,,
fw6,VDACtest,173,g,TRUE,530.7000003,1,r,v,0,,
fw6,VDACtest,174,g,TRUE,690.5999999,1,r,v,2,,
fw6,VDACtest,175,g,TRUE,554.4000001,1,r,v,1,,
fw6,VDACtest,176,g,TRUE,539.2000003,2,g,h,4,,
fw6,VDACtest,177,g,TRUE,658.1000004,2,g,h,3,,
fw6,VDACtest,178,g,FALSE,523.0999999,1,r,h,1,,
fw6,VDACtest,179,g,TRUE,682.4000001,1,r,h,1,,
fw6,VDACtest,180,g,TRUE,589.7000003,1,r,v,0,,
fw6,VDACtest,181,g,TRUE,594.5999999,1,r,h,5,,
fw6,VDACtest,182,g,TRUE,536.5999999,2,g,v,1,,
fw6,VDACtest,183,g,TRUE,611.2000003,2,g,h,3,,
fw6,VDACtest,184,g,TRUE,618.6999998,1,r,h,1,,
fw6,VDACtest,185,g,TRUE,594.2999997,1,r,h,1,,
fw6,VDACtest,186,g,TRUE,635.0999999,2,g,v,0,,
fw6,VDACtest,187,g,TRUE,667,2,g,v,1,,
fw6,VDACtest,188,g,TRUE,588.5,1,r,v,1,,
fw6,VDACtest,189,g,TRUE,682.9000001,2,g,h,4,,
fw6,VDACtest,190,g,TRUE,612.4000001,2,g,v,4,,
fw6,VDACtest,191,g,TRUE,641.3000002,2,g,v,2,,
fw6,VDACtest,192,g,TRUE,531.3000002,2,g,v,4,,
fw6,VDACtest,193,g,TRUE,532.0999999,1,r,v,5,,
fw6,VDACtest,194,g,TRUE,664.8000002,2,g,h,4,,
fw6,VDACtest,195,g,TRUE,642.5999999,1,r,h,5,,
fw6,VDACtest,196,g,TRUE,578,2,g,v,3,,
fw6,VDACtest,197,g,TRUE,859.0999999,1,r,v,0,,
fw6,VDACtest,198,g,TRUE,636,1,r,v,1,,
fw6,VDACtest,199,g,TRUE,579.3000002,2,g,h,1,,
fw6,VDACtest,200,g,TRUE,506.6999998,2,g,h,1,,
fw6,RSVPtrain,0,g,FALSE,1979.4,0,b,,0,3,0
fw6,RSVPtrain,0,g,TRUE,1516.1,2,g,,1,0,1
fw6,RSVPtrain,0,g,TRUE,1500.8,0,b,,3,3,0
fw6,RSVPtrain,0,g,TRUE,895.5,1,r,,3,2,1
fw6,RSVPtrain,0,g,FALSE,965,1,r,,0,0,2
fw6,RSVPtrain,0,g,FALSE,1350.6,2,g,,2,2,2
fw6,RSVPtrain,0,g,TRUE,2126.3,1,r,,1,1,2
fw6,RSVPtrain,0,g,TRUE,1360,0,b,,1,3,0
fw6,RSVPtrain,0,g,TRUE,820.3999996,2,g,,3,0,1
fw6,RSVPtrain,0,g,TRUE,1166.5,2,g,,3,1,1
fw6,RSVPtest,1,g,TRUE,1880,1,r,,1,2,1
fw6,RSVPtest,2,g,TRUE,878.7999997,1,r,,3,0,1
fw6,RSVPtest,3,g,FALSE,1476.1,1,r,,3,2,1
fw6,RSVPtest,4,g,TRUE,2224.4,2,g,,0,0,2
fw6,RSVPtest,5,g,FALSE,1487.8,1,r,,3,1,1
fw6,RSVPtest,6,g,TRUE,868.5,1,r,,1,1,2
fw6,RSVPtest,7,g,TRUE,1053.2,2,g,,0,1,1
fw6,RSVPtest,8,g,FALSE,926,1,r,,0,0,2
fw6,RSVPtest,9,g,TRUE,1198.6,0,b,,0,3,0
fw6,RSVPtest,10,g,TRUE,1214.2,1,r,,3,1,1
fw6,RSVPtest,11,g,FALSE,901.1999998,1,r,,2,0,1
fw6,RSVPtest,12,g,TRUE,805.8000002,1,r,,3,2,1
fw6,RSVPtest,13,g,FALSE,1207.4,1,r,,2,0,1
fw6,RSVPtest,14,g,TRUE,780.7000003,1,r,,3,0,1
fw6,RSVPtest,15,g,FALSE,694.9000001,2,g,,2,0,1
fw6,RSVPtest,16,g,TRUE,1348.9,0,b,,0,3,0
fw6,RSVPtest,17,g,TRUE,1359.1,2,g,,2,1,1
fw6,RSVPtest,18,g,TRUE,992.8000002,2,g,,1,1,2
fw6,RSVPtest,19,g,TRUE,693.5999999,2,g,,3,0,1
fw6,RSVPtest,20,g,TRUE,1233.4,1,r,,2,2,2
fw6,RSVPtest,21,g,TRUE,1073.1,1,r,,3,0,1
fw6,RSVPtest,22,g,TRUE,829.2999997,2,g,,2,0,1
fw6,RSVPtest,23,g,TRUE,774.3000002,2,g,,3,1,1
fw6,RSVPtest,24,g,TRUE,860.4000001,0,b,,0,3,0
fw6,RSVPtest,25,g,FALSE,695.3000002,2,g,,3,0,1
fw6,RSVPtest,26,g,TRUE,525.0999999,0,b,,2,3,0
fw6,RSVPtest,27,g,TRUE,494.1999998,1,r,,1,2,1
fw6,RSVPtest,28,g,FALSE,671.7999997,1,r,,0,1,1
fw6,RSVPtest,29,g,TRUE,542.1000004,0,b,,0,3,0
fw6,RSVPtest,30,g,TRUE,565.9000001,1,r,,3,1,1
fw6,RSVPtest,31,g,FALSE,668.1999998,1,r,,1,0,1
fw6,RSVPtest,32,g,FALSE,819.5,0,b,,0,3,0
fw6,RSVPtest,33,g,FALSE,780.5,1,r,,0,2,1
fw6,RSVPtest,34,g,FALSE,629.8000002,2,g,,1,0,1
fw6,RSVPtest,35,g,TRUE,694.0999999,1,r,,2,2,2
fw6,RSVPtest,36,g,FALSE,644.4000001,1,r,,3,2,1
fw6,RSVPtest,37,g,TRUE,788.2999997,0,b,,3,3,0
fw6,RSVPtest,38,g,TRUE,1213.5,2,g,,0,1,1
fw6,RSVPtest,39,g,TRUE,853.9000001,1,r,,2,1,1
fw6,RSVPtest,40,g,TRUE,717.6999998,1,r,,3,0,1
fw6,RSVPtest,41,g,TRUE,587.0999999,2,g,,3,2,1
fw6,RSVPtest,42,g,FALSE,614,1,r,,3,2,1
fw6,RSVPtest,43,g,TRUE,661.8000002,2,g,,3,0,1
fw6,RSVPtest,44,g,FALSE,1498.2,2,g,,3,2,1
fw6,RSVPtest,45,g,TRUE,998,2,g,,0,2,1
fw6,RSVPtest,46,g,TRUE,939.5999999,2,g,,0,0,2
fw6,RSVPtest,47,g,TRUE,987.5,1,r,,1,0,1
fw6,RSVPtest,48,g,TRUE,815.7999997,2,g,,0,1,1
fw6,RSVPtest,49,g,FALSE,980,2,g,,0,2,1
fw6,RSVPtest,50,g,TRUE,1097.7,2,g,,3,1,1
fw6,RSVPtest,51,g,TRUE,1077.3,1,r,,2,2,2
fw6,RSVPtest,52,g,TRUE,1823.8,2,g,,2,2,2
fw6,RSVPtest,53,g,TRUE,1173.4,0,b,,1,3,0
fw6,RSVPtest,54,g,TRUE,893.5999999,1,r,,2,2,2
fw6,RSVPtest,55,g,TRUE,1097.5,1,r,,1,1,2
fw6,RSVPtest,56,g,TRUE,716.8000002,1,r,,0,2,1
fw6,RSVPtest,57,g,TRUE,621.6999998,1,r,,2,2,2
fw6,RSVPtest,58,g,TRUE,870.2000003,2,g,,1,1,2
fw6,RSVPtest,59,g,TRUE,574.6999998,1,r,,3,0,1
fw6,RSVPtest,60,g,TRUE,956.5,0,b,,1,3,0
brk,brk,brk,brk,brk,brk,brk,brk,brk,brk,brk,brk
fw6,RSVPtest,61,g,FALSE,750.2999997,2,g,,3,2,1
fw6,RSVPtest,62,g,TRUE,955.3999996,1,r,,0,0,2
fw6,RSVPtest,63,g,FALSE,822.2000003,1,r,,3,0,1
fw6,RSVPtest,64,g,FALSE,2078.8,1,r,,0,2,1
fw6,RSVPtest,65,g,FALSE,1031.5,0,b,,2,3,0
fw6,RSVPtest,66,g,TRUE,778.9000001,0,b,,2,3,0
fw6,RSVPtest,67,g,FALSE,1277.4,2,g,,3,1,1
fw6,RSVPtest,68,g,TRUE,1293.2,1,r,,3,0,1
fw6,RSVPtest,69,g,TRUE,899.8000002,2,g,,2,2,2
fw6,RSVPtest,70,g,TRUE,743,2,g,,3,1,1
fw6,RSVPtest,71,g,TRUE,830.4000001,1,r,,3,2,1
fw6,RSVPtest,72,g,TRUE,1022.4,1,r,,0,1,1
fw6,RSVPtest,73,g,TRUE,780.0999999,0,b,,3,3,0
fw6,RSVPtest,74,g,TRUE,869.6000004,2,g,,1,0,1
fw6,RSVPtest,75,g,FALSE,724.9000001,0,b,,0,3,0
fw6,RSVPtest,76,g,TRUE,1410.4,2,g,,3,1,1
fw6,RSVPtest,77,g,TRUE,932.4000001,2,g,,3,0,1
fw6,RSVPtest,78,g,TRUE,1431.9,1,r,,2,0,1
fw6,RSVPtest,79,g,TRUE,723.1999998,1,r,,2,1,1
fw6,RSVPtest,80,g,TRUE,1140.3,2,g,,0,0,2
fw6,RSVPtest,81,g,TRUE,964,1,r,,0,0,2
fw6,RSVPtest,82,g,TRUE,704.7000003,1,r,,1,1,2
fw6,RSVPtest,83,g,FALSE,700.7000003,2,g,,3,1,1
fw6,RSVPtest,84,g,TRUE,1083.4,2,g,,2,1,1
fw6,RSVPtest,85,g,TRUE,642.9000001,2,g,,0,2,1
fw6,RSVPtest,86,g,FALSE,644.9000001,2,g,,0,0,2
fw6,RSVPtest,87,g,TRUE,916.5,0,b,,3,3,0
fw6,RSVPtest,88,g,FALSE,858.5,2,g,,1,1,2
fw6,RSVPtest,89,g,TRUE,840.3000002,1,r,,0,1,1
fw6,RSVPtest,90,g,TRUE,838.4000001,2,g,,2,2,2
fw6,RSVPtest,91,g,TRUE,652.6000004,0,b,,1,3,0
fw6,RSVPtest,92,g,FALSE,1491.4,1,r,,3,2,1
fw6,RSVPtest,93,g,FALSE,1044.8,1,r,,3,0,1
fw6,RSVPtest,94,g,FALSE,732.5999999,0,b,,3,3,0
fw6,RSVPtest,95,g,TRUE,658.5,2,g,,2,1,1
fw6,RSVPtest,96,g,TRUE,528.0999999,2,g,,0,1,1
fw6,RSVPtest,97,g,TRUE,500.6999998,1,r,,0,0,2
fw6,RSVPtest,98,g,TRUE,845,1,r,,2,1,1
fw6,RSVPtest,99,g,TRUE,731.7999997,2,g,,3,0,1
fw6,RSVPtest,100,g,TRUE,619.4000001,0,b,,2,3,0
fw6,RSVPtest,101,g,FALSE,1100.3,0,b,,3,3,0
fw6,RSVPtest,102,g,FALSE,796.5999999,1,r,,1,0,1
fw6,RSVPtest,103,g,TRUE,971.8000002,1,r,,0,0,2
fw6,RSVPtest,104,g,TRUE,801.3999996,0,b,,3,3,0
fw6,RSVPtest,105,g,TRUE,804.5,0,b,,3,3,0
fw6,RSVPtest,106,g,TRUE,1915.5,0,b,,3,3,0
fw6,RSVPtest,107,g,TRUE,706.2000003,0,b,,3,3,0
fw6,RSVPtest,108,g,FALSE,1446.8,2,g,,3,2,1
fw6,RSVPtest,109,g,TRUE,1154.9,2,g,,2,2,2
fw6,RSVPtest,110,g,TRUE,1210.5,2,g,,2,1,1
fw6,RSVPtest,111,g,TRUE,723.7000003,2,g,,3,1,1
fw6,RSVPtest,112,g,TRUE,803.5999999,1,r,,3,0,1
fw6,RSVPtest,113,g,TRUE,989.1000004,2,g,,1,1,2
fw6,RSVPtest,114,g,TRUE,707.6999998,1,r,,1,1,2
fw6,RSVPtest,115,g,TRUE,797.5,2,g,,2,1,1
fw6,RSVPtest,116,g,TRUE,565.0999999,2,g,,1,2,1
fw6,RSVPtest,117,g,TRUE,682.7999997,1,r,,1,0,1
fw6,RSVPtest,118,g,FALSE,789.3000002,1,r,,3,1,1
fw6,RSVPtest,119,g,TRUE,676.1999998,1,r,,3,2,1
fw6,RSVPtest,120,g,TRUE,675.8000002,0,b,,3,3,0
brk,brk,brk,brk,brk,brk,brk,brk,brk,brk,brk,brk
fw6,RSVPtest,121,g,TRUE,941.2000003,2,g,,0,0,2
fw6,RSVPtest,122,g,TRUE,739.5,0,b,,2,3,0
fw6,RSVPtest,123,g,TRUE,475.5999999,2,g,,0,2,1
fw6,RSVPtest,124,g,TRUE,440.5,1,r,,0,0,2
fw6,RSVPtest,125,g,FALSE,838.3000002,2,g,,3,0,1
fw6,RSVPtest,126,g,TRUE,643.8000002,0,b,,3,3,0
fw6,RSVPtest,127,g,TRUE,1227.8,2,g,,1,1,2
fw6,RSVPtest,128,g,TRUE,595.3000002,0,b,,1,3,0
fw6,RSVPtest,129,g,TRUE,701.5,0,b,,3,3,0
fw6,RSVPtest,130,g,TRUE,628.1999998,2,g,,1,0,1
fw6,RSVPtest,131,g,TRUE,683.8000002,2,g,,0,2,1
fw6,RSVPtest,132,g,FALSE,657.5999999,2,g,,3,0,1
fw6,RSVPtest,133,g,TRUE,598.3000002,0,b,,3,3,0
fw6,RSVPtest,134,g,TRUE,663.5999999,1,r,,2,0,1
fw6,RSVPtest,135,g,TRUE,1137.7,1,r,,3,1,1
fw6,RSVPtest,136,g,TRUE,949.6999998,1,r,,2,1,1
fw6,RSVPtest,137,g,TRUE,1017.4,1,r,,3,2,1
fw6,RSVPtest,138,g,TRUE,924.5,1,r,,3,0,1
fw6,RSVPtest,139,g,FALSE,988.8999996,0,b,,2,3,0
fw6,RSVPtest,140,g,TRUE,1016.3,0,b,,2,3,0
fw6,RSVPtest,141,g,FALSE,1531.5,1,r,,3,1,1
fw6,RSVPtest,142,g,TRUE,715.8000002,1,r,,3,1,1
fw6,RSVPtest,143,g,TRUE,669.9000001,1,r,,3,2,1
fw6,RSVPtest,144,g,TRUE,2066.5,2,g,,1,0,1
fw6,RSVPtest,145,g,FALSE,1954.1,2,g,,3,0,1
fw6,RSVPtest,146,g,TRUE,919.8999996,0,b,,0,3,0
fw6,RSVPtest,147,g,FALSE,1467.5,2,g,,3,2,1
fw6,RSVPtest,148,g,FALSE,825.7999997,0,b,,0,3,0
fw6,RSVPtest,149,g,FALSE,1052.8,1,r,,3,1,1
fw6,RSVPtest,150,g,FALSE,911.0999999,0,b,,2,3,0
fw6,RSVPtest,151,g,TRUE,697.7000003,2,g,,1,2,1
fw6,RSVPtest,152,g,TRUE,418.4000001,2,g,,0,1,1
fw6,RSVPtest,153,g,FALSE,762.7000003,0,b,,3,3,0
fw6,RSVPtest,154,g,TRUE,1257.6,0,b,,2,3,0
fw6,RSVPtest,155,g,TRUE,619.2999997,2,g,,1,2,1
fw6,RSVPtest,156,g,TRUE,698,1,r,,3,1,1
fw6,RSVPtest,157,g,FALSE,1010.5,2,g,,2,2,2
fw6,RSVPtest,158,g,TRUE,708.4000001,2,g,,1,2,1
fw6,RSVPtest,159,g,FALSE,803.2999997,0,b,,1,3,0
fw6,RSVPtest,160,g,TRUE,691.1999998,2,g,,3,2,1
fw6,RSVPtest,161,g,TRUE,771,0,b,,2,3,0
fw6,RSVPtest,162,g,TRUE,729.0999999,2,g,,3,2,1
fw6,RSVPtest,163,g,TRUE,890,2,g,,2,0,1
fw6,RSVPtest,164,g,TRUE,817.7000003,2,g,,3,1,1
fw6,RSVPtest,165,g,TRUE,618,1,r,,0,1,1
fw6,RSVPtest,166,g,TRUE,446.8999996,0,b,,0,3,0
fw6,RSVPtest,167,g,TRUE,516,2,g,,2,1,1
fw6,RSVPtest,168,g,FALSE,603.2000003,1,r,,3,0,1
fw6,RSVPtest,169,g,FALSE,595.0999999,2,g,,3,0,1
fw6,RSVPtest,170,g,TRUE,620.5999999,1,r,,1,2,1
fw6,RSVPtest,171,g,TRUE,538.5999999,0,b,,1,3,0
fw6,RSVPtest,172,g,TRUE,624.3999996,2,g,,3,2,1
fw6,RSVPtest,173,g,TRUE,692.2000003,2,g,,3,0,1
fw6,RSVPtest,174,g,TRUE,547.9000001,0,b,,1,3,0
fw6,RSVPtest,175,g,FALSE,716.2000003,1,r,,1,1,2
fw6,RSVPtest,176,g,FALSE,641.9000001,2,g,,1,2,1
fw6,RSVPtest,177,g,TRUE,524.6000004,0,b,,0,3,0
fw6,RSVPtest,178,g,TRUE,790.9000001,0,b,,3,3,0
fw6,RSVPtest,179,g,FALSE,1415.3,2,g,,3,1,1
fw6,RSVPtest,180,g,TRUE,636.7999997,1,r,,0,2,1
brk,brk,brk,brk,brk,brk,brk,brk,brk,brk,brk,brk
fw6,RSVPtest,181,g,TRUE,1101.2,1,r,,1,0,1
fw6,RSVPtest,182,g,FALSE,1092.5,0,b,,3,3,0
fw6,RSVPtest,183,g,FALSE,737.1999998,2,g,,2,0,1
fw6,RSVPtest,184,g,FALSE,924.6000004,0,b,,3,3,0
fw6,RSVPtest,185,g,TRUE,676.0999999,0,b,,3,3,0
fw6,RSVPtest,186,g,FALSE,634.6999998,2,g,,3,0,1
fw6,RSVPtest,187,g,TRUE,562.5999999,2,g,,1,1,2
fw6,RSVPtest,188,g,FALSE,805.8999996,2,g,,1,0,1
fw6,RSVPtest,189,g,TRUE,587.3000002,1,r,,3,1,1
fw6,RSVPtest,190,g,FALSE,794.8000002,1,r,,1,2,1
fw6,RSVPtest,191,g,FALSE,702.6000004,1,r,,0,2,1
fw6,RSVPtest,192,g,TRUE,533.1999998,1,r,,1,0,1
fw6,RSVPtest,193,g,TRUE,650.8000002,2,g,,3,1,1
fw6,RSVPtest,194,g,TRUE,666.3000002,2,g,,3,2,1
fw6,RSVPtest,195,g,TRUE,686.7999997,0,b,,1,3,0
fw6,RSVPtest,196,g,TRUE,563.8000002,0,b,,3,3,0
fw6,RSVPtest,197,g,TRUE,767.7000003,1,r,,0,1,1
fw6,RSVPtest,198,g,TRUE,681.9000001,1,r,,1,2,1
fw6,RSVPtest,199,g,FALSE,593.5999999,0,b,,3,3,0
fw6,RSVPtest,200,g,TRUE,602.4000001,0,b,,1,3,0
fw6,RSVPtest,201,g,TRUE,682.2000003,2,g,,3,0,1
fw6,RSVPtest,202,g,TRUE,521.5999999,0,b,,3,3,0
fw6,RSVPtest,203,g,TRUE,729,2,g,,3,2,1
fw6,RSVPtest,204,g,TRUE,785.3000002,0,b,,3,3,0
fw6,RSVPtest,205,g,TRUE,698.8999996,0,b,,3,3,0
fw6,RSVPtest,206,g,TRUE,922.8000002,1,r,,1,2,1
fw6,RSVPtest,207,g,TRUE,810.0999999,1,r,,1,1,2
fw6,RSVPtest,208,g,TRUE,612.5,0,b,,0,3,0
fw6,RSVPtest,209,g,TRUE,625.8000002,1,r,,0,2,1
fw6,RSVPtest,210,g,TRUE,1000.6,1,r,,2,1,1
fw6,RSVPtest,211,g,TRUE,747.0999999,2,g,,0,0,2
fw6,RSVPtest,212,g,TRUE,530.0999999,2,g,,3,1,1
fw6,RSVPtest,213,g,TRUE,851.3000002,1,r,,0,1,1
fw6,RSVPtest,214,g,TRUE,847.2999997,2,g,,2,0,1
fw6,RSVPtest,215,g,TRUE,473.5,0,b,,2,3,0
fw6,RSVPtest,216,g,TRUE,488.6999998,2,g,,0,1,1
fw6,RSVPtest,217,g,TRUE,667.0999999,1,r,,3,1,1
fw6,RSVPtest,218,g,FALSE,609.0999999,2,g,,3,2,1
fw6,RSVPtest,219,g,TRUE,555.1000004,0,b,,2,3,0
fw6,RSVPtest,220,g,FALSE,495.8000002,1,r,,2,1,1
fw6,RSVPtest,221,g,TRUE,699.0999999,1,r,,2,2,2
fw6,RSVPtest,222,g,TRUE,543,1,r,,3,2,1
fw6,RSVPtest,223,g,FALSE,576.1999998,1,r,,3,0,1
fw6,RSVPtest,224,g,TRUE,850.5,0,b,,1,3,0
fw6,RSVPtest,225,g,TRUE,640,0,b,,3,3,0
fw6,RSVPtest,226,g,TRUE,676.5999999,0,b,,1,3,0
fw6,RSVPtest,227,g,FALSE,569.9000001,2,g,,2,2,2
fw6,RSVPtest,228,g,TRUE,674.7000003,2,g,,1,2,1
fw6,RSVPtest,229,g,TRUE,408.7999997,2,g,,0,2,1
fw6,RSVPtest,230,g,TRUE,691.0999999,1,r,,2,0,1
fw6,RSVPtest,231,g,TRUE,548.2999997,1,r,,2,0,1
fw6,RSVPtest,232,g,FALSE,834.5999999,1,r,,3,2,1
fw6,RSVPtest,233,g,FALSE,531.3000002,2,g,,1,0,1
fw6,RSVPtest,234,g,FALSE,754.1999998,1,r,,3,1,1
fw6,RSVPtest,235,g,TRUE,770.4000001,0,b,,1,3,0
fw6,RSVPtest,236,g,TRUE,794.6999998,2,g,,3,1,1
fw6,RSVPtest,237,g,TRUE,632,0,b,,0,3,0
fw6,RSVPtest,238,g,TRUE,1253.6,2,g,,2,0,1
fw6,RSVPtest,239,g,TRUE,690,1,r,,3,2,1
fw6,RSVPtest,240,g,TRUE,1345.9,2,g,,3,2,1
subID,trialType,trialNum,cntBalance,correct,rt,rwdType,tgtCol,tgtDir,tgtPos,colPos,colMatch
0tt,VDACtrain,0,g,null,null,2,g,h,5,,
0tt,VDACtrain,0,g,TRUE,666,1,r,h,2,,
0tt,VDACtrain,0,g,TRUE,766.0999999,2,g,v,5,,
0tt,VDACtrain,0,g,TRUE,640,1,r,h,0,,
0tt,VDACtrain,0,g,TRUE,582,1,r,v,3,,
0tt,VDACtrain,0,g,TRUE,439.3,2,g,h,3,,
0tt,VDACtrain,0,g,FALSE,591.3,1,r,h,1,,
0tt,VDACtrain,0,g,TRUE,590.5999999,2,g,v,2,,
0tt,VDACtrain,0,g,TRUE,703.4000001,2,g,v,0,,
0tt,VDACtrain,0,g,FALSE,367.2,1,r,v,4,,
0tt,VDACtest,1,g,TRUE,529,1,r,h,3,,
0tt,VDACtest,2,g,TRUE,670.3,1,r,h,5,,
0tt,VDACtest,3,g,TRUE,544.5,1,r,h,4,,
0tt,VDACtest,4,g,TRUE,567.7,1,r,v,5,,
0tt,VDACtest,5,g,FALSE,839.3999999,2,g,v,3,,
0tt,VDACtest,6,g,TRUE,815.3,1,r,v,2,,
0tt,VDACtest,7,g,TRUE,743.5999999,1,r,h,1,,
0tt,VDACtest,8,g,FALSE,645.5,1,r,h,1,,
0tt,VDACtest,9,g,TRUE,558.0999999,2,g,h,3,,
0tt,VDACtest,10,g,TRUE,632.4000001,1,r,h,3,,
0tt,VDACtest,11,g,TRUE,575.3,1,r,h,2,,
0tt,VDACtest,12,g,TRUE,617.5,1,r,h,5,,
0tt,VDACtest,13,g,TRUE,506.6000001,1,r,v,2,,
0tt,VDACtest,14,g,TRUE,512.2,1,r,v,1,,
0tt,VDACtest,15,g,FALSE,768.6999998,2,g,h,2,,
0tt,VDACtest,16,g,null,null,2,g,h,1,,
0tt,VDACtest,17,g,FALSE,754.4000001,2,g,h,3,,
0tt,VDACtest,18,g,TRUE,664.3000002,2,g,v,0,,
0tt,VDACtest,19,g,TRUE,634.1000001,2,g,v,1,,
0tt,VDACtest,20,g,TRUE,582.8000002,2,g,h,0,,
0tt,VDACtest,21,g,FALSE,514.3,2,g,v,2,,
0tt,VDACtest,22,g,TRUE,552.2,2,g,v,0,,
0tt,VDACtest,23,g,TRUE,959.7,2,g,h,2,,
0tt,VDACtest,24,g,TRUE,705.5,1,r,v,2,,
0tt,VDACtest,25,g,TRUE,585.3,1,r,h,0,,
0tt,VDACtest,26,g,TRUE,817,1,r,v,2,,
0tt,VDACtest,27,g,null,null,2,g,h,3,,
0tt,VDACtest,28,g,TRUE,609.3999999,1,r,v,4,,
0tt,VDACtest,29,g,TRUE,673.0999999,1,r,h,1,,
0tt,VDACtest,30,g,FALSE,604.2,1,r,h,4,,
0tt,VDACtest,31,g,TRUE,529.0999999,1,r,v,1,,
0tt,VDACtest,32,g,FALSE,544.8,1,r,h,5,,
0tt,VDACtest,33,g,TRUE,640.8999999,2,g,v,0,,
0tt,VDACtest,34,g,TRUE,649.3000002,2,g,v,0,,
0tt,VDACtest,35,g,TRUE,504.5999999,2,g,v,5,,
0tt,VDACtest,36,g,TRUE,720.3999999,2,g,h,2,,
0tt,VDACtest,37,g,FALSE,625.8,2,g,h,0,,
0tt,VDACtest,38,g,TRUE,943.8999999,1,r,h,3,,
0tt,VDACtest,39,g,TRUE,590.5999999,1,r,h,4,,
0tt,VDACtest,40,g,TRUE,992.7,2,g,h,1,,
0tt,VDACtest,41,g,TRUE,626.8,1,r,h,0,,
0tt,VDACtest,42,g,TRUE,626.8,1,r,v,1,,
0tt,VDACtest,43,g,TRUE,528.1000001,1,r,h,5,,
0tt,VDACtest,44,g,TRUE,485.3,1,r,h,4,,
0tt,VDACtest,45,g,TRUE,506.4000001,1,r,v,3,,
0tt,VDACtest,46,g,TRUE,658.4000001,2,g,v,2,,
0tt,VDACtest,47,g,TRUE,560.3000002,1,r,v,3,,
0tt,VDACtest,48,g,TRUE,641,1,r,v,1,,
0tt,VDACtest,49,g,TRUE,858,2,g,v,1,,
0tt,VDACtest,50,g,TRUE,489.8000002,1,r,h,1,,
brk,brk,brk,brk,brk,brk,brk,brk,brk,brk,brk,brk
0tt,VDACtest,51,g,null,null,2,g,h,3,,
0tt,VDACtest,52,g,TRUE,649.0999999,2,g,h,5,,
0tt,VDACtest,53,g,TRUE,576.3,2,g,v,4,,
0tt,VDACtest,54,g,TRUE,735.0999999,1,r,v,3,,
0tt,VDACtest,55,g,FALSE,545.3,2,g,h,1,,
0tt,VDACtest,56,g,TRUE,550.4000001,2,g,v,5,,
0tt,VDACtest,57,g,TRUE,511.9000001,2,g,v,5,,
0tt,VDACtest,58,g,FALSE,464.7,1,r,v,3,,
0tt,VDACtest,59,g,FALSE,584.5999999,1,r,h,0,,
0tt,VDACtest,60,g,TRUE,622.7,2,g,v,0,,
0tt,VDACtest,61,g,TRUE,679.9000001,2,g,h,3,,
0tt,VDACtest,62,g,TRUE,575.3,1,r,v,2,,
0tt,VDACtest,63,g,TRUE,560,1,r,h,2,,
0tt,VDACtest,64,g,TRUE,704.5999999,1,r,h,3,,
0tt,VDACtest,65,g,TRUE,848,2,g,v,4,,
0tt,VDACtest,66,g,TRUE,528.9000001,1,r,v,5,,
0tt,VDACtest,67,g,TRUE,609.3999999,2,g,v,0,,
0tt,VDACtest,68,g,TRUE,614.3000002,1,r,h,1,,
0tt,VDACtest,69,g,TRUE,830.8000002,2,g,h,3,,
0tt,VDACtest,70,g,TRUE,657.3999999,1,r,v,3,,
0tt,VDACtest,71,g,TRUE,461.0999999,2,g,h,3,,
0tt,VDACtest,72,g,TRUE,665.3,2,g,v,1,,
0tt,VDACtest,73,g,TRUE,561,2,g,h,4,,
0tt,VDACtest,74,g,TRUE,439.8,1,r,v,1,,
0tt,VDACtest,75,g,TRUE,528.3,1,r,h,3,,
0tt,VDACtest,76,g,TRUE,552.5,1,r,h,1,,
0tt,VDACtest,77,g,FALSE,607.3,2,g,h,0,,
0tt,VDACtest,78,g,TRUE,713.2,2,g,h,0,,
0tt,VDACtest,79,g,TRUE,529.4000001,1,r,h,0,,
0tt,VDACtest,80,g,TRUE,582.9000001,1,r,h,4,,
0tt,VDACtest,81,g,TRUE,559.0999999,2,g,v,0,,
0tt,VDACtest,82,g,TRUE,416.5,1,r,h,3,,
0tt,VDACtest,83,g,TRUE,542.5,1,r,v,4,,
0tt,VDACtest,84,g,FALSE,503.8,1,r,v,2,,
0tt,VDACtest,85,g,TRUE,599.2,2,g,h,2,,
0tt,VDACtest,86,g,TRUE,696.5,2,g,v,5,,
0tt,VDACtest,87,g,TRUE,656,2,g,v,3,,
0tt,VDACtest,88,g,TRUE,728.7,2,g,h,1,,
0tt,VDACtest,89,g,TRUE,710.1999998,2,g,h,3,,
0tt,VDACtest,90,g,TRUE,591.5,2,g,v,0,,
0tt,VDACtest,91,g,TRUE,551.3999999,2,g,h,1,,
0tt,VDACtest,92,g,TRUE,447.2,1,r,v,0,,
0tt,VDACtest,93,g,TRUE,646.7,2,g,h,2,,
0tt,VDACtest,94,g,FALSE,617.5,2,g,h,0,,
0tt,VDACtest,95,g,TRUE,554.3,1,r,h,1,,
0tt,VDACtest,96,g,TRUE,579.5,1,r,h,0,,
0tt,VDACtest,97,g,TRUE,961.5999999,1,r,v,4,,
0tt,VDACtest,98,g,TRUE,512.8999999,1,r,h,3,,
0tt,VDACtest,99,g,TRUE,842.7,2,g,h,4,,
0tt,VDACtest,100,g,TRUE,643.0999999,1,r,h,0,,
brk,brk,brk,brk,brk,brk,brk,brk,brk,brk,brk,brk
0tt,VDACtest,101,g,TRUE,686.8999999,2,g,h,1,,
0tt,VDACtest,102,g,FALSE,609.5999999,2,g,h,5,,
0tt,VDACtest,103,g,TRUE,625.1000001,2,g,v,3,,
0tt,VDACtest,104,g,TRUE,599.7,1,r,v,5,,
0tt,VDACtest,105,g,TRUE,568.3000002,2,g,v,4,,
0tt,VDACtest,106,g,TRUE,598.8,2,g,v,5,,
0tt,VDACtest,107,g,TRUE,711.3,2,g,h,5,,
0tt,VDACtest,108,g,TRUE,837,1,r,h,4,,
0tt,VDACtest,109,g,TRUE,983.3,2,g,h,1,,
0tt,VDACtest,110,g,TRUE,745.3,2,g,h,4,,
0tt,VDACtest,111,g,TRUE,800.4000001,1,r,v,5,,
0tt,VDACtest,112,g,TRUE,719.8999999,1,r,v,5,,
0tt,VDACtest,113,g,TRUE,625.5,2,g,v,4,,
0tt,VDACtest,114,g,TRUE,615.5,2,g,v,2,,
0tt,VDACtest,115,g,TRUE,640.1999998,1,r,v,3,,
0tt,VDACtest,116,g,TRUE,614.4000001,1,r,h,2,,
0tt,VDACtest,117,g,TRUE,582,1,r,v,1,,
0tt,VDACtest,118,g,TRUE,671.8999999,2,g,h,4,,
0tt,VDACtest,119,g,TRUE,632.9000001,2,g,h,5,,
0tt,VDACtest,120,g,TRUE,566.9000001,1,r,h,3,,
0tt,VDACtest,121,g,TRUE,721.3,1,r,v,5,,
0tt,VDACtest,122,g,TRUE,753.3,1,r,v,0,,
0tt,VDACtest,123,g,null,null,2,g,v,1,,
0tt,VDACtest,124,g,TRUE,503,1,r,h,2,,
0tt,VDACtest,125,g,TRUE,519.3,1,r,v,4,,
0tt,VDACtest,126,g,null,null,2,g,h,2,,
0tt,VDACtest,127,g,TRUE,663.3,1,r,v,0,,
0tt,VDACtest,128,g,TRUE,896.5999999,2,g,v,2,,
0tt,VDACtest,129,g,TRUE,766.5,2,g,h,4,,
0tt,VDACtest,130,g,TRUE,753,2,g,h,4,,
0tt,VDACtest,131,g,TRUE,505,1,r,v,0,,
0tt,VDACtest,132,g,TRUE,702.7,2,g,h,5,,
0tt,VDACtest,133,g,TRUE,552.8000002,1,r,h,1,,
0tt,VDACtest,134,g,TRUE,592.9000001,1,r,h,5,,
0tt,VDACtest,135,g,TRUE,558.7,1,r,v,5,,
0tt,VDACtest,136,g,TRUE,735.7,2,g,v,2,,
0tt,VDACtest,137,g,TRUE,577.5999999,1,r,h,4,,
0tt,VDACtest,138,g,TRUE,855.5999999,2,g,h,0,,
0tt,VDACtest,139,g,TRUE,552.2,2,g,v,3,,
0tt,VDACtest,140,g,TRUE,440.3999999,1,r,h,2,,
0tt,VDACtest,141,g,TRUE,761.5,1,r,v,2,,
0tt,VDACtest,142,g,TRUE,752.3,2,g,v,4,,
0tt,VDACtest,143,g,TRUE,560.2,2,g,v,1,,
0tt,VDACtest,144,g,TRUE,472.4000001,1,r,v,0,,
0tt,VDACtest,145,g,TRUE,681.3,2,g,v,3,,
0tt,VDACtest,146,g,TRUE,535.6000001,1,r,v,4,,
0tt,VDACtest,147,g,TRUE,575.3999999,1,r,h,5,,
0tt,VDACtest,148,g,TRUE,678.8,2,g,h,0,,
0tt,VDACtest,149,g,TRUE,599.5,1,r,h,4,,
0tt,VDACtest,150,g,TRUE,632.1999998,2,g,h,5,,
brk,brk,brk,brk,brk,brk,brk,brk,brk,brk,brk,brk
0tt,VDACtest,151,g,TRUE,665.3,2,g,v,4,,
0tt,VDACtest,152,g,TRUE,671.3999999,2,g,v,5,,
0tt,VDACtest,153,g,null,null,1,r,v,0,,
0tt,VDACtest,154,g,TRUE,823.3999999,1,r,v,3,,
0tt,VDACtest,155,g,TRUE,735.2,2,g,v,1,,
0tt,VDACtest,156,g,TRUE,544.3,2,g,v,3,,
0tt,VDACtest,157,g,TRUE,663.3,1,r,v,1,,
0tt,VDACtest,158,g,TRUE,614.2,2,g,v,2,,
0tt,VDACtest,159,g,TRUE,601.2,2,g,h,5,,
0tt,VDACtest,160,g,TRUE,730,1,r,h,0,,
0tt,VDACtest,161,g,TRUE,735.3,2,g,v,4,,
0tt,VDACtest,162,g,TRUE,593,2,g,h,5,,
0tt,VDACtest,163,g,TRUE,838.5,1,r,h,2,,
0tt,VDACtest,164,g,TRUE,567.1999998,1,r,h,5,,
0tt,VDACtest,165,g,TRUE,592.5999999,1,r,h,5,,
0tt,VDACtest,166,g,TRUE,609.3000002,1,r,v,4,,
0tt,VDACtest,167,g,TRUE,608.3,2,g,h,2,,
0tt,VDACtest,168,g,TRUE,655.3,1,r,h,0,,
0tt,VDACtest,169,g,TRUE,567.4000001,2,g,v,3,,
0tt,VDACtest,170,g,TRUE,639.2,2,g,v,5,,
0tt,VDACtest,171,g,TRUE,813.8000002,2,g,h,4,,
0tt,VDACtest,172,g,TRUE,606.3,2,g,h,1,,
0tt,VDACtest,173,g,TRUE,807.3000002,2,g,h,4,,
0tt,VDACtest,174,g,TRUE,590.7,2,g,v,4,,
0tt,VDACtest,175,g,TRUE,824,1,r,v,5,,
0tt,VDACtest,176,g,TRUE,632.5,1,r,h,4,,
0tt,VDACtest,177,g,TRUE,528.1000001,1,r,v,4,,
0tt,VDACtest,178,g,TRUE,671.8,1,r,v,4,,
0tt,VDACtest,179,g,TRUE,768,2,g,v,2,,
0tt,VDACtest,180,g,TRUE,886.7,1,r,v,3,,
0tt,VDACtest,181,g,TRUE,536.5999999,1,r,v,4,,
0tt,VDACtest,182,g,TRUE,543,2,g,v,3,,
0tt,VDACtest,183,g,TRUE,631.7,1,r,v,0,,
0tt,VDACtest,184,g,TRUE,484.3,2,g,h,2,,
0tt,VDACtest,185,g,TRUE,487.7,2,g,v,2,,
0tt,VDACtest,186,g,TRUE,502.9000001,2,g,v,1,,
0tt,VDACtest,187,g,TRUE,774.7,1,r,h,1,,
0tt,VDACtest,188,g,TRUE,528.8,1,r,v,1,,
0tt,VDACtest,189,g,TRUE,399.8999999,1,r,v,0,,
0tt,VDACtest,190,g,TRUE,544.7,2,g,h,4,,
0tt,VDACtest,191,g,TRUE,543.6999998,2,g,v,1,,
0tt,VDACtest,192,g,TRUE,463.5,2,g,v,5,,
0tt,VDACtest,193,g,TRUE,536.7,1,r,v,2,,
0tt,VDACtest,194,g,TRUE,566.1000001,1,r,h,2,,
0tt,VDACtest,195,g,TRUE,496,1,r,h,2,,
0tt,VDACtest,196,g,FALSE,751.3999999,2,g,h,0,,
0tt,VDACtest,197,g,TRUE,615.3,2,g,v,1,,
0tt,VDACtest,198,g,TRUE,561.7,2,g,v,4,,
0tt,VDACtest,199,g,TRUE,533.5999999,1,r,v,1,,
0tt,VDACtest,200,g,TRUE,512.0999999,2,g,h,1,,
0tt,RSVPtrain,0,g,null,null,0,b,,3,3,0
0tt,RSVPtrain,0,g,FALSE,950.6999998,1,r,,1,1,2
0tt,RSVPtrain,0,g,TRUE,1178.8,2,g,,3,1,1
0tt,RSVPtrain,0,g,FALSE,913.3,2,g,,1,0,1
0tt,RSVPtrain,0,g,FALSE,994.1999998,0,b,,1,3,0
0tt,RSVPtrain,0,g,FALSE,1323,1,r,,0,0,2
0tt,RSVPtrain,0,g,FALSE,977.2,0,b,,0,3,0
0tt,RSVPtrain,0,g,FALSE,332.4000001,2,g,,3,0,1
0tt,RSVPtrain,0,g,FALSE,413,2,g,,2,2,2
0tt,RSVPtrain,0,g,FALSE,961.2,1,r,,3,2,1
0tt,RSVPtrain,0,g,FALSE,406.3,1,r,,3,2,1
0tt,RSVPtrain,0,g,FALSE,289.7,0,b,,3,3,0
0tt,RSVPtrain,0,g,TRUE,311,0,b,,0,3,0
0tt,RSVPtrain,0,g,TRUE,355.1999998,2,g,,3,1,1
0tt,RSVPtrain,0,g,FALSE,1240.9,0,b,,1,3,0
0tt,RSVPtrain,0,g,TRUE,1434.5,2,g,,2,2,2
0tt,RSVPtrain,0,g,FALSE,969.5,2,g,,3,0,1
0tt,RSVPtrain,0,g,FALSE,690.3,1,r,,1,1,2
0tt,RSVPtrain,0,g,TRUE,90,1,r,,0,0,2
0tt,RSVPtrain,0,g,FALSE,298.8999999,2,g,,1,0,1
0tt,RSVPtrain,0,g,FALSE,751.1000001,1,r,,0,0,2
0tt,RSVPtrain,0,g,FALSE,234,0,b,,3,3,0
0tt,RSVPtrain,0,g,FALSE,337.4000001,2,g,,1,0,1
0tt,RSVPtrain,0,g,FALSE,556.6000001,0,b,,0,3,0
0tt,RSVPtrain,0,g,TRUE,297.0999999,1,r,,1,1,2
0tt,RSVPtrain,0,g,TRUE,425.3,0,b,,1,3,0
0tt,RSVPtrain,0,g,TRUE,334.5,2,g,,2,2,2
0tt,RSVPtrain,0,g,FALSE,536.1999998,1,r,,3,2,1
0tt,RSVPtrain,0,g,TRUE,208.3000002,2,g,,3,0,1
0tt,RSVPtrain,0,g,FALSE,24,2,g,,3,1,1
0tt,RSVPtest,1,g,FALSE,571.5,0,b,,0,3,0
0tt,RSVPtest,2,g,TRUE,441.6999998,2,g,,3,0,1
0tt,RSVPtest,3,g,TRUE,505,1,r,,0,1,1
0tt,RSVPtest,4,g,FALSE,353.5,2,g,,0,1,1
0tt,RSVPtest,5,g,FALSE,408.3,1,r,,3,1,1
0tt,RSVPtest,6,g,TRUE,536.1000001,2,g,,3,1,1
0tt,RSVPtest,7,g,TRUE,425.1000001,1,r,,1,0,1
0tt,RSVPtest,8,g,FALSE,616.2,2,g,,0,1,1
0tt,RSVPtest,9,g,FALSE,305.3,1,r,,3,1,1
0tt,RSVPtest,10,g,FALSE,399.2,0,b,,1,3,0
0tt,RSVPtest,11,g,FALSE,120.1000001,1,r,,2,2,2
0tt,RSVPtest,12,g,FALSE,272.1000001,2,g,,1,2,1
0tt,RSVPtest,13,g,FALSE,304.2,0,b,,3,3,0
0tt,RSVPtest,14,g,TRUE,288.6000001,2,g,,2,2,2
0tt,RSVPtest,15,g,FALSE,369.8999999,1,r,,0,1,1
0tt,RSVPtest,16,g,TRUE,205,0,b,,1,3,0
0tt,RSVPtest,17,g,null,null,1,r,,3,0,1
0tt,RSVPtest,18,g,TRUE,282.3000002,2,g,,3,0,1
0tt,RSVPtest,19,g,FALSE,455.6000001,0,b,,0,3,0
0tt,RSVPtest,20,g,FALSE,251.4000001,2,g,,3,2,1
0tt,RSVPtest,21,g,FALSE,235.3,2,g,,2,1,1
0tt,RSVPtest,22,g,TRUE,98.29999995,0,b,,2,3,0
0tt,RSVPtest,23,g,FALSE,295.2,1,r,,3,2,1
0tt,RSVPtest,24,g,FALSE,283.8999999,0,b,,3,3,0
0tt,RSVPtest,25,g,FALSE,305,1,r,,2,1,1
0tt,RSVPtest,26,g,TRUE,266.8999999,0,b,,2,3,0
0tt,RSVPtest,27,g,FALSE,577.5,0,b,,2,3,0
0tt,RSVPtest,28,g,TRUE,601.3,1,r,,0,2,1
0tt,RSVPtest,29,g,TRUE,682.7,2,g,,3,2,1
0tt,RSVPtest,30,g,TRUE,426.7,2,g,,0,0,2
0tt,RSVPtest,31,g,null,null,0,b,,3,3,0
0tt,RSVPtest,32,g,TRUE,364.5999999,1,r,,3,1,1
0tt,RSVPtest,33,g,FALSE,298.8,1,r,,3,2,1
0tt,RSVPtest,34,g,FALSE,315.3,2,g,,1,0,1
0tt,RSVPtest,35,g,FALSE,262,2,g,,0,0,2
0tt,RSVPtest,36,g,TRUE,320.9000001,2,g,,1,0,1
0tt,RSVPtest,37,g,TRUE,529.8,2,g,,3,2,1
0tt,RSVPtest,38,g,FALSE,739.4000001,2,g,,0,0,2
0tt,RSVPtest,39,g,TRUE,342.7,1,r,,1,2,1
0tt,RSVPtest,40,g,null,null,2,g,,3,1,1
0tt,RSVPtest,41,g,FALSE,638.8,1,r,,2,1,1
0tt,RSVPtest,42,g,TRUE,905,0,b,,2,3,0
0tt,RSVPtest,43,g,FALSE,776.5999999,0,b,,3,3,0
0tt,RSVPtest,44,g,FALSE,90.5,1,r,,2,0,1
0tt,RSVPtest,45,g,FALSE,402.1000001,0,b,,3,3,0
0tt,RSVPtest,46,g,TRUE,570.5,1,r,,0,2,1
0tt,RSVPtest,47,g,FALSE,856.0999999,1,r,,3,1,1
0tt,RSVPtest,48,g,TRUE,336.8,2,g,,1,1,2
0tt,RSVPtest,49,g,FALSE,354,1,r,,0,1,1
0tt,RSVPtest,50,g,FALSE,289.6999998,2,g,,3,2,1
0tt,RSVPtest,51,g,FALSE,153.3999999,2,g,,1,1,2
0tt,RSVPtest,52,g,TRUE,316,1,r,,0,0,2
0tt,RSVPtest,53,g,TRUE,790.8,1,r,,3,2,1
0tt,RSVPtest,54,g,FALSE,906.0999999,1,r,,0,2,1
0tt,RSVPtest,55,g,FALSE,689.1999998,1,r,,2,2,2
0tt,RSVPtest,56,g,TRUE,659,2,g,,1,1,2
0tt,RSVPtest,57,g,TRUE,529.6999998,1,r,,3,1,1
0tt,RSVPtest,58,g,FALSE,696.7,2,g,,3,1,1
0tt,RSVPtest,59,g,TRUE,570.3,2,g,,1,0,1
0tt,RSVPtest,60,g,null,null,2,g,,2,1,1
brk,brk,brk,brk,brk,brk,brk,brk,brk,brk,brk,brk
0tt,RSVPtest,61,g,TRUE,1493.2,2,g,,0,2,1
0tt,RSVPtest,62,g,FALSE,2010.2,2,g,,1,2,1
0tt,RSVPtest,63,g,FALSE,815.3,2,g,,3,0,1
0tt,RSVPtest,64,g,FALSE,655.6000001,1,r,,0,0,2
0tt,RSVPtest,65,g,FALSE,425.7,0,b,,3,3,0
0tt,RSVPtest,66,g,null,null,2,g,,3,0,1
0tt,RSVPtest,67,g,TRUE,524.3,1,r,,0,1,1
0tt,RSVPtest,68,g,FALSE,401.7,0,b,,0,3,0
0tt,RSVPtest,69,g,TRUE,1392.3,0,b,,3,3,0
0tt,RSVPtest,70,g,TRUE,319.1999998,0,b,,2,3,0
0tt,RSVPtest,71,g,TRUE,536.5999999,0,b,,3,3,0
0tt,RSVPtest,72,g,TRUE,416.4000001,1,r,,3,0,1
0tt,RSVPtest,73,g,TRUE,543.5,1,r,,2,0,1
0tt,RSVPtest,74,g,FALSE,415.9000001,0,b,,0,3,0
0tt,RSVPtest,75,g,FALSE,808.0999999,2,g,,1,1,2
0tt,RSVPtest,76,g,null,null,2,g,,3,2,1
0tt,RSVPtest,77,g,TRUE,561.8,2,g,,2,1,1
0tt,RSVPtest,78,g,TRUE,672.2,2,g,,3,1,1
0tt,RSVPtest,79,g,TRUE,775.8,2,g,,3,2,1
0tt,RSVPtest,80,g,TRUE,1039.9,1,r,,1,2,1
0tt,RSVPtest,81,g,FALSE,431.4000001,1,r,,0,1,1
0tt,RSVPtest,82,g,FALSE,538.3,0,b,,3,3,0
0tt,RSVPtest,83,g,FALSE,338,1,r,,1,1,2
0tt,RSVPtest,84,g,TRUE,825.8,2,g,,1,1,2
0tt,RSVPtest,85,g,TRUE,561.5,2,g,,3,2,1
0tt,RSVPtest,86,g,null,null,2,g,,3,0,1
0tt,RSVPtest,87,g,TRUE,468,2,g,,0,1,1
0tt,RSVPtest,88,g,FALSE,890,1,r,,2,0,1
0tt,RSVPtest,89,g,FALSE,431.3999999,1,r,,3,2,1
0tt,RSVPtest,90,g,FALSE,1704.3,2,g,,1,2,1
0tt,RSVPtest,91,g,FALSE,608.8,0,b,,3,3,0
0tt,RSVPtest,92,g,FALSE,463.7,1,r,,1,2,1
0tt,RSVPtest,93,g,TRUE,385.2,2,g,,0,2,1
0tt,RSVPtest,94,g,TRUE,1648.6,2,g,,3,0,1
0tt,RSVPtest,95,g,TRUE,1248.3,1,r,,3,0,1
0tt,RSVPtest,96,g,TRUE,570.2,2,g,,0,2,1
0tt,RSVPtest,97,g,FALSE,610.5,2,g,,2,2,2
0tt,RSVPtest,98,g,FALSE,992.2,2,g,,3,1,1
0tt,RSVPtest,99,g,TRUE,528.8000002,0,b,,3,3,0
0tt,RSVPtest,100,g,TRUE,494.8999999,2,g,,3,1,1
0tt,RSVPtest,101,g,TRUE,362.3,0,b,,2,3,0
0tt,RSVPtest,102,g,TRUE,920.5,2,g,,2,2,2
0tt,RSVPtest,103,g,FALSE,266.9000001,0,b,,1,3,0
0tt,RSVPtest,104,g,FALSE,265.3,0,b,,1,3,0
0tt,RSVPtest,105,g,FALSE,265.7,2,g,,3,0,1
0tt,RSVPtest,106,g,TRUE,264.3,0,b,,3,3,0
0tt,RSVPtest,107,g,TRUE,488.2,1,r,,2,2,2
0tt,RSVPtest,108,g,TRUE,409.0999999,0,b,,1,3,0
0tt,RSVPtest,109,g,TRUE,536.3999999,0,b,,3,3,0
0tt,RSVPtest,110,g,FALSE,225.8999999,0,b,,1,3,0
0tt,RSVPtest,111,g,FALSE,248.3,2,g,,3,1,1
0tt,RSVPtest,112,g,TRUE,327,1,r,,3,1,1
0tt,RSVPtest,113,g,FALSE,247.0999999,2,g,,0,0,2
0tt,RSVPtest,114,g,FALSE,511.9000001,2,g,,2,0,1
0tt,RSVPtest,115,g,TRUE,241.9000001,0,b,,0,3,0
0tt,RSVPtest,116,g,FALSE,72.70000005,2,g,,2,0,1
0tt,RSVPtest,117,g,FALSE,319.8000002,2,g,,1,1,2
0tt,RSVPtest,118,g,FALSE,401.1000001,1,r,,1,0,1
0tt,RSVPtest,119,g,FALSE,360.2,2,g,,3,0,1
0tt,RSVPtest,120,g,TRUE,332.6999998,0,b,,2,3,0
brk,brk,brk,brk,brk,brk,brk,brk,brk,brk,brk,brk
0tt,RSVPtest,121,g,TRUE,891.5,2,g,,2,1,1
0tt,RSVPtest,122,g,TRUE,262.8999999,2,g,,3,1,1
0tt,RSVPtest,123,g,FALSE,262.8,2,g,,2,2,2
0tt,RSVPtest,124,g,FALSE,521.3,2,g,,0,1,1
0tt,RSVPtest,125,g,TRUE,295.0999999,2,g,,0,0,2
0tt,RSVPtest,126,g,TRUE,303.9000001,0,b,,3,3,0
0tt,RSVPtest,127,g,FALSE,464.3,2,g,,3,0,1
0tt,RSVPtest,128,g,FALSE,358.3999999,1,r,,0,0,2
0tt,RSVPtest,129,g,TRUE,928.5,1,r,,0,2,1
0tt,RSVPtest,130,g,FALSE,335.5999999,0,b,,2,3,0
0tt,RSVPtest,131,g,FALSE,171,0,b,,2,3,0
0tt,RSVPtest,132,g,TRUE,431.5,2,g,,0,2,1
0tt,RSVPtest,133,g,FALSE,359.8,0,b,,1,3,0
0tt,RSVPtest,134,g,TRUE,526.3,1,r,,1,0,1
0tt,RSVPtest,135,g,FALSE,311.8,1,r,,1,1,2
0tt,RSVPtest,136,g,FALSE,423.3,0,b,,0,3,0
0tt,RSVPtest,137,g,FALSE,297.0999999,1,r,,3,0,1
0tt,RSVPtest,138,g,FALSE,352.7,0,b,,2,3,0
0tt,RSVPtest,139,g,FALSE,287.8,0,b,,3,3,0
0tt,RSVPtest,140,g,FALSE,132.8999999,0,b,,1,3,0
0tt,RSVPtest,141,g,TRUE,277.6000001,2,g,,2,2,2
0tt,RSVPtest,142,g,TRUE,501.5,2,g,,3,1,1
0tt,RSVPtest,143,g,TRUE,567.2,2,g,,0,1,1
0tt,RSVPtest,144,g,FALSE,105.3,0,b,,1,3,0
0tt,RSVPtest,145,g,TRUE,334.6999998,1,r,,2,1,1
0tt,RSVPtest,146,g,TRUE,283,1,r,,3,2,1
0tt,RSVPtest,147,g,TRUE,287.2,2,g,,0,2,1
0tt,RSVPtest,148,g,TRUE,243.1000001,2,g,,3,2,1
0tt,RSVPtest,149,g,FALSE,261.3000002,1,r,,3,0,1
0tt,RSVPtest,150,g,TRUE,718.8,1,r,,3,1,1
0tt,RSVPtest,151,g,TRUE,488.2,1,r,,3,0,1
0tt,RSVPtest,152,g,TRUE,271.7,2,g,,1,0,1
0tt,RSVPtest,153,g,FALSE,309.8,2,g,,0,0,2
0tt,RSVPtest,154,g,TRUE,263.5999999,0,b,,0,3,0
0tt,RSVPtest,155,g,FALSE,230.9000001,1,r,,2,1,1
0tt,RSVPtest,156,g,FALSE,277.8000002,2,g,,3,0,1
0tt,RSVPtest,157,g,FALSE,303.6000001,1,r,,1,1,2
0tt,RSVPtest,158,g,FALSE,302.7,1,r,,2,0,1
0tt,RSVPtest,159,g,FALSE,380,1,r,,3,1,1
0tt,RSVPtest,160,g,FALSE,701.5,0,b,,1,3,0
0tt,RSVPtest,161,g,TRUE,216,2,g,,3,1,1
0tt,RSVPtest,162,g,TRUE,320.7,1,r,,1,0,1
0tt,RSVPtest,163,g,TRUE,377.6000001,0,b,,3,3,0
0tt,RSVPtest,164,g,FALSE,286.8,1,r,,3,2,1
0tt,RSVPtest,165,g,FALSE,543.5999999,1,r,,2,1,1
0tt,RSVPtest,166,g,TRUE,303.0999999,2,g,,2,0,1
0tt,RSVPtest,167,g,FALSE,472.3999999,2,g,,2,1,1
0tt,RSVPtest,168,g,FALSE,583.6999998,1,r,,0,2,1
0tt,RSVPtest,169,g,TRUE,119.1000001,0,b,,0,3,0
0tt,RSVPtest,170,g,TRUE,224.8999999,0,b,,3,3,0
0tt,RSVPtest,171,g,TRUE,557.5999999,1,r,,0,2,1
0tt,RSVPtest,172,g,FALSE,448.8,1,r,,0,1,1
0tt,RSVPtest,173,g,TRUE,407,2,g,,3,1,1
0tt,RSVPtest,174,g,FALSE,280,2,g,,1,2,1
0tt,RSVPtest,175,g,TRUE,648.8,1,r,,3,2,1
0tt,RSVPtest,176,g,TRUE,1808.1,1,r,,3,1,1
0tt,RSVPtest,177,g,TRUE,249.3,2,g,,2,1,1
0tt,RSVPtest,178,g,FALSE,336.4000001,2,g,,2,2,2
0tt,RSVPtest,179,g,TRUE,208.3999999,2,g,,2,0,1
0tt,RSVPtest,180,g,FALSE,1105.5,1,r,,1,2,1
brk,brk,brk,brk,brk,brk,brk,brk,brk,brk,brk,brk
0tt,RSVPtest,181,g,FALSE,531.5,1,r,,1,0,1
0tt,RSVPtest,182,g,FALSE,295.0999999,2,g,,1,0,1
0tt,RSVPtest,183,g,TRUE,246.5,1,r,,3,0,1
0tt,RSVPtest,184,g,FALSE,263,1,r,,3,2,1
0tt,RSVPtest,185,g,TRUE,79.70000005,0,b,,2,3,0
0tt,RSVPtest,186,g,FALSE,166.5999999,0,b,,2,3,0
0tt,RSVPtest,187,g,FALSE,423.3999999,2,g,,1,2,1
0tt,RSVPtest,188,g,FALSE,93.29999995,1,r,,3,2,1
0tt,RSVPtest,189,g,TRUE,230.5,1,r,,2,2,2
0tt,RSVPtest,190,g,null,null,1,r,,2,1,1
0tt,RSVPtest,191,g,FALSE,269.8,1,r,,3,0,1
0tt,RSVPtest,192,g,FALSE,255.8,1,r,,3,2,1
0tt,RSVPtest,193,g,TRUE,335.1000001,1,r,,3,2,1
0tt,RSVPtest,194,g,TRUE,332,2,g,,3,2,1
0tt,RSVPtest,195,g,FALSE,390.9000001,0,b,,3,3,0
0tt,RSVPtest,196,g,FALSE,605.2,2,g,,3,2,1
0tt,RSVPtest,197,g,FALSE,293.4000001,1,r,,0,0,2
0tt,RSVPtest,198,g,FALSE,279.5,2,g,,2,0,1
0tt,RSVPtest,199,g,FALSE,341.8,2,g,,0,1,1
0tt,RSVPtest,200,g,FALSE,64.70000005,0,b,,3,3,0
0tt,RSVPtest,201,g,TRUE,439.5,1,r,,3,0,1
0tt,RSVPtest,202,g,TRUE,78,1,r,,3,1,1
0tt,RSVPtest,203,g,FALSE,175.1000001,2,g,,1,0,1
0tt,RSVPtest,204,g,TRUE,62.9000001,2,g,,0,2,1
0tt,RSVPtest,205,g,FALSE,135.9000001,0,b,,1,3,0
0tt,RSVPtest,206,g,FALSE,32.5999999,1,r,,3,1,1
0tt,RSVPtest,207,g,TRUE,191.2,2,g,,2,0,1
0tt,RSVPtest,208,g,FALSE,185.9000001,0,b,,0,3,0
0tt,RSVPtest,209,g,FALSE,205.8,1,r,,0,0,2
0tt,RSVPtest,210,g,TRUE,13.5999999,2,g,,3,0,1
0tt,RSVPtest,211,g,FALSE,284.3999999,0,b,,3,3,0
0tt,RSVPtest,212,g,TRUE,52.79999995,1,r,,1,2,1
0tt,RSVPtest,213,g,FALSE,316.8999999,2,g,,3,2,1
0tt,RSVPtest,214,g,TRUE,391.1000001,1,r,,3,1,1
0tt,RSVPtest,215,g,TRUE,54.39999986,1,r,,3,2,1
0tt,RSVPtest,216,g,TRUE,214,1,r,,1,1,2
0tt,RSVPtest,217,g,FALSE,396.5,2,g,,3,1,1
0tt,RSVPtest,218,g,FALSE,37.19999981,1,r,,1,1,2
0tt,RSVPtest,219,g,FALSE,3.700000048,2,g,,3,0,1
0tt,RSVPtest,220,g,FALSE,181.4000001,1,r,,2,2,2
0tt,RSVPtest,221,g,TRUE,543.1000001,1,r,,1,2,1
0tt,RSVPtest,222,g,TRUE,317.3000002,0,b,,3,3,0
0tt,RSVPtest,223,g,TRUE,407.3,0,b,,3,3,0
0tt,RSVPtest,224,g,TRUE,341.2,2,g,,1,2,1
0tt,RSVPtest,225,g,FALSE,36.0999999,1,r,,2,0,1
0tt,RSVPtest,226,g,TRUE,524.7,1,r,,1,0,1
0tt,RSVPtest,227,g,TRUE,246.2,2,g,,3,2,1
0tt,RSVPtest,228,g,FALSE,461.9000001,0,b,,1,3,0
0tt,RSVPtest,229,g,TRUE,491,0,b,,3,3,0
0tt,RSVPtest,230,g,null,null,1,r,,3,0,1
0tt,RSVPtest,231,g,TRUE,336.2,1,r,,1,1,2
0tt,RSVPtest,232,g,FALSE,454,1,r,,0,0,2
0tt,RSVPtest,233,g,FALSE,266.7,1,r,,3,0,1
0tt,RSVPtest,234,g,null,null,1,r,,2,2,2
0tt,RSVPtest,235,g,TRUE,350.8,0,b,,0,3,0
0tt,RSVPtest,236,g,FALSE,399.8999999,1,r,,3,0,1
0tt,RSVPtest,237,g,FALSE,61.79999995,0,b,,3,3,0
0tt,RSVPtest,238,g,FALSE,350.2,0,b,,0,3,0
0tt,RSVPtest,239,g,FALSE,271.5999999,1,r,,2,0,1
0tt,RSVPtest,240,g,TRUE,329.1999998,0,b,,0,3,0
subID,trialType,trialNum,cntBalance,correct,rt,rwdType,tgtCol,tgtDir,tgtPos,colPos,colMatch
lmc,VDACtrain,0,g,null,null,1,r,h,2,,
lmc,VDACtrain,0,g,null,null,1,r,v,3,,
lmc,VDACtrain,0,g,TRUE,737.7,1,r,h,0,,
lmc,VDACtrain,0,g,TRUE,889.5,2,g,h,3,,
lmc,VDACtrain,0,g,FALSE,960.0999999,1,r,h,1,,
lmc,VDACtrain,0,g,null,null,2,g,v,2,,
lmc,VDACtrain,0,g,TRUE,901.3999999,2,g,v,0,,
lmc,VDACtrain,0,g,TRUE,978.5,1,r,v,4,,
lmc,VDACtrain,0,g,TRUE,819.5999999,2,g,h,5,,
lmc,VDACtrain,0,g,TRUE,818.5,2,g,v,5,,
lmc,VDACtest,1,g,null,null,1,r,v,2,,
lmc,VDACtest,2,g,TRUE,846.8,1,r,h,1,,
lmc,VDACtest,3,g,TRUE,706.4000001,2,g,h,3,,
lmc,VDACtest,4,g,FALSE,513.9000001,1,r,v,3,,
lmc,VDACtest,5,g,TRUE,611.7,2,g,v,0,,
lmc,VDACtest,6,g,TRUE,626.7,1,r,v,2,,
lmc,VDACtest,7,g,TRUE,642.0999999,2,g,h,3,,
lmc,VDACtest,8,g,TRUE,899.5,1,r,v,1,,
lmc,VDACtest,9,g,FALSE,831.8,1,r,h,2,,
lmc,VDACtest,10,g,TRUE,720.1999998,2,g,v,3,,
lmc,VDACtest,11,g,TRUE,739.3999999,1,r,h,0,,
lmc,VDACtest,12,g,TRUE,561.4000001,2,g,h,5,,
lmc,VDACtest,13,g,TRUE,667.5999999,2,g,v,0,,
lmc,VDACtest,14,g,FALSE,753.5999999,2,g,h,1,,
lmc,VDACtest,15,g,TRUE,929.3,2,g,v,4,,
lmc,VDACtest,16,g,TRUE,763.7,2,g,v,1,,
lmc,VDACtest,17,g,TRUE,643,2,g,v,4,,
lmc,VDACtest,18,g,TRUE,738.7,1,r,v,0,,
lmc,VDACtest,19,g,TRUE,539.2,1,r,h,1,,
lmc,VDACtest,20,g,TRUE,762.7,2,g,h,2,,
lmc,VDACtest,21,g,TRUE,641.7,2,g,v,1,,
lmc,VDACtest,22,g,TRUE,594.7,1,r,h,0,,
lmc,VDACtest,23,g,TRUE,932.0999999,2,g,h,5,,
lmc,VDACtest,24,g,TRUE,554.2,2,g,h,5,,
lmc,VDACtest,25,g,TRUE,777.1999998,2,g,v,2,,
lmc,VDACtest,26,g,FALSE,795.3000002,1,r,h,2,,
lmc,VDACtest,27,g,TRUE,696.2,1,r,v,4,,
lmc,VDACtest,28,g,TRUE,649.8,2,g,h,2,,
lmc,VDACtest,29,g,TRUE,832.2,2,g,h,4,,
lmc,VDACtest,30,g,TRUE,825,1,r,v,2,,
lmc,VDACtest,31,g,TRUE,788.4000001,1,r,v,1,,
lmc,VDACtest,32,g,TRUE,651.3000002,1,r,v,5,,
lmc,VDACtest,33,g,TRUE,755.5,2,g,v,2,,
lmc,VDACtest,34,g,TRUE,810.9000001,2,g,h,2,,
lmc,VDACtest,35,g,TRUE,650.3,2,g,v,0,,
lmc,VDACtest,36,g,TRUE,691.3999999,1,r,v,1,,
lmc,VDACtest,37,g,null,null,2,g,v,5,,
lmc,VDACtest,38,g,null,null,1,r,h,3,,
lmc,VDACtest,39,g,TRUE,613.3000002,1,r,h,1,,
lmc,VDACtest,40,g,TRUE,571.7,1,r,v,4,,
lmc,VDACtest,41,g,TRUE,788.0999999,1,r,h,2,,
lmc,VDACtest,42,g,TRUE,576.8999999,2,g,v,5,,
lmc,VDACtest,43,g,TRUE,530.8,1,r,h,4,,
lmc,VDACtest,44,g,TRUE,635.9000001,2,g,v,5,,
lmc,VDACtest,45,g,TRUE,640.3999999,2,g,v,1,,
lmc,VDACtest,46,g,TRUE,667,1,r,v,3,,
lmc,VDACtest,47,g,TRUE,475.1000001,1,r,h,4,,
lmc,VDACtest,48,g,TRUE,769.5,2,g,h,1,,
lmc,VDACtest,49,g,TRUE,801.8999999,1,r,v,2,,
lmc,VDACtest,50,g,TRUE,842.8,2,g,v,3,,
brk,brk,brk,brk,brk,brk,brk,brk,brk,brk,brk,brk
lmc,VDACtest,51,g,null,null,2,g,v,5,,
lmc,VDACtest,52,g,TRUE,651.0999999,2,g,v,0,,
lmc,VDACtest,53,g,TRUE,706.0999999,2,g,h,1,,
lmc,VDACtest,54,g,TRUE,546.3,2,g,h,4,,
lmc,VDACtest,55,g,TRUE,779.4000001,2,g,v,3,,
lmc,VDACtest,56,g,TRUE,546.3999999,1,r,h,1,,
lmc,VDACtest,57,g,TRUE,658.3000002,2,g,h,0,,
lmc,VDACtest,58,g,TRUE,650.6000001,1,r,v,4,,
lmc,VDACtest,59,g,TRUE,754.1000001,1,r,h,3,,
lmc,VDACtest,60,g,TRUE,824.7,2,g,v,3,,
lmc,VDACtest,61,g,TRUE,600.1999998,1,r,v,5,,
lmc,VDACtest,62,g,TRUE,552.0999999,1,r,h,4,,
lmc,VDACtest,63,g,TRUE,576.9000001,1,r,v,5,,
lmc,VDACtest,64,g,TRUE,579.8999999,2,g,h,5,,
lmc,VDACtest,65,g,TRUE,793.3000002,1,r,h,3,,
lmc,VDACtest,66,g,TRUE,699.9000001,1,r,v,1,,
lmc,VDACtest,67,g,TRUE,848.2,2,g,v,0,,
lmc,VDACtest,68,g,TRUE,625,2,g,v,1,,
lmc,VDACtest,69,g,TRUE,722.7,1,r,h,0,,
lmc,VDACtest,70,g,TRUE,688.7,1,r,h,2,,
lmc,VDACtest,71,g,TRUE,865.8999999,2,g,v,4,,
lmc,VDACtest,72,g,TRUE,723.5999999,1,r,v,3,,
lmc,VDACtest,73,g,TRUE,626.9000001,1,r,v,4,,
lmc,VDACtest,74,g,TRUE,567.6999998,1,r,v,5,,
lmc,VDACtest,75,g,TRUE,745.8999999,1,r,v,0,,
lmc,VDACtest,76,g,TRUE,882.0999999,2,g,h,3,,
lmc,VDACtest,77,g,TRUE,746.3999999,2,g,v,3,,
lmc,VDACtest,78,g,TRUE,657.4000001,2,g,h,2,,
lmc,VDACtest,79,g,TRUE,617.8000002,2,g,h,1,,
lmc,VDACtest,80,g,TRUE,601.8,2,g,v,1,,
lmc,VDACtest,81,g,TRUE,664.9000001,2,g,v,2,,
lmc,VDACtest,82,g,TRUE,716.3999999,2,g,h,5,,
lmc,VDACtest,83,g,TRUE,673.5,1,r,v,3,,
lmc,VDACtest,84,g,TRUE,696.6000001,1,r,v,1,,
lmc,VDACtest,85,g,TRUE,783,1,r,v,3,,
lmc,VDACtest,86,g,TRUE,856.8999999,2,g,v,4,,
lmc,VDACtest,87,g,TRUE,594.7,1,r,h,0,,
lmc,VDACtest,88,g,TRUE,580.3,2,g,v,2,,
lmc,VDACtest,89,g,TRUE,705.3,2,g,h,3,,
lmc,VDACtest,90,g,TRUE,747.8,1,r,h,2,,
lmc,VDACtest,91,g,TRUE,866.5,2,g,h,4,,
lmc,VDACtest,92,g,TRUE,618.9000001,2,g,h,4,,
lmc,VDACtest,93,g,TRUE,884,2,g,h,2,,
lmc,VDACtest,94,g,null,null,1,r,v,3,,
lmc,VDACtest,95,g,TRUE,668.8,1,r,h,4,,
lmc,VDACtest,96,g,TRUE,593.1999998,1,r,h,4,,
lmc,VDACtest,97,g,TRUE,834.7,2,g,h,1,,
lmc,VDACtest,98,g,TRUE,634.5999999,2,g,v,3,,
lmc,VDACtest,99,g,TRUE,731.2,1,r,h,1,,
lmc,VDACtest,100,g,TRUE,737.8000002,1,r,h,2,,
brk,brk,brk,brk,brk,brk,brk,brk,brk,brk,brk,brk
lmc,VDACtest,101,g,TRUE,727.3,1,r,v,2,,
lmc,VDACtest,102,g,TRUE,776.2,2,g,h,1,,
lmc,VDACtest,103,g,TRUE,531,1,r,v,4,,
lmc,VDACtest,104,g,TRUE,787.4000001,2,g,v,5,,
lmc,VDACtest,105,g,TRUE,763.3999999,1,r,v,3,,
lmc,VDACtest,106,g,TRUE,530,1,r,v,5,,
lmc,VDACtest,107,g,TRUE,657.7,1,r,v,2,,
lmc,VDACtest,108,g,TRUE,491.0999999,2,g,h,2,,
lmc,VDACtest,109,g,TRUE,595.5,1,r,v,4,,
lmc,VDACtest,110,g,TRUE,490.9000001,1,r,h,5,,
lmc,VDACtest,111,g,TRUE,745.3,2,g,h,3,,
lmc,VDACtest,112,g,TRUE,731.8999999,1,r,v,1,,
lmc,VDACtest,113,g,TRUE,608.7,1,r,h,1,,
lmc,VDACtest,114,g,TRUE,620.5999999,1,r,v,4,,
lmc,VDACtest,115,g,TRUE,698.8,2,g,h,0,,
lmc,VDACtest,116,g,TRUE,611.1000001,1,r,v,0,,
lmc,VDACtest,117,g,TRUE,513.5999999,2,g,h,4,,
lmc,VDACtest,118,g,TRUE,627.7,1,r,h,3,,
lmc,VDACtest,119,g,TRUE,632.9000001,1,r,h,0,,
lmc,VDACtest,120,g,TRUE,602.5999999,2,g,v,4,,
lmc,VDACtest,121,g,TRUE,578.3000002,2,g,h,4,,
lmc,VDACtest,122,g,TRUE,474.3999999,1,r,h,4,,
lmc,VDACtest,123,g,TRUE,649.8999999,1,r,h,5,,
lmc,VDACtest,124,g,TRUE,547.7,1,r,v,0,,
lmc,VDACtest,125,g,TRUE,595.0999999,1,r,v,3,,
lmc,VDACtest,126,g,TRUE,650.8,2,g,v,1,,
lmc,VDACtest,127,g,TRUE,529.7,1,r,h,3,,
lmc,VDACtest,128,g,TRUE,682.2,2,g,h,5,,
lmc,VDACtest,129,g,TRUE,647.3,1,r,h,1,,
lmc,VDACtest,130,g,TRUE,619.7,2,g,v,1,,
lmc,VDACtest,131,g,TRUE,674.7,2,g,h,4,,
lmc,VDACtest,132,g,TRUE,897.4000001,2,g,v,2,,
lmc,VDACtest,133,g,TRUE,675,1,r,v,1,,
lmc,VDACtest,134,g,TRUE,658.9000001,1,r,h,4,,
lmc,VDACtest,135,g,TRUE,738.5,1,r,h,4,,
lmc,VDACtest,136,g,TRUE,707.3999999,1,r,v,4,,
lmc,VDACtest,137,g,TRUE,618.7,1,r,h,5,,
lmc,VDACtest,138,g,TRUE,593.5,1,r,h,3,,
lmc,VDACtest,139,g,TRUE,651,2,g,h,1,,
lmc,VDACtest,140,g,TRUE,603.0999999,1,r,h,1,,
lmc,VDACtest,141,g,TRUE,808.7,1,r,h,5,,
lmc,VDACtest,142,g,TRUE,601.8,1,r,v,4,,
lmc,VDACtest,143,g,TRUE,633.5999999,2,g,h,4,,
lmc,VDACtest,144,g,TRUE,552,2,g,v,5,,
lmc,VDACtest,145,g,TRUE,536.7,2,g,v,4,,
lmc,VDACtest,146,g,TRUE,738.9000001,1,r,v,2,,
lmc,VDACtest,147,g,TRUE,521.8,1,r,v,0,,
lmc,VDACtest,148,g,TRUE,665.8000002,2,g,v,4,,
lmc,VDACtest,149,g,TRUE,544.4000001,1,r,v,1,,
lmc,VDACtest,150,g,TRUE,583.8,1,r,h,1,,
brk,brk,brk,brk,brk,brk,brk,brk,brk,brk,brk,brk
lmc,VDACtest,151,g,TRUE,828,2,g,h,3,,
lmc,VDACtest,152,g,TRUE,522,2,g,h,2,,
lmc,VDACtest,153,g,FALSE,522.5,2,g,v,3,,
lmc,VDACtest,154,g,TRUE,602.2,1,r,h,3,,
lmc,VDACtest,155,g,TRUE,690,1,r,v,5,,
lmc,VDACtest,156,g,TRUE,771,2,g,h,1,,
lmc,VDACtest,157,g,TRUE,809.5999999,2,g,h,5,,
lmc,VDACtest,158,g,TRUE,632.7,2,g,h,0,,
lmc,VDACtest,159,g,TRUE,674.2,2,g,v,4,,
lmc,VDACtest,160,g,TRUE,786.2,2,g,h,2,,
lmc,VDACtest,161,g,TRUE,545.8999999,1,r,v,1,,
lmc,VDACtest,162,g,TRUE,759.9000001,2,g,v,5,,
lmc,VDACtest,163,g,TRUE,879.9000001,2,g,h,1,,
lmc,VDACtest,164,g,TRUE,673.7,2,g,v,2,,
lmc,VDACtest,165,g,TRUE,617.1000001,2,g,v,0,,
lmc,VDACtest,166,g,TRUE,562.6999998,1,r,v,0,,
lmc,VDACtest,167,g,TRUE,591.3999999,1,r,h,3,,
lmc,VDACtest,168,g,TRUE,721.3000002,1,r,h,0,,
lmc,VDACtest,169,g,TRUE,562.5,1,r,v,0,,
lmc,VDACtest,170,g,TRUE,658.1000001,2,g,h,3,,
lmc,VDACtest,171,g,TRUE,721.6999998,2,g,h,0,,
lmc,VDACtest,172,g,TRUE,627.6000001,2,g,v,3,,
lmc,VDACtest,173,g,TRUE,961.3,1,r,h,5,,
lmc,VDACtest,174,g,TRUE,681.3999999,1,r,h,2,,
lmc,VDACtest,175,g,TRUE,667.6000001,2,g,h,0,,
lmc,VDACtest,176,g,TRUE,609,2,g,h,0,,
lmc,VDACtest,177,g,TRUE,666.5999999,1,r,h,4,,
lmc,VDACtest,178,g,TRUE,515,2,g,v,0,,
lmc,VDACtest,179,g,TRUE,761.3,2,g,h,0,,
lmc,VDACtest,180,g,TRUE,641.4000001,2,g,v,2,,
lmc,VDACtest,181,g,TRUE,633.4000001,2,g,v,4,,
lmc,VDACtest,182,g,TRUE,544.3,2,g,h,3,,
lmc,VDACtest,183,g,TRUE,760.4000001,2,g,v,5,,
lmc,VDACtest,184,g,TRUE,607.1999998,2,g,v,1,,
lmc,VDACtest,185,g,TRUE,728.5,1,r,h,5,,
lmc,VDACtest,186,g,TRUE,609.6000001,1,r,h,2,,
lmc,VDACtest,187,g,TRUE,649.2,1,r,v,5,,
lmc,VDACtest,188,g,TRUE,593.5,1,r,v,5,,
lmc,VDACtest,189,g,TRUE,769.7,2,g,v,1,,
lmc,VDACtest,190,g,TRUE,721.8,2,g,h,0,,
lmc,VDACtest,191,g,TRUE,610,2,g,h,5,,
lmc,VDACtest,192,g,TRUE,539,1,r,h,5,,
lmc,VDACtest,193,g,TRUE,689.2,2,g,v,2,,
lmc,VDACtest,194,g,TRUE,567.5,1,r,h,0,,
lmc,VDACtest,195,g,TRUE,769.2,2,g,v,0,,
lmc,VDACtest,196,g,TRUE,840.3,2,g,h,4,,
lmc,VDACtest,197,g,TRUE,610.3,1,r,v,2,,
lmc,VDACtest,198,g,TRUE,584.8999999,1,r,h,5,,
lmc,VDACtest,199,g,TRUE,768.5,1,r,v,0,,
lmc,VDACtest,200,g,TRUE,529.4000001,1,r,h,0,,
lmc,RSVPtrain,0,g,null,null,2,g,,3,1,1
lmc,RSVPtrain,0,g,FALSE,1665.5,1,r,,3,2,1
lmc,RSVPtrain,0,g,TRUE,1474.3,2,g,,1,0,1
lmc,RSVPtrain,0,g,TRUE,1292.9,0,b,,3,3,0
lmc,RSVPtrain,0,g,TRUE,1010.3,2,g,,2,2,2
lmc,RSVPtrain,0,g,FALSE,1547.6,1,r,,0,0,2
lmc,RSVPtrain,0,g,TRUE,1106.7,0,b,,1,3,0
lmc,RSVPtrain,0,g,TRUE,1037.1,0,b,,0,3,0
lmc,RSVPtrain,0,g,TRUE,909.0999999,1,r,,1,1,2
lmc,RSVPtrain,0,g,TRUE,805.8,2,g,,3,0,1
lmc,RSVPtest,1,g,TRUE,1214.4,2,g,,3,0,1
lmc,RSVPtest,2,g,TRUE,1605,0,b,,3,3,0
lmc,RSVPtest,3,g,TRUE,756.5,1,r,,1,0,1
lmc,RSVPtest,4,g,FALSE,1133.9,0,b,,3,3,0
lmc,RSVPtest,5,g,TRUE,1607.1,0,b,,3,3,0
lmc,RSVPtest,6,g,TRUE,779,2,g,,2,2,2
lmc,RSVPtest,7,g,TRUE,1061.5,2,g,,1,2,1
lmc,RSVPtest,8,g,TRUE,1061,1,r,,1,1,2
lmc,RSVPtest,9,g,FALSE,986.9000001,1,r,,3,2,1
lmc,RSVPtest,10,g,TRUE,844.3,2,g,,1,2,1
lmc,RSVPtest,11,g,TRUE,717.2,0,b,,3,3,0
lmc,RSVPtest,12,g,TRUE,867.2,0,b,,0,3,0
lmc,RSVPtest,13,g,TRUE,796.3,2,g,,0,2,1
lmc,RSVPtest,14,g,TRUE,1309.5,0,b,,3,3,0
lmc,RSVPtest,15,g,TRUE,836.5,2,g,,2,1,1
lmc,RSVPtest,16,g,TRUE,1395.5,1,r,,2,0,1
lmc,RSVPtest,17,g,FALSE,1118.2,2,g,,0,2,1
lmc,RSVPtest,18,g,FALSE,1043.6,1,r,,3,2,1
lmc,RSVPtest,19,g,TRUE,788.2,2,g,,1,0,1
lmc,RSVPtest,20,g,TRUE,1451.1,1,r,,2,0,1
lmc,RSVPtest,21,g,TRUE,850.5999999,1,r,,3,0,1
lmc,RSVPtest,22,g,TRUE,1172,0,b,,3,3,0
lmc,RSVPtest,23,g,TRUE,700.4000001,2,g,,3,0,1
lmc,RSVPtest,24,g,TRUE,866.5,2,g,,2,0,1
lmc,RSVPtest,25,g,TRUE,690.5,0,b,,3,3,0
lmc,RSVPtest,26,g,TRUE,883.1999998,2,g,,2,1,1
lmc,RSVPtest,27,g,TRUE,858.5999999,1,r,,2,1,1
lmc,RSVPtest,28,g,TRUE,843.8,2,g,,1,1,2
lmc,RSVPtest,29,g,TRUE,796.6000001,0,b,,2,3,0
lmc,RSVPtest,30,g,FALSE,787.1000001,0,b,,1,3,0
lmc,RSVPtest,31,g,FALSE,1187.5,2,g,,0,1,1
lmc,RSVPtest,32,g,TRUE,836.3000002,0,b,,0,3,0
lmc,RSVPtest,33,g,TRUE,684.7,2,g,,3,1,1
lmc,RSVPtest,34,g,TRUE,1348,0,b,,2,3,0
lmc,RSVPtest,35,g,TRUE,1227.2,1,r,,1,0,1
lmc,RSVPtest,36,g,FALSE,1066.5,2,g,,2,0,1
lmc,RSVPtest,37,g,TRUE,691.8,2,g,,1,0,1
lmc,RSVPtest,38,g,TRUE,938.3,1,r,,3,2,1
lmc,RSVPtest,39,g,TRUE,771.8,1,r,,3,0,1
lmc,RSVPtest,40,g,TRUE,970.6000001,1,r,,3,1,1
lmc,RSVPtest,41,g,TRUE,770.9000001,1,r,,2,2,2
lmc,RSVPtest,42,g,TRUE,1102.5,0,b,,2,3,0
lmc,RSVPtest,43,g,TRUE,859.0999999,2,g,,0,1,1
lmc,RSVPtest,44,g,TRUE,747,0,b,,3,3,0
lmc,RSVPtest,45,g,TRUE,760.8,1,r,,3,2,1
lmc,RSVPtest,46,g,TRUE,721.2,2,g,,1,2,1
lmc,RSVPtest,47,g,FALSE,704.9000001,1,r,,3,2,1
lmc,RSVPtest,48,g,TRUE,827.3999999,1,r,,1,2,1
lmc,RSVPtest,49,g,FALSE,1025.1,0,b,,1,3,0
lmc,RSVPtest,50,g,TRUE,735.4000001,0,b,,3,3,0
lmc,RSVPtest,51,g,TRUE,934.3,2,g,,3,0,1
lmc,RSVPtest,52,g,FALSE,757.0999999,1,r,,0,0,2
lmc,RSVPtest,53,g,TRUE,963.0999999,1,r,,2,1,1
lmc,RSVPtest,54,g,TRUE,1585,2,g,,3,1,1
lmc,RSVPtest,55,g,TRUE,1502.4,0,b,,2,3,0
lmc,RSVPtest,56,g,TRUE,1034.4,1,r,,3,2,1
lmc,RSVPtest,57,g,TRUE,1157.2,0,b,,3,3,0
lmc,RSVPtest,58,g,TRUE,971.0999999,1,r,,3,2,1
lmc,RSVPtest,59,g,TRUE,819,2,g,,1,0,1
lmc,RSVPtest,60,g,FALSE,1804.4,2,g,,3,0,1
brk,brk,brk,brk,brk,brk,brk,brk,brk,brk,brk,brk
lmc,RSVPtest,61,g,TRUE,1210.4,0,b,,0,3,0
lmc,RSVPtest,62,g,null,null,0,b,,2,3,0
lmc,RSVPtest,63,g,TRUE,666.2,2,g,,2,2,2
lmc,RSVPtest,64,g,TRUE,940.8,2,g,,3,1,1
lmc,RSVPtest,65,g,TRUE,1419.8,0,b,,3,3,0
lmc,RSVPtest,66,g,TRUE,1324,0,b,,3,3,0
lmc,RSVPtest,67,g,TRUE,740.7,2,g,,2,1,1
lmc,RSVPtest,68,g,TRUE,914.3,1,r,,1,0,1
lmc,RSVPtest,69,g,TRUE,738.7,2,g,,2,2,2
lmc,RSVPtest,70,g,TRUE,874.5999999,0,b,,2,3,0
lmc,RSVPtest,71,g,FALSE,746.8,2,g,,3,2,1
lmc,RSVPtest,72,g,TRUE,772.6000001,1,r,,0,1,1
lmc,RSVPtest,73,g,TRUE,715.6000001,0,b,,3,3,0
lmc,RSVPtest,74,g,TRUE,714.1000001,2,g,,0,0,2
lmc,RSVPtest,75,g,FALSE,748.3,0,b,,3,3,0
lmc,RSVPtest,76,g,TRUE,979.9000001,1,r,,3,0,1
lmc,RSVPtest,77,g,TRUE,748.4000001,0,b,,3,3,0
lmc,RSVPtest,78,g,TRUE,747.7,1,r,,0,0,2
lmc,RSVPtest,79,g,TRUE,1468.4,0,b,,3,3,0
lmc,RSVPtest,80,g,TRUE,747.2,0,b,,1,3,0
lmc,RSVPtest,81,g,TRUE,1100.3,2,g,,1,0,1
lmc,RSVPtest,82,g,FALSE,819.7,2,g,,0,1,1
lmc,RSVPtest,83,g,TRUE,964.3,2,g,,0,1,1
lmc,RSVPtest,84,g,TRUE,1289.7,0,b,,1,3,0
lmc,RSVPtest,85,g,TRUE,915.5,1,r,,1,1,2
lmc,RSVPtest,86,g,TRUE,816.3,0,b,,2,3,0
lmc,RSVPtest,87,g,FALSE,1026.9,0,b,,0,3,0
lmc,RSVPtest,88,g,FALSE,977.8999999,2,g,,3,1,1
lmc,RSVPtest,89,g,TRUE,972.3,1,r,,2,0,1
lmc,RSVPtest,90,g,TRUE,759.3,1,r,,0,2,1
lmc,RSVPtest,91,g,TRUE,713.8999999,1,r,,1,2,1
lmc,RSVPtest,92,g,TRUE,840.1000001,1,r,,2,0,1
lmc,RSVPtest,93,g,TRUE,778.3,2,g,,3,2,1
lmc,RSVPtest,94,g,TRUE,1170.7,1,r,,2,2,2
lmc,RSVPtest,95,g,TRUE,1181.7,2,g,,3,0,1
lmc,RSVPtest,96,g,TRUE,631.0999999,1,r,,1,1,2
lmc,RSVPtest,97,g,TRUE,858.9000001,2,g,,3,0,1
lmc,RSVPtest,98,g,TRUE,1472.4,2,g,,3,1,1
lmc,RSVPtest,99,g,TRUE,1490,2,g,,0,0,2
lmc,RSVPtest,100,g,TRUE,746.9000001,2,g,,1,2,1
lmc,RSVPtest,101,g,TRUE,1389.1,1,r,,2,2,2
lmc,RSVPtest,102,g,TRUE,730.8,2,g,,3,2,1
lmc,RSVPtest,103,g,TRUE,737.5999999,1,r,,3,1,1
lmc,RSVPtest,104,g,TRUE,665.1999998,2,g,,3,2,1
lmc,RSVPtest,105,g,TRUE,761,0,b,,3,3,0
lmc,RSVPtest,106,g,TRUE,1306.9,2,g,,3,1,1
lmc,RSVPtest,107,g,TRUE,625.2,2,g,,3,1,1
lmc,RSVPtest,108,g,FALSE,1658.2,2,g,,3,2,1
lmc,RSVPtest,109,g,TRUE,1051.7,1,r,,1,1,2
lmc,RSVPtest,110,g,TRUE,841.2,1,r,,3,0,1
lmc,RSVPtest,111,g,TRUE,792.1000001,2,g,,1,1,2
lmc,RSVPtest,112,g,TRUE,1242.1,1,r,,1,2,1
lmc,RSVPtest,113,g,TRUE,893.7,1,r,,3,1,1
lmc,RSVPtest,114,g,TRUE,890.2,1,r,,0,1,1
lmc,RSVPtest,115,g,TRUE,809,2,g,,2,1,1
lmc,RSVPtest,116,g,TRUE,1086.1,1,r,,2,1,1
lmc,RSVPtest,117,g,TRUE,923.4000001,0,b,,3,3,0
lmc,RSVPtest,118,g,TRUE,920.6000001,1,r,,0,2,1
lmc,RSVPtest,119,g,TRUE,779.7,1,r,,2,0,1
lmc,RSVPtest,120,g,FALSE,1432.8,2,g,,1,0,1
brk,brk,brk,brk,brk,brk,brk,brk,brk,brk,brk,brk
lmc,RSVPtest,121,g,FALSE,1425,0,b,,3,3,0
lmc,RSVPtest,122,g,TRUE,1081.4,2,g,,2,0,1
lmc,RSVPtest,123,g,TRUE,1015.7,2,g,,2,2,2
lmc,RSVPtest,124,g,TRUE,1033.8,0,b,,1,3,0
lmc,RSVPtest,125,g,TRUE,1056.3,0,b,,0,3,0
lmc,RSVPtest,126,g,TRUE,1223.5,2,g,,2,0,1
lmc,RSVPtest,127,g,TRUE,1003.2,0,b,,2,3,0
lmc,RSVPtest,128,g,FALSE,2279.6,1,r,,2,2,2
lmc,RSVPtest,129,g,TRUE,1410.5,1,r,,3,0,1
lmc,RSVPtest,130,g,TRUE,1106.3,2,g,,0,0,2
lmc,RSVPtest,131,g,TRUE,1051.3,0,b,,0,3,0
lmc,RSVPtest,132,g,TRUE,1770.2,2,g,,3,1,1
lmc,RSVPtest,133,g,TRUE,1248.6,0,b,,2,3,0
lmc,RSVPtest,134,g,TRUE,1664.1,1,r,,2,1,1
lmc,RSVPtest,135,g,TRUE,1436,1,r,,3,0,1
lmc,RSVPtest,136,g,TRUE,1505.7,2,g,,3,2,1
lmc,RSVPtest,137,g,TRUE,1636.3,2,g,,0,2,1
lmc,RSVPtest,138,g,TRUE,899.7,1,r,,3,2,1
lmc,RSVPtest,139,g,TRUE,1339.6,1,r,,3,1,1
lmc,RSVPtest,140,g,TRUE,1344.4,2,g,,3,0,1
lmc,RSVPtest,141,g,TRUE,1707.2,2,g,,3,2,1
lmc,RSVPtest,142,g,TRUE,1681.7,2,g,,1,1,2
lmc,RSVPtest,143,g,TRUE,1264.2,2,g,,3,1,1
lmc,RSVPtest,144,g,TRUE,993.1000001,1,r,,0,2,1
lmc,RSVPtest,145,g,TRUE,1913.3,1,r,,3,1,1
lmc,RSVPtest,146,g,TRUE,1346,1,r,,0,1,1
lmc,RSVPtest,147,g,TRUE,1966.2,2,g,,2,0,1
lmc,RSVPtest,148,g,TRUE,1035.3,0,b,,1,3,0
lmc,RSVPtest,149,g,TRUE,1138,1,r,,3,0,1
lmc,RSVPtest,150,g,FALSE,1799.2,1,r,,3,0,1
lmc,RSVPtest,151,g,TRUE,1067.6,0,b,,0,3,0
lmc,RSVPtest,152,g,TRUE,1625.3,2,g,,0,1,1
lmc,RSVPtest,153,g,TRUE,2120.1,2,g,,2,1,1
lmc,RSVPtest,154,g,TRUE,872.8999999,0,b,,1,3,0
lmc,RSVPtest,155,g,TRUE,939.4000001,2,g,,0,0,2
lmc,RSVPtest,156,g,TRUE,1375.8,0,b,,1,3,0
lmc,RSVPtest,157,g,FALSE,1388.5,1,r,,3,1,1
lmc,RSVPtest,158,g,TRUE,818.5,1,r,,1,2,1
lmc,RSVPtest,159,g,FALSE,890.8,2,g,,3,2,1
lmc,RSVPtest,160,g,TRUE,867.0999999,2,g,,1,2,1
lmc,RSVPtest,161,g,TRUE,1026.4,1,r,,3,0,1
lmc,RSVPtest,162,g,TRUE,1346.6,1,r,,3,1,1
lmc,RSVPtest,163,g,TRUE,1265.8,1,r,,3,2,1
lmc,RSVPtest,164,g,TRUE,1216.7,1,r,,0,2,1
lmc,RSVPtest,165,g,TRUE,896.8999999,2,g,,3,0,1
lmc,RSVPtest,166,g,TRUE,1060.8,2,g,,1,1,2
lmc,RSVPtest,167,g,TRUE,956,2,g,,1,1,2
lmc,RSVPtest,168,g,FALSE,1232.7,1,r,,0,2,1
lmc,RSVPtest,169,g,TRUE,2016.6,2,g,,0,1,1
lmc,RSVPtest,170,g,TRUE,1695.9,2,g,,0,0,2
lmc,RSVPtest,171,g,TRUE,884.9000001,1,r,,0,0,2
lmc,RSVPtest,172,g,TRUE,872.3999999,1,r,,1,2,1
lmc,RSVPtest,173,g,TRUE,842.3,1,r,,3,1,1
lmc,RSVPtest,174,g,TRUE,826.6000001,0,b,,3,3,0
lmc,RSVPtest,175,g,TRUE,1018.1,1,r,,2,0,1
lmc,RSVPtest,176,g,TRUE,1562.6,2,g,,3,0,1
lmc,RSVPtest,177,g,TRUE,564.1000001,2,g,,1,2,1
lmc,RSVPtest,178,g,TRUE,1031.8,2,g,,0,2,1
lmc,RSVPtest,179,g,FALSE,1648.2,2,g,,0,2,1
lmc,RSVPtest,180,g,TRUE,1090.3,2,g,,0,0,2
brk,brk,brk,brk,brk,brk,brk,brk,brk,brk,brk,brk
lmc,RSVPtest,181,g,FALSE,1194.7,0,b,,3,3,0
lmc,RSVPtest,182,g,TRUE,1233.5,2,g,,3,1,1
lmc,RSVPtest,183,g,TRUE,1792.6,1,r,,3,2,1
lmc,RSVPtest,184,g,TRUE,1458.3,1,r,,2,1,1
lmc,RSVPtest,185,g,TRUE,1242,2,g,,2,2,2
lmc,RSVPtest,186,g,TRUE,1155.1,0,b,,3,3,0
lmc,RSVPtest,187,g,TRUE,1304.4,0,b,,2,3,0
lmc,RSVPtest,188,g,TRUE,1152.5,0,b,,1,3,0
lmc,RSVPtest,189,g,TRUE,1257,0,b,,3,3,0
lmc,RSVPtest,190,g,TRUE,1017.3,1,r,,2,2,2
lmc,RSVPtest,191,g,TRUE,961.1000001,1,r,,0,0,2
lmc,RSVPtest,192,g,FALSE,1392.3,2,g,,2,0,1
lmc,RSVPtest,193,g,TRUE,1048.9,0,b,,0,3,0
lmc,RSVPtest,194,g,TRUE,1192,1,r,,1,0,1
lmc,RSVPtest,195,g,TRUE,889.0999999,1,r,,0,0,2
lmc,RSVPtest,196,g,TRUE,1096.7,2,g,,3,1,1
lmc,RSVPtest,197,g,TRUE,1697.3,0,b,,2,3,0
lmc,RSVPtest,198,g,FALSE,1895.8,2,g,,3,2,1
lmc,RSVPtest,199,g,TRUE,1008,0,b,,1,3,0
lmc,RSVPtest,200,g,TRUE,1530.1,1,r,,0,2,1
lmc,RSVPtest,201,g,TRUE,1317.9,2,g,,3,0,1
lmc,RSVPtest,202,g,FALSE,1551.1,0,b,,2,3,0
lmc,RSVPtest,203,g,TRUE,1418.3,1,r,,1,0,1
lmc,RSVPtest,204,g,TRUE,2016.5,1,r,,2,1,1
lmc,RSVPtest,205,g,TRUE,1175.1,2,g,,3,0,1
lmc,RSVPtest,206,g,FALSE,1462.6,1,r,,3,0,1
lmc,RSVPtest,207,g,TRUE,1400.9,0,b,,0,3,0
lmc,RSVPtest,208,g,TRUE,993.5999999,1,r,,0,0,2
lmc,RSVPtest,209,g,TRUE,1926.3,1,r,,3,0,1
lmc,RSVPtest,210,g,TRUE,1192.6,2,g,,3,2,1
lmc,RSVPtest,211,g,TRUE,1134.1,0,b,,1,3,0
lmc,RSVPtest,212,g,TRUE,1377.9,1,r,,1,1,2
lmc,RSVPtest,213,g,TRUE,1361.8,2,g,,2,2,2
lmc,RSVPtest,214,g,TRUE,1738.9,2,g,,2,1,1
lmc,RSVPtest,215,g,TRUE,2353.5,1,r,,0,1,1
lmc,RSVPtest,216,g,TRUE,1193.6,1,r,,3,1,1
lmc,RSVPtest,217,g,TRUE,1033.8,2,g,,3,1,1
lmc,RSVPtest,218,g,TRUE,1273.2,2,g,,3,0,1
lmc,RSVPtest,219,g,TRUE,1121.8,2,g,,0,2,1
lmc,RSVPtest,220,g,TRUE,1183.8,0,b,,0,3,0
lmc,RSVPtest,221,g,TRUE,1230.8,0,b,,3,3,0
lmc,RSVPtest,222,g,TRUE,1208.1,2,g,,1,0,1
lmc,RSVPtest,223,g,TRUE,1495.2,1,r,,0,1,1
lmc,RSVPtest,224,g,TRUE,1801.3,0,b,,0,3,0
lmc,RSVPtest,225,g,TRUE,1124.7,1,r,,3,0,1
lmc,RSVPtest,226,g,TRUE,2055.8,1,r,,1,0,1
lmc,RSVPtest,227,g,TRUE,1247.8,1,r,,3,1,1
lmc,RSVPtest,228,g,null,null,1,r,,3,2,1
lmc,RSVPtest,229,g,FALSE,1662.8,1,r,,3,1,1
lmc,RSVPtest,230,g,TRUE,950.4000001,2,g,,1,1,2
lmc,RSVPtest,231,g,TRUE,1413.4,2,g,,3,2,1
lmc,RSVPtest,232,g,FALSE,1318.6,1,r,,1,1,2
lmc,RSVPtest,233,g,TRUE,1506.4,1,r,,3,1,1
lmc,RSVPtest,234,g,TRUE,1984.8,1,r,,0,1,1
lmc,RSVPtest,235,g,TRUE,1048,0,b,,0,3,0
lmc,RSVPtest,236,g,FALSE,2366.4,2,g,,3,2,1
lmc,RSVPtest,237,g,TRUE,1208.5,1,r,,1,2,1
lmc,RSVPtest,238,g,TRUE,942.5999999,0,b,,1,3,0
lmc,RSVPtest,239,g,TRUE,736,1,r,,2,2,2
lmc,RSVPtest,240,g,TRUE,886.9000001,1,r,,3,2,1
subID,trialType,trialNum,cntBalance,correct,rt,rwdType,tgtCol,tgtDir,tgtPos,colPos,colMatch
rp9,VDACtrain,0,g,null,null,1,r,v,4,,
rp9,VDACtrain,0,g,null,null,2,g,h,5,,
rp9,VDACtrain,0,g,TRUE,614.8,1,r,h,0,,
rp9,VDACtrain,0,g,TRUE,627.5,1,r,v,3,,
rp9,VDACtrain,0,g,null,null,1,r,h,2,,
rp9,VDACtrain,0,g,TRUE,694,2,g,v,5,,
rp9,VDACtrain,0,g,FALSE,699.2,1,r,h,1,,
rp9,VDACtrain,0,g,TRUE,924.8,2,g,v,0,,
rp9,VDACtrain,0,g,FALSE,875.8,2,g,v,2,,
rp9,VDACtrain,0,g,TRUE,723.6,2,g,h,3,,
rp9,VDACtrain,0,g,TRUE,676.9,1,r,v,4,,
rp9,VDACtrain,0,g,TRUE,795,2,g,v,2,,
rp9,VDACtrain,0,g,TRUE,546.5,2,g,v,0,,
rp9,VDACtrain,0,g,TRUE,635,1,r,h,1,,
rp9,VDACtrain,0,g,FALSE,658.5,2,g,h,5,,
rp9,VDACtrain,0,g,FALSE,731.4,1,r,h,2,,
rp9,VDACtrain,0,g,null,null,1,r,h,0,,
rp9,VDACtrain,0,g,TRUE,700.6,1,r,v,3,,
rp9,VDACtrain,0,g,TRUE,862.1,2,g,h,3,,
rp9,VDACtrain,0,g,TRUE,563.7,2,g,v,5,,
rp9,VDACtest,1,g,TRUE,623.1,2,g,v,5,,
rp9,VDACtest,2,g,TRUE,602.8,2,g,v,2,,
rp9,VDACtest,3,g,TRUE,745.8,2,g,v,1,,
rp9,VDACtest,4,g,TRUE,449.3,2,g,v,2,,
rp9,VDACtest,5,g,TRUE,468.9,2,g,v,5,,
rp9,VDACtest,6,g,TRUE,611.3,2,g,h,2,,
rp9,VDACtest,7,g,TRUE,619,2,g,v,4,,
rp9,VDACtest,8,g,FALSE,563.5,2,g,h,1,,
rp9,VDACtest,9,g,FALSE,555.2,1,r,h,5,,
rp9,VDACtest,10,g,TRUE,809.7,2,g,h,1,,
rp9,VDACtest,11,g,TRUE,739.1,1,r,v,5,,
rp9,VDACtest,12,g,null,null,1,r,v,0,,
rp9,VDACtest,13,g,TRUE,806.2,2,g,h,4,,
rp9,VDACtest,14,g,TRUE,659.2,1,r,v,4,,
rp9,VDACtest,15,g,TRUE,627.1,2,g,v,3,,
rp9,VDACtest,16,g,TRUE,634.3,1,r,v,3,,
rp9,VDACtest,17,g,TRUE,497.6,2,g,v,0,,
rp9,VDACtest,18,g,TRUE,513.7,1,r,v,4,,
rp9,VDACtest,19,g,TRUE,562.1,1,r,v,0,,
rp9,VDACtest,20,g,TRUE,634.3,1,r,h,3,,
rp9,VDACtest,21,g,TRUE,729.7,2,g,h,3,,
rp9,VDACtest,22,g,TRUE,747.9,1,r,h,2,,
rp9,VDACtest,23,g,TRUE,411.4,2,g,v,4,,
rp9,VDACtest,24,g,TRUE,451.5,2,g,h,3,,
rp9,VDACtest,25,g,FALSE,426.6,2,g,v,3,,
rp9,VDACtest,26,g,TRUE,571.7,2,g,v,0,,
rp9,VDACtest,27,g,FALSE,699.2,1,r,v,1,,
rp9,VDACtest,28,g,TRUE,756.3,2,g,h,3,,
rp9,VDACtest,29,g,FALSE,715.1,2,g,h,0,,
rp9,VDACtest,30,g,FALSE,682.7,2,g,h,5,,
rp9,VDACtest,31,g,FALSE,499.2,1,r,v,3,,
rp9,VDACtest,32,g,TRUE,473.7,1,r,v,3,,
rp9,VDACtest,33,g,TRUE,553.5,2,g,h,0,,
rp9,VDACtest,34,g,TRUE,579.5,2,g,v,3,,
rp9,VDACtest,35,g,TRUE,442.2,2,g,h,2,,
rp9,VDACtest,36,g,TRUE,673.8,1,r,v,5,,
rp9,VDACtest,37,g,TRUE,467.8,2,g,v,1,,
rp9,VDACtest,38,g,FALSE,448.9,1,r,v,1,,
rp9,VDACtest,39,g,FALSE,786.9,2,g,h,4,,
rp9,VDACtest,40,g,FALSE,619.7,1,r,h,3,,
rp9,VDACtest,41,g,TRUE,666.6,2,g,h,5,,
rp9,VDACtest,42,g,TRUE,610.6,1,r,h,3,,
rp9,VDACtest,43,g,TRUE,883.7,2,g,h,1,,
rp9,VDACtest,44,g,TRUE,649.1,1,r,h,5,,
rp9,VDACtest,45,g,TRUE,649.3,1,r,v,1,,
rp9,VDACtest,46,g,FALSE,571,1,r,h,2,,
rp9,VDACtest,47,g,FALSE,674.6,1,r,v,0,,
rp9,VDACtest,48,g,TRUE,891.5,1,r,h,3,,
rp9,VDACtest,49,g,TRUE,762.8,1,r,h,0,,
rp9,VDACtest,50,g,TRUE,603.7,2,g,v,4,,
brk,brk,brk,brk,brk,brk,brk,brk,brk,brk,brk,brk
rp9,VDACtest,51,g,FALSE,665.4,2,g,v,2,,
rp9,VDACtest,52,g,TRUE,756.2,1,r,v,0,,
rp9,VDACtest,53,g,TRUE,484.4,2,g,h,2,,
rp9,VDACtest,54,g,TRUE,459.7,2,g,h,2,,
rp9,VDACtest,55,g,TRUE,522,2,g,h,5,,
rp9,VDACtest,56,g,TRUE,716.1,1,r,h,4,,
rp9,VDACtest,57,g,TRUE,452.7,2,g,h,3,,
rp9,VDACtest,58,g,TRUE,571.6,2,g,v,3,,
rp9,VDACtest,59,g,FALSE,409.6,2,g,v,3,,
rp9,VDACtest,60,g,TRUE,612.5,1,r,h,4,,
rp9,VDACtest,61,g,TRUE,562.1,2,g,h,2,,
rp9,VDACtest,62,g,TRUE,443.8,2,g,v,4,,
rp9,VDACtest,63,g,TRUE,603.3,1,r,h,0,,
rp9,VDACtest,64,g,TRUE,586.8,1,r,h,3,,
rp9,VDACtest,65,g,FALSE,844,1,r,v,5,,
rp9,VDACtest,66,g,FALSE,612.1,1,r,v,2,,
rp9,VDACtest,67,g,TRUE,547.3,2,g,v,5,,
rp9,VDACtest,68,g,TRUE,835.2,1,r,h,4,,
rp9,VDACtest,69,g,TRUE,642.4,2,g,h,0,,
rp9,VDACtest,70,g,TRUE,516.1,2,g,h,3,,
rp9,VDACtest,71,g,TRUE,522.8,1,r,h,4,,
rp9,VDACtest,72,g,TRUE,586.5,1,r,h,1,,
rp9,VDACtest,73,g,TRUE,484.2,2,g,h,4,,
rp9,VDACtest,74,g,TRUE,507.1,2,g,v,4,,
rp9,VDACtest,75,g,FALSE,372.4,2,g,v,1,,
rp9,VDACtest,76,g,TRUE,729.5,2,g,v,1,,
rp9,VDACtest,77,g,TRUE,434.7,2,g,h,5,,
rp9,VDACtest,78,g,FALSE,539.6,1,r,v,1,,
rp9,VDACtest,79,g,TRUE,656.7,1,r,h,4,,
rp9,VDACtest,80,g,TRUE,435,1,r,v,4,,
rp9,VDACtest,81,g,TRUE,737.6,2,g,h,2,,
rp9,VDACtest,82,g,TRUE,578.2,1,r,v,2,,
rp9,VDACtest,83,g,TRUE,635.1,1,r,h,0,,
rp9,VDACtest,84,g,TRUE,530.9,2,g,v,0,,
rp9,VDACtest,85,g,FALSE,481,1,r,v,0,,
rp9,VDACtest,86,g,TRUE,708.2,1,r,v,5,,
rp9,VDACtest,87,g,TRUE,395,1,r,h,0,,
rp9,VDACtest,88,g,TRUE,666.3,1,r,v,4,,
rp9,VDACtest,89,g,TRUE,795.5,1,r,v,2,,
rp9,VDACtest,90,g,TRUE,515.7,2,g,h,0,,
rp9,VDACtest,91,g,FALSE,506.7,1,r,v,2,,
rp9,VDACtest,92,g,TRUE,483.3,1,r,v,5,,
rp9,VDACtest,93,g,TRUE,395.3,2,g,h,3,,
rp9,VDACtest,94,g,TRUE,738.2,1,r,v,0,,
rp9,VDACtest,95,g,TRUE,283.4,1,r,h,1,,
rp9,VDACtest,96,g,TRUE,623.8,1,r,v,2,,
rp9,VDACtest,97,g,TRUE,634.8,1,r,h,1,,
rp9,VDACtest,98,g,TRUE,594.8,1,r,h,1,,
rp9,VDACtest,99,g,TRUE,635.5,1,r,v,4,,
rp9,VDACtest,100,g,FALSE,531.7,1,r,v,1,,
brk,brk,brk,brk,brk,brk,brk,brk,brk,brk,brk,brk
rp9,VDACtest,101,g,TRUE,629.7,2,g,v,5,,
rp9,VDACtest,102,g,TRUE,507,1,r,h,2,,
rp9,VDACtest,103,g,TRUE,820.5,2,g,v,3,,
rp9,VDACtest,104,g,FALSE,306.7,2,g,v,2,,
rp9,VDACtest,105,g,TRUE,587,1,r,h,5,,
rp9,VDACtest,106,g,TRUE,683.1,1,r,v,3,,
rp9,VDACtest,107,g,TRUE,442.4,2,g,h,4,,
rp9,VDACtest,108,g,TRUE,537.6,2,g,h,5,,
rp9,VDACtest,109,g,null,null,1,r,v,0,,
rp9,VDACtest,110,g,TRUE,453.9,2,g,h,3,,
rp9,VDACtest,111,g,TRUE,499.4,2,g,h,5,,
rp9,VDACtest,112,g,TRUE,451,2,g,h,3,,
rp9,VDACtest,113,g,null,null,1,r,h,2,,
rp9,VDACtest,114,g,TRUE,502.8,1,r,h,0,,
rp9,VDACtest,115,g,TRUE,539.2,1,r,h,4,,
rp9,VDACtest,116,g,TRUE,698.5,2,g,v,5,,
rp9,VDACtest,117,g,TRUE,580.8,1,r,v,3,,
rp9,VDACtest,118,g,TRUE,811.9,2,g,v,0,,
rp9,VDACtest,119,g,TRUE,731.2,1,r,h,0,,
rp9,VDACtest,120,g,TRUE,738.9,2,g,v,4,,
rp9,VDACtest,121,g,TRUE,650.9,2,g,v,4,,
rp9,VDACtest,122,g,TRUE,497.5,2,g,h,1,,
rp9,VDACtest,123,g,TRUE,739.4,1,r,v,4,,
rp9,VDACtest,124,g,TRUE,611.3,1,r,h,2,,
rp9,VDACtest,125,g,TRUE,723.6,1,r,h,5,,
rp9,VDACtest,126,g,TRUE,579.4,1,r,h,1,,
rp9,VDACtest,127,g,TRUE,521.8,1,r,v,3,,
rp9,VDACtest,128,g,TRUE,444.1,1,r,h,5,,
rp9,VDACtest,129,g,TRUE,651.7,2,g,h,1,,
rp9,VDACtest,130,g,TRUE,562,1,r,v,4,,
rp9,VDACtest,131,g,TRUE,595.2,2,g,h,0,,
rp9,VDACtest,132,g,FALSE,507.6,1,r,v,1,,
rp9,VDACtest,133,g,TRUE,731,1,r,v,1,,
rp9,VDACtest,134,g,TRUE,379.5,2,g,h,0,,
rp9,VDACtest,135,g,TRUE,628.8,2,g,v,1,,
rp9,VDACtest,136,g,TRUE,567.9,2,g,v,1,,
rp9,VDACtest,137,g,TRUE,859.8,1,r,v,5,,
rp9,VDACtest,138,g,TRUE,570.8,1,r,h,4,,
rp9,VDACtest,139,g,TRUE,568.9,2,g,h,4,,
rp9,VDACtest,140,g,TRUE,483.6,1,r,h,3,,
rp9,VDACtest,141,g,TRUE,644.1,2,g,v,0,,
rp9,VDACtest,142,g,TRUE,754,2,g,v,3,,
rp9,VDACtest,143,g,TRUE,314.3,1,r,h,3,,
rp9,VDACtest,144,g,TRUE,360.6,2,g,h,4,,
rp9,VDACtest,145,g,TRUE,536.7,1,r,h,5,,
rp9,VDACtest,146,g,TRUE,562.8,2,g,h,1,,
rp9,VDACtest,147,g,TRUE,474.9,1,r,h,5,,
rp9,VDACtest,148,g,TRUE,321.7,1,r,h,3,,
rp9,VDACtest,149,g,TRUE,746.1,2,g,v,0,,
rp9,VDACtest,150,g,TRUE,484.2,1,r,v,1,,
brk,brk,brk,brk,brk,brk,brk,brk,brk,brk,brk,brk
rp9,VDACtest,151,g,TRUE,607.1,1,r,h,2,,
rp9,VDACtest,152,g,TRUE,570.5,2,g,v,2,,
rp9,VDACtest,153,g,TRUE,466.2,2,g,h,5,,
rp9,VDACtest,154,g,TRUE,755.7,1,r,v,2,,
rp9,VDACtest,155,g,TRUE,681.7,2,g,v,2,,
rp9,VDACtest,156,g,TRUE,786,2,g,v,3,,
rp9,VDACtest,157,g,TRUE,586.8,1,r,v,3,,
rp9,VDACtest,158,g,TRUE,537.8,2,g,v,5,,
rp9,VDACtest,159,g,TRUE,523.1,2,g,h,2,,
rp9,VDACtest,160,g,TRUE,507.8,1,r,v,0,,
rp9,VDACtest,161,g,TRUE,498.8,2,g,h,0,,
rp9,VDACtest,162,g,TRUE,883.3,1,r,v,4,,
rp9,VDACtest,163,g,TRUE,722.6,1,r,h,4,,
rp9,VDACtest,164,g,TRUE,476.4,1,r,h,0,,
rp9,VDACtest,165,g,TRUE,435.8,1,r,h,1,,
rp9,VDACtest,166,g,FALSE,394.6,2,g,v,1,,
rp9,VDACtest,167,g,FALSE,569.9,1,r,v,4,,
rp9,VDACtest,168,g,FALSE,563.3,2,g,v,0,,
rp9,VDACtest,169,g,FALSE,418.9,2,g,v,2,,
rp9,VDACtest,170,g,TRUE,417.7,1,r,v,5,,
rp9,VDACtest,171,g,TRUE,426.7,2,g,v,4,,
rp9,VDACtest,172,g,TRUE,530.8,2,g,v,2,,
rp9,VDACtest,173,g,TRUE,568.7,2,g,h,4,,
rp9,VDACtest,174,g,FALSE,594.6,2,g,v,4,,
rp9,VDACtest,175,g,TRUE,579.1,2,g,v,0,,
rp9,VDACtest,176,g,TRUE,434.5,2,g,h,4,,
rp9,VDACtest,177,g,TRUE,403.5,2,g,h,5,,
rp9,VDACtest,178,g,TRUE,523.1,1,r,v,5,,
rp9,VDACtest,179,g,TRUE,418.1,2,g,h,2,,
rp9,VDACtest,180,g,FALSE,434.4,1,r,v,2,,
rp9,VDACtest,181,g,TRUE,675.2,1,r,v,1,,
rp9,VDACtest,182,g,TRUE,391.6,2,g,h,1,,
rp9,VDACtest,183,g,TRUE,507.2,2,g,v,1,,
rp9,VDACtest,184,g,TRUE,547.1,2,g,v,5,,
rp9,VDACtest,185,g,TRUE,426.9,2,g,h,0,,
rp9,VDACtest,186,g,FALSE,370.5,2,g,h,1,,
rp9,VDACtest,187,g,FALSE,458.7,1,r,v,2,,
rp9,VDACtest,188,g,TRUE,483.8,1,r,v,3,,
rp9,VDACtest,189,g,TRUE,563.5,1,r,h,1,,
rp9,VDACtest,190,g,TRUE,395.5,1,r,h,1,,
rp9,VDACtest,191,g,TRUE,715.1,2,g,v,5,,
rp9,VDACtest,192,g,TRUE,505.2,1,r,h,0,,
rp9,VDACtest,193,g,TRUE,643.1,2,g,h,4,,
rp9,VDACtest,194,g,TRUE,435.8,1,r,h,4,,
rp9,VDACtest,195,g,TRUE,604.4,1,r,h,2,,
rp9,VDACtest,196,g,TRUE,468,2,g,v,1,,
rp9,VDACtest,197,g,TRUE,396.1,1,r,h,2,,
rp9,VDACtest,198,g,FALSE,371.8,2,g,h,1,,
rp9,VDACtest,199,g,TRUE,500.2,1,r,h,5,,
rp9,VDACtest,200,g,TRUE,466.3,1,r,h,1,,
rp9,RSVPtrain,0,g,null,null,0,b,,0,3,0
rp9,RSVPtrain,0,g,FALSE,1020.8,2,g,,3,0,1
rp9,RSVPtrain,0,g,TRUE,860.8,1,r,,1,1,2
rp9,RSVPtrain,0,g,TRUE,678.3,1,r,,3,2,1
rp9,RSVPtrain,0,g,FALSE,446,2,g,,2,2,2
rp9,RSVPtrain,0,g,FALSE,199.2,2,g,,3,1,1
rp9,RSVPtrain,0,g,TRUE,759.1,0,b,,3,3,0
rp9,RSVPtrain,0,g,TRUE,1438.8,0,b,,1,3,0
rp9,RSVPtrain,0,g,TRUE,1203.7,1,r,,0,0,2
rp9,RSVPtrain,0,g,TRUE,1470.2,2,g,,1,0,1
rp9,RSVPtest,1,g,FALSE,846,0,b,,1,3,0
rp9,RSVPtest,2,g,FALSE,1053.9,2,g,,1,2,1
rp9,RSVPtest,3,g,TRUE,732.8,0,b,,3,3,0
rp9,RSVPtest,4,g,FALSE,715.2,1,r,,0,2,1
rp9,RSVPtest,5,g,FALSE,670.7,2,g,,1,0,1
rp9,RSVPtest,6,g,FALSE,757.6,2,g,,2,0,1
rp9,RSVPtest,7,g,FALSE,517.8,2,g,,3,0,1
rp9,RSVPtest,8,g,FALSE,564.4,1,r,,2,1,1
rp9,RSVPtest,9,g,FALSE,213.7,1,r,,3,0,1
rp9,RSVPtest,10,g,FALSE,534.3,2,g,,1,0,1
rp9,RSVPtest,11,g,FALSE,381.8,2,g,,0,0,2
rp9,RSVPtest,12,g,TRUE,595.6,2,g,,2,1,1
rp9,RSVPtest,13,g,TRUE,781.1,1,r,,3,1,1
rp9,RSVPtest,14,g,TRUE,690.8,0,b,,1,3,0
rp9,RSVPtest,15,g,TRUE,884,0,b,,0,3,0
rp9,RSVPtest,16,g,TRUE,652.6,2,g,,1,2,1
rp9,RSVPtest,17,g,FALSE,1012.1,1,r,,1,0,1
rp9,RSVPtest,18,g,TRUE,842.4,2,g,,3,0,1
rp9,RSVPtest,19,g,TRUE,547.6,1,r,,1,0,1
rp9,RSVPtest,20,g,TRUE,875.1,0,b,,3,3,0
rp9,RSVPtest,21,g,FALSE,875.7,1,r,,2,0,1
rp9,RSVPtest,22,g,TRUE,706.8,2,g,,2,1,1
rp9,RSVPtest,23,g,TRUE,690.2,2,g,,3,1,1
rp9,RSVPtest,24,g,TRUE,669.6,2,g,,0,0,2
rp9,RSVPtest,25,g,TRUE,613.7,2,g,,2,0,1
rp9,RSVPtest,26,g,TRUE,816.9,2,g,,3,1,1
rp9,RSVPtest,27,g,TRUE,572.3,0,b,,1,3,0
rp9,RSVPtest,28,g,TRUE,605.7,1,r,,2,1,1
rp9,RSVPtest,29,g,TRUE,524.6,0,b,,2,3,0
rp9,RSVPtest,30,g,FALSE,509.6,1,r,,1,1,2
rp9,RSVPtest,31,g,TRUE,618.7,1,r,,1,1,2
rp9,RSVPtest,32,g,null,null,0,b,,3,3,0
rp9,RSVPtest,33,g,TRUE,690.2,0,b,,1,3,0
rp9,RSVPtest,34,g,TRUE,709.2,1,r,,3,1,1
rp9,RSVPtest,35,g,TRUE,869.8,1,r,,1,2,1
rp9,RSVPtest,36,g,TRUE,669.8,0,b,,3,3,0
rp9,RSVPtest,37,g,TRUE,718.7,1,r,,2,2,2
rp9,RSVPtest,38,g,TRUE,631.2,1,r,,3,0,1
rp9,RSVPtest,39,g,FALSE,918.9,1,r,,2,2,2
rp9,RSVPtest,40,g,TRUE,567.5,0,b,,0,3,0
rp9,RSVPtest,41,g,TRUE,781.3,1,r,,0,2,1
rp9,RSVPtest,42,g,TRUE,1406.1,0,b,,3,3,0
rp9,RSVPtest,43,g,TRUE,1143.8,1,r,,0,0,2
rp9,RSVPtest,44,g,FALSE,1580.7,2,g,,3,0,1
rp9,RSVPtest,45,g,FALSE,1492.7,2,g,,3,0,1
rp9,RSVPtest,46,g,FALSE,555.9,1,r,,3,0,1
rp9,RSVPtest,47,g,TRUE,701.1,0,b,,3,3,0
rp9,RSVPtest,48,g,FALSE,644.1,2,g,,3,2,1
rp9,RSVPtest,49,g,TRUE,6.399999976,2,g,,1,1,2
rp9,RSVPtest,50,g,FALSE,350.1,0,b,,3,3,0
rp9,RSVPtest,51,g,FALSE,574.1,1,r,,2,0,1
rp9,RSVPtest,52,g,TRUE,420.5,2,g,,2,1,1
rp9,RSVPtest,53,g,FALSE,1013.2,2,g,,3,1,1
rp9,RSVPtest,54,g,TRUE,966.1,2,g,,3,0,1
rp9,RSVPtest,55,g,TRUE,564.5,1,r,,2,2,2
rp9,RSVPtest,56,g,null,null,1,r,,3,0,1
rp9,RSVPtest,57,g,FALSE,599.2,1,r,,1,2,1
rp9,RSVPtest,58,g,TRUE,516.8,0,b,,0,3,0
rp9,RSVPtest,59,g,null,null,2,g,,1,0,1
rp9,RSVPtest,60,g,TRUE,827.8,2,g,,0,2,1
brk,brk,brk,brk,brk,brk,brk,brk,brk,brk,brk,brk
rp9,RSVPtest,61,g,TRUE,550.6,0,b,,1,3,0
rp9,RSVPtest,62,g,TRUE,1398.3,2,g,,3,2,1
rp9,RSVPtest,63,g,null,null,2,g,,3,2,1
rp9,RSVPtest,64,g,FALSE,1019.8,2,g,,2,1,1
rp9,RSVPtest,65,g,TRUE,562.8,1,r,,0,1,1
rp9,RSVPtest,66,g,null,null,1,r,,3,2,1
rp9,RSVPtest,67,g,TRUE,613.1,2,g,,1,1,2
rp9,RSVPtest,68,g,FALSE,290.4,1,r,,3,2,1
rp9,RSVPtest,69,g,null,null,1,r,,3,0,1
rp9,RSVPtest,70,g,TRUE,409.5,0,b,,0,3,0
rp9,RSVPtest,71,g,null,null,1,r,,2,2,2
rp9,RSVPtest,72,g,TRUE,619.2,0,b,,3,3,0
rp9,RSVPtest,73,g,FALSE,710.2,1,r,,3,2,1
rp9,RSVPtest,74,g,TRUE,1011.8,0,b,,0,3,0
rp9,RSVPtest,75,g,FALSE,533.1,2,g,,1,2,1
rp9,RSVPtest,76,g,TRUE,763.8,1,r,,3,2,1
rp9,RSVPtest,77,g,FALSE,588.2,2,g,,3,0,1
rp9,RSVPtest,78,g,FALSE,691.5,2,g,,1,1,2
rp9,RSVPtest,79,g,FALSE,388.1,2,g,,3,1,1
rp9,RSVPtest,80,g,null,null,2,g,,1,2,1
rp9,RSVPtest,81,g,FALSE,515.4,2,g,,3,1,1
rp9,RSVPtest,82,g,TRUE,1597,1,r,,1,1,2
rp9,RSVPtest,83,g,TRUE,194.2,2,g,,2,0,1
rp9,RSVPtest,84,g,null,null,0,b,,3,3,0
rp9,RSVPtest,85,g,FALSE,745.8,1,r,,1,0,1
rp9,RSVPtest,86,g,TRUE,446.3,1,r,,0,1,1
rp9,RSVPtest,87,g,TRUE,509.1,1,r,,3,1,1
rp9,RSVPtest,88,g,TRUE,981,0,b,,0,3,0
rp9,RSVPtest,89,g,TRUE,1067.9,2,g,,0,2,1
rp9,RSVPtest,90,g,FALSE,581.6,0,b,,3,3,0
rp9,RSVPtest,91,g,TRUE,2410.4,2,g,,0,2,1
rp9,RSVPtest,92,g,FALSE,690.1,2,g,,0,1,1
rp9,RSVPtest,93,g,null,null,1,r,,1,2,1
rp9,RSVPtest,94,g,null,null,0,b,,1,3,0
rp9,RSVPtest,95,g,FALSE,528.6,2,g,,2,0,1
rp9,RSVPtest,96,g,TRUE,340.6,2,g,,1,2,1
rp9,RSVPtest,97,g,TRUE,579.2,1,r,,3,0,1
rp9,RSVPtest,98,g,null,null,1,r,,1,0,1
rp9,RSVPtest,99,g,null,null,1,r,,3,1,1
rp9,RSVPtest,100,g,FALSE,530.6,2,g,,0,1,1
rp9,RSVPtest,101,g,TRUE,587,2,g,,0,1,1
rp9,RSVPtest,102,g,TRUE,1203.7,0,b,,1,3,0
rp9,RSVPtest,103,g,null,null,2,g,,0,2,1
rp9,RSVPtest,104,g,TRUE,562.2,2,g,,2,2,2
rp9,RSVPtest,105,g,null,null,0,b,,2,3,0
rp9,RSVPtest,106,g,TRUE,529.2,1,r,,0,1,1
rp9,RSVPtest,107,g,null,null,2,g,,3,2,1
rp9,RSVPtest,108,g,TRUE,706.6,0,b,,3,3,0
rp9,RSVPtest,109,g,TRUE,766.2,0,b,,2,3,0
rp9,RSVPtest,110,g,null,null,0,b,,2,3,0
rp9,RSVPtest,111,g,null,null,2,g,,2,2,2
rp9,RSVPtest,112,g,TRUE,625.4,2,g,,3,2,1
rp9,RSVPtest,113,g,FALSE,1996.1,1,r,,3,0,1
rp9,RSVPtest,114,g,null,null,0,b,,1,3,0
rp9,RSVPtest,115,g,null,null,2,g,,2,2,2
rp9,RSVPtest,116,g,TRUE,657.4,1,r,,3,2,1
rp9,RSVPtest,117,g,null,null,2,g,,0,0,2
rp9,RSVPtest,118,g,FALSE,640,2,g,,2,0,1
rp9,RSVPtest,119,g,FALSE,1347.8,2,g,,3,2,1
rp9,RSVPtest,120,g,null,null,1,r,,3,0,1
brk,brk,brk,brk,brk,brk,brk,brk,brk,brk,brk,brk
rp9,RSVPtest,121,g,TRUE,559.2,0,b,,3,3,0
rp9,RSVPtest,122,g,TRUE,651.9,0,b,,0,3,0
rp9,RSVPtest,123,g,FALSE,636.1,0,b,,1,3,0
rp9,RSVPtest,124,g,TRUE,534,1,r,,0,2,1
rp9,RSVPtest,125,g,TRUE,611,0,b,,3,3,0
rp9,RSVPtest,126,g,TRUE,436.5,2,g,,0,0,2
rp9,RSVPtest,127,g,TRUE,612.2,2,g,,2,2,2
rp9,RSVPtest,128,g,TRUE,956,2,g,,2,2,2
rp9,RSVPtest,129,g,TRUE,867.9,2,g,,3,1,1
rp9,RSVPtest,130,g,FALSE,618.7,2,g,,3,0,1
rp9,RSVPtest,131,g,TRUE,624.4,1,r,,3,2,1
rp9,RSVPtest,132,g,TRUE,442.4,2,g,,1,1,2
rp9,RSVPtest,133,g,FALSE,636.5,0,b,,3,3,0
rp9,RSVPtest,134,g,FALSE,509.3,1,r,,1,2,1
rp9,RSVPtest,135,g,TRUE,1724.1,0,b,,2,3,0
rp9,RSVPtest,136,g,FALSE,785,2,g,,0,0,2
rp9,RSVPtest,137,g,TRUE,730.2,1,r,,3,2,1
rp9,RSVPtest,138,g,FALSE,698.5,2,g,,0,1,1
rp9,RSVPtest,139,g,TRUE,669.4,0,b,,3,3,0
rp9,RSVPtest,140,g,FALSE,945.7,0,b,,3,3,0
rp9,RSVPtest,141,g,FALSE,755,2,g,,2,1,1
rp9,RSVPtest,142,g,TRUE,451.5,2,g,,0,0,2
rp9,RSVPtest,143,g,TRUE,826.3,2,g,,3,1,1
rp9,RSVPtest,144,g,FALSE,434.7,2,g,,3,0,1
rp9,RSVPtest,145,g,FALSE,1242.3,2,g,,3,1,1
rp9,RSVPtest,146,g,FALSE,843.5,1,r,,0,0,2
rp9,RSVPtest,147,g,FALSE,668.1,1,r,,1,0,1
rp9,RSVPtest,148,g,FALSE,682,2,g,,2,2,2
rp9,RSVPtest,149,g,TRUE,499.2,1,r,,2,0,1
rp9,RSVPtest,150,g,TRUE,842.4,0,b,,0,3,0
rp9,RSVPtest,151,g,TRUE,827.4,1,r,,2,0,1
rp9,RSVPtest,152,g,FALSE,786.1,1,r,,0,0,2
rp9,RSVPtest,153,g,TRUE,765.9,1,r,,3,0,1
rp9,RSVPtest,154,g,FALSE,803.2,1,r,,2,0,1
rp9,RSVPtest,155,g,TRUE,1274.7,1,r,,2,0,1
rp9,RSVPtest,156,g,null,null,1,r,,0,1,1
rp9,RSVPtest,157,g,TRUE,892.1,2,g,,0,1,1
rp9,RSVPtest,158,g,TRUE,1713.4,2,g,,3,1,1
rp9,RSVPtest,159,g,FALSE,761.5,2,g,,3,1,1
rp9,RSVPtest,160,g,TRUE,841.1,1,r,,0,1,1
rp9,RSVPtest,161,g,TRUE,1450.8,2,g,,3,0,1
rp9,RSVPtest,162,g,FALSE,785,0,b,,3,3,0
rp9,RSVPtest,163,g,TRUE,811.1,2,g,,2,0,1
rp9,RSVPtest,164,g,TRUE,721.8,0,b,,3,3,0
rp9,RSVPtest,165,g,TRUE,827.2,1,r,,0,2,1
rp9,RSVPtest,166,g,FALSE,792.1,2,g,,1,1,2
rp9,RSVPtest,167,g,FALSE,722,2,g,,3,2,1
rp9,RSVPtest,168,g,null,null,0,b,,0,3,0
rp9,RSVPtest,169,g,TRUE,1135.3,2,g,,3,1,1
rp9,RSVPtest,170,g,TRUE,560.4,1,r,,0,1,1
rp9,RSVPtest,171,g,FALSE,922.6,0,b,,1,3,0
rp9,RSVPtest,172,g,null,null,2,g,,3,0,1
rp9,RSVPtest,173,g,FALSE,1061.7,1,r,,3,0,1
rp9,RSVPtest,174,g,FALSE,818.7,1,r,,2,2,2
rp9,RSVPtest,175,g,null,null,1,r,,3,1,1
rp9,RSVPtest,176,g,null,null,2,g,,1,0,1
rp9,RSVPtest,177,g,TRUE,802.2,2,g,,1,1,2
rp9,RSVPtest,178,g,FALSE,896.6,1,r,,0,0,2
rp9,RSVPtest,179,g,TRUE,504.7,0,b,,1,3,0
rp9,RSVPtest,180,g,FALSE,594.2,1,r,,1,0,1
brk,brk,brk,brk,brk,brk,brk,brk,brk,brk,brk,brk
rp9,RSVPtest,181,g,TRUE,515.2,1,r,,3,1,1
rp9,RSVPtest,182,g,null,null,2,g,,1,0,1
rp9,RSVPtest,183,g,TRUE,2449.2,1,r,,0,2,1
rp9,RSVPtest,184,g,null,null,1,r,,0,0,2
rp9,RSVPtest,185,g,FALSE,834.5,0,b,,0,3,0
rp9,RSVPtest,186,g,TRUE,601.2,2,g,,0,2,1
rp9,RSVPtest,187,g,TRUE,764.8,1,r,,3,2,1
rp9,RSVPtest,188,g,FALSE,212.9,1,r,,1,2,1
rp9,RSVPtest,189,g,null,null,1,r,,3,2,1
rp9,RSVPtest,190,g,null,null,1,r,,3,2,1
rp9,RSVPtest,191,g,TRUE,1189.9,0,b,,2,3,0
rp9,RSVPtest,192,g,TRUE,2234.6,2,g,,1,2,1
rp9,RSVPtest,193,g,TRUE,854.3,0,b,,3,3,0
rp9,RSVPtest,194,g,TRUE,433.5,2,g,,0,2,1
rp9,RSVPtest,195,g,null,null,0,b,,2,3,0
rp9,RSVPtest,196,g,null,null,1,r,,3,1,1
rp9,RSVPtest,197,g,null,null,2,g,,3,0,1
rp9,RSVPtest,198,g,null,null,1,r,,3,0,1
rp9,RSVPtest,199,g,TRUE,790.1,0,b,,3,3,0
rp9,RSVPtest,200,g,null,null,2,g,,3,0,1
rp9,RSVPtest,201,g,null,null,1,r,,3,1,1
rp9,RSVPtest,202,g,null,null,0,b,,3,3,0
rp9,RSVPtest,203,g,null,null,1,r,,3,1,1
rp9,RSVPtest,204,g,TRUE,539.1,1,r,,0,0,2
rp9,RSVPtest,205,g,null,null,2,g,,3,2,1
rp9,RSVPtest,206,g,null,null,1,r,,3,2,1
rp9,RSVPtest,207,g,TRUE,370.8,1,r,,1,1,2
rp9,RSVPtest,208,g,null,null,2,g,,3,2,1
rp9,RSVPtest,209,g,TRUE,742.7,1,r,,0,2,1
rp9,RSVPtest,210,g,null,null,1,r,,2,1,1
rp9,RSVPtest,211,g,null,null,1,r,,2,1,1
rp9,RSVPtest,212,g,null,null,0,b,,2,3,0
rp9,RSVPtest,213,g,null,null,1,r,,1,2,1
rp9,RSVPtest,214,g,FALSE,879.6,2,g,,0,1,1
rp9,RSVPtest,215,g,null,null,0,b,,1,3,0
rp9,RSVPtest,216,g,null,null,1,r,,3,1,1
rp9,RSVPtest,217,g,FALSE,1752.9,0,b,,3,3,0
rp9,RSVPtest,218,g,TRUE,520.9,1,r,,3,1,1
rp9,RSVPtest,219,g,null,null,2,g,,1,0,1
rp9,RSVPtest,220,g,null,null,1,r,,3,0,1
rp9,RSVPtest,221,g,null,null,1,r,,1,1,2
rp9,RSVPtest,222,g,null,null,0,b,,2,3,0
rp9,RSVPtest,223,g,null,null,0,b,,2,3,0
attCheck,attCheck,attCheck,attCheck,attCheck,attCheck,attCheck,attCheck,attCheck,attCheck,attCheck,attCheck
rp9,RSVPtest,224,g,TRUE,530.7,1,r,,2,2,2
rp9,RSVPtest,225,g,TRUE,513.6,0,b,,3,3,0
rp9,RSVPtest,226,g,TRUE,866,2,g,,3,2,1
rp9,RSVPtest,227,g,TRUE,344.4,0,b,,0,3,0
rp9,RSVPtest,228,g,TRUE,296.4,0,b,,2,3,0
rp9,RSVPtest,229,g,FALSE,538.1,1,r,,3,2,1
rp9,RSVPtest,230,g,null,null,1,r,,3,1,1
rp9,RSVPtest,231,g,FALSE,373,2,g,,3,1,1
rp9,RSVPtest,232,g,TRUE,376.2,0,b,,2,3,0
rp9,RSVPtest,233,g,FALSE,553.5,1,r,,2,1,1
rp9,RSVPtest,234,g,FALSE,400,2,g,,3,2,1
rp9,RSVPtest,235,g,TRUE,719.9,0,b,,3,3,0
rp9,RSVPtest,236,g,TRUE,624.8,1,r,,1,1,2
rp9,RSVPtest,237,g,FALSE,418.8,1,r,,2,1,1
rp9,RSVPtest,238,g,FALSE,391.5,2,g,,3,2,1
rp9,RSVPtest,239,g,TRUE,1000.8,2,g,,2,1,1
rp9,RSVPtest,240,g,FALSE,700.3,0,b,,0,3,0
subID,trialType,trialNum,cntBalance,correct,rt,rwdType,tgtCol,tgtDir,tgtPos,colPos,colMatch
15n,VDACtrain,0,g,null,null,2,g,h,5,,
15n,VDACtrain,0,g,FALSE,741.1,1,r,h,1,,
