subID,trialType,trialNum,cntBalance,correct,rt,rwdType,tgtCol,tgtDir,tgtPos,colPos,colMatch,
a0v,VDACtrain,0,r,true,936.1000000238419,1,g,v,5,,,
a0v,VDACtrain,0,r,true,940.9000000357628,1,g,v,2,,,
a0v,VDACtrain,0,r,true,629.1999999880791,1,g,h,3,,,
a0v,VDACtrain,0,r,false,603.8000000119209,2,r,v,4,,,
a0v,VDACtrain,0,r,null,null,2,r,h,2,,,
a0v,VDACtrain,0,r,true,535.3000000119209,2,r,v,3,,,
a0v,VDACtrain,0,r,false,598.5,2,r,h,0,,,
a0v,VDACtrain,0,r,null,null,1,g,h,5,,,
a0v,VDACtrain,0,r,true,483,1,g,v,0,,,
a0v,VDACtrain,0,r,false,789,2,r,h,1,,,
a0v,VDACtest,1,r,true,533.9000000357628,1,g,v,0,,,
a0v,VDACtest,2,r,false,566.3000000119209,1,g,h,2,,,
a0v,VDACtest,3,r,false,525.1999999880791,2,r,h,3,,,
a0v,VDACtest,4,r,false,573.8000000119209,1,g,v,2,,,
a0v,VDACtest,5,r,true,550,2,r,v,5,,,
a0v,VDACtest,6,r,true,484.0999999642372,2,r,v,2,,,
a0v,VDACtest,7,r,true,428.30000001192093,1,g,h,2,,,
a0v,VDACtest,8,r,true,453.7000000476837,2,r,v,4,,,
a0v,VDACtest,9,r,true,457.4000000357628,1,g,v,1,,,
a0v,VDACtest,10,r,true,390.2000000476837,1,g,v,2,,,
a0v,VDACtest,11,r,false,381,1,g,h,4,,,
a0v,VDACtest,12,r,true,533.8999999761581,1,g,v,0,,,
a0v,VDACtest,13,r,true,364.5,2,r,v,3,,,
a0v,VDACtest,14,r,true,453.69999998807907,2,r,v,0,,,
a0v,VDACtest,15,r,false,341.0999999642372,2,r,h,0,,,
a0v,VDACtest,16,r,true,388.5,1,g,v,1,,,
a0v,VDACtest,17,r,true,485.39999997615814,1,g,v,2,,,
a0v,VDACtest,18,r,true,381.19999998807907,2,r,v,1,,,
a0v,VDACtest,19,r,true,581.5,2,r,h,4,,,
a0v,VDACtest,20,r,true,493.9000000357628,1,g,h,1,,,
a0v,VDACtest,21,r,false,444.10000002384186,2,r,v,1,,,
a0v,VDACtest,22,r,true,681.5,1,g,h,0,,,
a0v,VDACtest,23,r,true,406.0999999642372,2,r,h,5,,,
a0v,VDACtest,24,r,false,579.6999999880791,2,r,h,2,,,
a0v,VDACtest,25,r,true,470.10000002384186,2,r,h,4,,,
a0v,VDACtest,26,r,true,477.80000001192093,2,r,h,1,,,
a0v,VDACtest,27,r,true,435.80000001192093,1,g,h,1,,,
a0v,VDACtest,28,r,false,509.19999998807907,1,g,v,0,,,
a0v,VDACtest,29,r,true,454.19999998807907,1,g,h,4,,,
a0v,VDACtest,30,r,true,372.5,1,g,v,4,,,
a0v,VDACtest,31,r,false,541.6000000238419,1,g,h,5,,,
a0v,VDACtest,32,r,true,405.0999999642372,1,g,v,1,,,
a0v,VDACtest,33,r,true,535,2,r,v,3,,,
a0v,VDACtest,34,r,true,399.19999998807907,1,g,v,5,,,
a0v,VDACtest,35,r,true,373.89999997615814,2,r,h,5,,,
a0v,VDACtest,36,r,true,431.19999998807907,1,g,v,5,,,
a0v,VDACtest,37,r,true,455.39999997615814,2,r,v,1,,,
a0v,VDACtest,38,r,false,470.19999998807907,1,g,v,2,,,
a0v,VDACtest,39,r,true,383.39999997615814,2,r,v,3,,,
a0v,VDACtest,40,r,true,422.69999998807907,1,g,v,1,,,
a0v,VDACtest,41,r,false,510.7000000476837,1,g,h,1,,,
a0v,VDACtest,42,r,false,430.19999998807907,2,r,h,0,,,
a0v,VDACtest,43,r,true,469.80000001192093,2,r,h,3,,,
a0v,VDACtest,44,r,true,510.60000002384186,2,r,v,1,,,
a0v,VDACtest,45,r,true,494.69999998807907,1,g,v,3,,,
a0v,VDACtest,46,r,true,670.9000000357628,1,g,h,0,,,
a0v,VDACtest,47,r,false,437.80000001192093,2,r,h,3,,,
a0v,VDACtest,48,r,true,694.0999999642372,1,g,h,1,,,
a0v,VDACtest,49,r,true,478.5,1,g,h,3,,,
a0v,VDACtest,50,r,true,398.69999998807907,2,r,v,3,,,
brk,brk,brk,brk,brk,brk,brk,brk,brk,brk,brk,brk,
a0v,VDACtest,51,r,true,420,1,g,v,3,,,
a0v,VDACtest,52,r,false,629.2999999523163,1,g,h,4,,,
a0v,VDACtest,53,r,false,607.3999999761581,1,g,h,1,,,
a0v,VDACtest,54,r,false,661.5,1,g,v,2,,,
a0v,VDACtest,55,r,true,525.3000000119209,1,g,v,1,,,
a0v,VDACtest,56,r,true,669.6999999880791,1,g,h,2,,,
a0v,VDACtest,57,r,false,718.6000000238419,2,r,h,2,,,
a0v,VDACtest,58,r,true,582.5,1,g,v,1,,,
a0v,VDACtest,59,r,false,598.8999999761581,2,r,h,4,,,
a0v,VDACtest,60,r,true,502.69999998807907,2,r,v,3,,,
a0v,VDACtest,61,r,true,398.69999998807907,1,g,h,5,,,
a0v,VDACtest,62,r,true,637.8999999761581,2,r,v,0,,,
a0v,VDACtest,63,r,true,469.89999997615814,2,r,v,5,,,
a0v,VDACtest,64,r,true,686.1999999880791,2,r,h,1,,,
a0v,VDACtest,65,r,true,622.1000000238419,2,r,v,0,,,
a0v,VDACtest,66,r,true,494.5,1,g,h,0,,,
a0v,VDACtest,67,r,true,461.30000001192093,1,g,v,4,,,
a0v,VDACtest,68,r,true,661.3000000119209,2,r,h,0,,,
a0v,VDACtest,69,r,true,716.1000000238419,2,r,v,0,,,
a0v,VDACtest,70,r,true,485.30000001192093,1,g,h,4,,,
a0v,VDACtest,71,r,true,694.3000000119209,2,r,v,2,,,
a0v,VDACtest,72,r,true,438.89999997615814,1,g,h,4,,,
a0v,VDACtest,73,r,true,509.5,1,g,h,4,,,
a0v,VDACtest,74,r,true,358.2999999523163,1,g,v,0,,,
a0v,VDACtest,75,r,true,451.19999998807907,2,r,v,2,,,
a0v,VDACtest,76,r,true,525.6999999880791,1,g,v,5,,,
a0v,VDACtest,77,r,true,460.80000001192093,1,g,v,3,,,
a0v,VDACtest,78,r,true,391,2,r,v,4,,,
a0v,VDACtest,79,r,false,740.6999999880791,2,r,h,0,,,
a0v,VDACtest,80,r,true,510.30000001192093,2,r,h,5,,,
a0v,VDACtest,81,r,true,774.3000000119209,1,g,h,2,,,
a0v,VDACtest,82,r,true,405.4000000357628,2,r,v,4,,,
a0v,VDACtest,83,r,false,892.6999999880791,2,r,h,1,,,
a0v,VDACtest,84,r,true,766.3999999761581,1,g,h,1,,,
a0v,VDACtest,85,r,true,659.8999999761581,2,r,h,1,,,
a0v,VDACtest,86,r,false,469.10000002384186,1,g,h,4,,,
a0v,VDACtest,87,r,true,630.1999999880791,2,r,h,2,,,
a0v,VDACtest,88,r,true,646.5,2,r,h,1,,,
a0v,VDACtest,89,r,true,459.2000000476837,1,g,v,4,,,
a0v,VDACtest,90,r,true,526.5,1,g,h,5,,,
a0v,VDACtest,91,r,true,597.6000000238419,2,r,h,3,,,
a0v,VDACtest,92,r,true,534.3999999761581,2,r,v,0,,,
a0v,VDACtest,93,r,true,439.4000000357628,2,r,v,4,,,
a0v,VDACtest,94,r,true,653,2,r,h,1,,,
a0v,VDACtest,95,r,true,613.1999999880791,1,g,h,2,,,
a0v,VDACtest,96,r,true,542.1000000238419,2,r,v,5,,,
a0v,VDACtest,97,r,true,636.2999999523163,1,g,h,3,,,
a0v,VDACtest,98,r,true,437.5,1,g,h,3,,,
a0v,VDACtest,99,r,true,477.80000001192093,2,r,h,4,,,
a0v,VDACtest,100,r,true,476.80000001192093,1,g,v,4,,,
brk,brk,brk,brk,brk,brk,brk,brk,brk,brk,brk,brk,
a0v,VDACtest,101,r,true,461.19999998807907,1,g,v,5,,,
a0v,VDACtest,102,r,true,357.69999998807907,1,g,v,5,,,
a0v,VDACtest,103,r,true,541.6999999880791,2,r,h,1,,,
a0v,VDACtest,104,r,true,454.9000000357628,2,r,h,4,,,
a0v,VDACtest,105,r,true,645.3999999761581,1,g,h,1,,,
a0v,VDACtest,106,r,true,414,2,r,h,5,,,
a0v,VDACtest,107,r,true,454.19999998807907,2,r,h,4,,,
a0v,VDACtest,108,r,false,526.2999999523163,2,r,v,2,,,
a0v,VDACtest,109,r,true,483.89999997615814,1,g,h,2,,,
a0v,VDACtest,110,r,true,613.4000000357628,2,r,h,3,,,
a0v,VDACtest,111,r,true,397.19999998807907,2,r,v,4,,,
a0v,VDACtest,112,r,true,412.9000000357628,1,g,v,4,,,
a0v,VDACtest,113,r,true,580.6000000238419,2,r,h,3,,,
a0v,VDACtest,114,r,true,453.69999998807907,2,r,v,3,,,
a0v,VDACtest,115,r,true,427.4000000357628,1,g,v,1,,,
a0v,VDACtest,116,r,true,397.7999999523163,2,r,v,5,,,
a0v,VDACtest,117,r,true,517.6999999880791,2,r,v,1,,,
a0v,VDACtest,118,r,true,485.5999999642372,2,r,v,4,,,
a0v,VDACtest,119,r,null,null,2,r,h,1,,,
a0v,VDACtest,120,r,true,360,2,r,v,4,,,
a0v,VDACtest,121,r,true,341.30000001192093,2,r,v,4,,,
a0v,VDACtest,122,r,true,492.9000000357628,1,g,v,3,,,
a0v,VDACtest,123,r,true,477.30000001192093,2,r,v,1,,,
a0v,VDACtest,124,r,true,501.30000001192093,1,g,h,3,,,
a0v,VDACtest,125,r,true,749.6000000238419,1,g,h,0,,,
a0v,VDACtest,126,r,true,405.30000001192093,1,g,v,4,,,
a0v,VDACtest,127,r,true,549.7999999523163,1,g,h,3,,,
a0v,VDACtest,128,r,true,420.5,1,g,v,0,,,
a0v,VDACtest,129,r,null,null,1,g,v,4,,,
a0v,VDACtest,130,r,true,585.8999999761581,1,g,h,3,,,
a0v,VDACtest,131,r,true,597.5,1,g,v,2,,,
a0v,VDACtest,132,r,true,541.5,2,r,v,1,,,
a0v,VDACtest,133,r,true,389.60000002384186,1,g,v,5,,,
a0v,VDACtest,134,r,true,485.5,1,g,v,0,,,
a0v,VDACtest,135,r,false,550,1,g,h,1,,,
a0v,VDACtest,136,r,true,646.8999999761581,2,r,h,1,,,
a0v,VDACtest,137,r,true,436.80000001192093,2,r,v,5,,,
a0v,VDACtest,138,r,null,null,2,r,v,2,,,
a0v,VDACtest,139,r,true,692.1000000238419,1,g,v,3,,,
a0v,VDACtest,140,r,true,453.0999999642372,2,r,h,0,,,
a0v,VDACtest,141,r,true,550.3000000119209,2,r,h,0,,,
a0v,VDACtest,142,r,true,701.3000000119209,2,r,h,2,,,
a0v,VDACtest,143,r,true,517.9000000357628,2,r,v,3,,,
a0v,VDACtest,144,r,false,727,2,r,v,1,,,
a0v,VDACtest,145,r,true,445,2,r,h,2,,,
a0v,VDACtest,146,r,true,388.10000002384186,1,g,v,4,,,
a0v,VDACtest,147,r,null,null,1,g,v,3,,,
a0v,VDACtest,148,r,true,444.4000000357628,1,g,v,5,,,
a0v,VDACtest,149,r,true,402.89999997615814,2,r,v,3,,,
a0v,VDACtest,150,r,true,398.0999999642372,1,g,h,5,,,
brk,brk,brk,brk,brk,brk,brk,brk,brk,brk,brk,brk,
a0v,VDACtest,151,r,true,502.89999997615814,1,g,v,0,,,
a0v,VDACtest,152,r,true,413.60000002384186,1,g,h,0,,,
a0v,VDACtest,153,r,true,598.9000000357628,1,g,v,2,,,
a0v,VDACtest,154,r,true,446.60000002384186,2,r,h,5,,,
a0v,VDACtest,155,r,true,485.4000000357628,2,r,v,1,,,
a0v,VDACtest,156,r,true,438,1,g,v,0,,,
a0v,VDACtest,157,r,false,462.89999997615814,1,g,h,0,,,
a0v,VDACtest,158,r,true,461.60000002384186,1,g,h,5,,,
a0v,VDACtest,159,r,true,494.30000001192093,2,r,h,2,,,
a0v,VDACtest,160,r,false,535.8000000119209,1,g,h,1,,,
a0v,VDACtest,161,r,true,445.5,2,r,h,5,,,
a0v,VDACtest,162,r,true,437,2,r,h,4,,,
a0v,VDACtest,163,r,true,515.9000000357628,1,g,v,3,,,
a0v,VDACtest,164,r,true,421.5999999642372,2,r,h,5,,,
a0v,VDACtest,165,r,true,565.0999999642372,2,r,v,2,,,
a0v,VDACtest,166,r,true,518.6999999880791,1,g,h,5,,,
a0v,VDACtest,167,r,null,null,2,r,h,0,,,
a0v,VDACtest,168,r,null,null,2,r,v,0,,,
a0v,VDACtest,169,r,true,527.6999999880791,2,r,h,3,,,
a0v,VDACtest,170,r,true,445.5,1,g,v,2,,,
a0v,VDACtest,171,r,null,null,2,r,v,2,,,
a0v,VDACtest,172,r,true,452.39999997615814,2,r,v,0,,,
a0v,VDACtest,173,r,true,387.80000001192093,2,r,v,5,,,
a0v,VDACtest,174,r,false,356.30000001192093,2,r,h,5,,,
a0v,VDACtest,175,r,true,429.39999997615814,2,r,v,0,,,
a0v,VDACtest,176,r,null,null,1,g,h,0,,,
a0v,VDACtest,177,r,true,633.4000000357628,2,r,v,4,,,
a0v,VDACtest,178,r,true,366.60000002384186,1,g,h,0,,,
a0v,VDACtest,179,r,null,null,1,g,h,4,,,
a0v,VDACtest,180,r,true,467.4000000357628,2,r,h,3,,,
a0v,VDACtest,181,r,true,468.69999998807907,1,g,v,1,,,
a0v,VDACtest,182,r,true,644.8999999761581,1,g,h,2,,,
a0v,VDACtest,183,r,null,null,2,r,h,2,,,
a0v,VDACtest,184,r,true,369,2,r,v,5,,,
a0v,VDACtest,185,r,null,null,1,g,h,3,,,
a0v,VDACtest,186,r,false,498,2,r,v,2,,,
a0v,VDACtest,187,r,true,485.5999999642372,2,r,h,2,,,
a0v,VDACtest,188,r,false,525.6999999880791,1,g,h,4,,,
a0v,VDACtest,189,r,true,677.6000000238419,2,r,v,5,,,
a0v,VDACtest,190,r,true,485.30000001192093,1,g,v,3,,,
a0v,VDACtest,191,r,true,580.1999999880791,1,g,h,2,,,
a0v,VDACtest,192,r,true,604.1999999880791,2,r,h,4,,,
a0v,VDACtest,193,r,true,598.1999999880791,1,g,v,4,,,
a0v,VDACtest,194,r,true,468.30000001192093,1,g,h,5,,,
a0v,VDACtest,195,r,true,422.5,1,g,h,3,,,
a0v,VDACtest,196,r,null,null,1,g,h,5,,,
a0v,VDACtest,197,r,true,460.5,2,r,h,4,,,
a0v,VDACtest,198,r,true,668.3000000119209,2,r,h,0,,,
a0v,VDACtest,199,r,null,null,1,g,v,5,,,
a0v,VDACtest,200,r,false,549.6000000238419,1,g,v,1,,,
a0v,RSVPtrain,0,r,true,925.6000000238419,1,g,,2,2,2,
a0v,RSVPtrain,0,r,true,933.3000000119209,2,r,,0,0,2,
a0v,RSVPtrain,0,r,true,679.6000000238419,2,r,,1,1,2,
a0v,RSVPtrain,0,r,true,847,1,g,,3,1,1,
a0v,RSVPtrain,0,r,true,846.8000000119209,1,g,,1,0,1,
a0v,RSVPtrain,0,r,true,974.0999999642372,0,b,,1,3,0,
a0v,RSVPtrain,0,r,true,799.9000000357628,0,b,,0,3,0,
a0v,RSVPtrain,0,r,true,617.7999999523163,2,r,,3,2,1,
a0v,RSVPtrain,0,r,true,674,1,g,,3,0,1,
a0v,RSVPtrain,0,r,true,938.6999999880791,0,b,,3,3,0,
a0v,RSVPtest,1,r,false,823.1999999880791,1,g,,1,1,2,
a0v,RSVPtest,2,r,true,513.9000000357628,1,g,,3,1,1,
a0v,RSVPtest,3,r,false,1394.3999999761581,2,r,,1,0,1,
a0v,RSVPtest,4,r,true,806.8000000119209,2,r,,3,2,1,
a0v,RSVPtest,5,r,true,1119.800000011921,1,g,,3,1,1,
a0v,RSVPtest,6,r,false,1346.1000000238419,1,g,,0,2,1,
a0v,RSVPtest,7,r,false,721.1999999880791,2,r,,0,2,1,
a0v,RSVPtest,8,r,false,746.5,1,g,,2,1,1,
a0v,RSVPtest,9,r,true,1033.300000011921,0,b,,2,3,0,
a0v,RSVPtest,10,r,true,591.1999999880791,1,g,,3,2,1,
a0v,RSVPtest,11,r,null,null,2,r,,1,2,1,
a0v,RSVPtest,12,r,true,788.1000000238419,1,g,,3,2,1,
a0v,RSVPtest,13,r,false,739.4000000357628,2,r,,0,2,1,
a0v,RSVPtest,14,r,false,742.8999999761581,2,r,,1,1,2,
a0v,RSVPtest,15,r,true,846.8000000119209,2,r,,3,2,1,
a0v,RSVPtest,16,r,true,1073,2,r,,3,0,1,
a0v,RSVPtest,17,r,true,830.2000000476837,2,r,,0,1,1,
a0v,RSVPtest,18,r,false,830.9000000357628,0,b,,0,3,0,
a0v,RSVPtest,19,r,true,773.6999999880791,2,r,,0,0,2,
a0v,RSVPtest,20,r,null,null,2,r,,2,1,1,
a0v,RSVPtest,21,r,true,969.5,2,r,,2,0,1,
a0v,RSVPtest,22,r,true,632.8999999761581,0,b,,3,3,0,
a0v,RSVPtest,23,r,false,992.8999999761581,1,g,,3,2,1,
a0v,RSVPtest,24,r,true,725.8000000119209,0,b,,3,3,0,
a0v,RSVPtest,25,r,false,24.399999976158142,2,r,,3,0,1,
a0v,RSVPtest,26,r,true,656.1000000238419,1,g,,3,0,1,
a0v,RSVPtest,27,r,null,null,0,b,,0,3,0,
a0v,RSVPtest,28,r,false,664.3999999761581,2,r,,0,1,1,
a0v,RSVPtest,29,r,true,616,0,b,,3,3,0,
a0v,RSVPtest,30,r,true,654.7999999523163,2,r,,3,2,1,
a0v,RSVPtest,31,r,null,null,0,b,,1,3,0,
a0v,RSVPtest,32,r,true,606.3999999761581,2,r,,3,2,1,
a0v,RSVPtest,33,r,true,1072.1000000238419,0,b,,0,3,0,
a0v,RSVPtest,34,r,true,2406.699999988079,1,g,,2,1,1,
a0v,RSVPtest,35,r,null,null,1,g,,1,2,1,
a0v,RSVPtest,36,r,true,825.8999999761581,1,g,,3,1,1,
a0v,RSVPtest,37,r,false,471,0,b,,3,3,0,
a0v,RSVPtest,38,r,false,647.8999999761581,1,g,,0,2,1,
a0v,RSVPtest,39,r,false,839,1,g,,3,1,1,
a0v,RSVPtest,40,r,null,null,0,b,,3,3,0,
a0v,RSVPtest,41,r,true,641.9000000357628,2,r,,3,0,1,
a0v,RSVPtest,42,r,false,597.6999999880791,1,g,,0,1,1,
a0v,RSVPtest,43,r,true,775.1999999880791,2,r,,2,2,2,
a0v,RSVPtest,44,r,true,903,2,r,,1,2,1,
a0v,RSVPtest,45,r,false,760.3000000119209,2,r,,3,2,1,
a0v,RSVPtest,46,r,false,2447.099999964237,2,r,,3,2,1,
a0v,RSVPtest,47,r,true,1189.8999999761581,0,b,,2,3,0,
a0v,RSVPtest,48,r,true,936,1,g,,2,1,1,
a0v,RSVPtest,49,r,false,789.6000000238419,0,b,,3,3,0,
a0v,RSVPtest,50,r,null,null,1,g,,0,2,1,
a0v,RSVPtest,51,r,false,680.8999999761581,0,b,,1,3,0,
a0v,RSVPtest,52,r,true,567,2,r,,1,0,1,
a0v,RSVPtest,53,r,true,670.0999999642372,2,r,,0,2,1,
a0v,RSVPtest,54,r,true,614.5,1,g,,2,2,2,
a0v,RSVPtest,55,r,true,625.4000000357628,2,r,,1,1,2,
a0v,RSVPtest,56,r,false,902.7999999523163,2,r,,2,2,2,
a0v,RSVPtest,57,r,false,809.3999999761581,1,g,,2,0,1,
a0v,RSVPtest,58,r,false,758.6999999880791,1,g,,0,1,1,
a0v,RSVPtest,59,r,false,824.9000000357628,2,r,,0,2,1,
a0v,RSVPtest,60,r,false,695.0999999642372,1,g,,1,1,2,
brk,brk,brk,brk,brk,brk,brk,brk,brk,brk,brk,brk,
a0v,RSVPtest,61,r,false,858.8999999761581,1,g,,1,0,1,
a0v,RSVPtest,62,r,true,735.7000000476837,0,b,,3,3,0,
a0v,RSVPtest,63,r,true,610.8000000119209,2,r,,3,1,1,
a0v,RSVPtest,64,r,true,655.1999999880791,0,b,,3,3,0,
a0v,RSVPtest,65,r,true,626.5,1,g,,3,1,1,
a0v,RSVPtest,66,r,true,845.5999999642372,2,r,,3,1,1,
a0v,RSVPtest,67,r,true,552,1,g,,3,2,1,
a0v,RSVPtest,68,r,true,632.1999999880791,1,g,,0,1,1,
a0v,RSVPtest,69,r,true,856.1000000238419,1,g,,0,2,1,
a0v,RSVPtest,70,r,false,679.6000000238419,2,r,,2,1,1,
a0v,RSVPtest,71,r,true,894.1999999880791,0,b,,1,3,0,
a0v,RSVPtest,72,r,true,804.0999999642372,1,g,,3,2,1,
a0v,RSVPtest,73,r,true,808,2,r,,2,1,1,
a0v,RSVPtest,74,r,false,918.3000000119209,2,r,,0,0,2,
a0v,RSVPtest,75,r,null,null,2,r,,2,0,1,
a0v,RSVPtest,76,r,true,634.3999999761581,2,r,,3,0,1,
a0v,RSVPtest,77,r,true,607.4000000357628,2,r,,3,1,1,
a0v,RSVPtest,78,r,true,1615.5999999642372,2,r,,1,1,2,
a0v,RSVPtest,79,r,true,1157.2999999523163,1,g,,0,0,2,
a0v,RSVPtest,80,r,null,null,1,g,,1,1,2,
a0v,RSVPtest,81,r,true,1028.5,1,g,,1,2,1,
a0v,RSVPtest,82,r,true,1085.3999999761581,0,b,,2,3,0,
a0v,RSVPtest,83,r,true,808.5,2,r,,1,0,1,
a0v,RSVPtest,84,r,false,1278.6000000238419,2,r,,3,1,1,
a0v,RSVPtest,85,r,true,2028.9000000357628,0,b,,1,3,0,
a0v,RSVPtest,86,r,null,null,1,g,,0,1,1,
a0v,RSVPtest,87,r,false,783.3999999761581,2,r,,3,1,1,
a0v,RSVPtest,88,r,true,607.1000000238419,1,g,,3,1,1,
a0v,RSVPtest,89,r,null,null,2,r,,3,1,1,
a0v,RSVPtest,90,r,false,761.8000000119209,2,r,,3,0,1,
a0v,RSVPtest,91,r,true,781.8000000119209,0,b,,2,3,0,
a0v,RSVPtest,92,r,true,695.1999999880791,2,r,,0,2,1,
a0v,RSVPtest,93,r,true,766.2999999523163,2,r,,0,2,1,
a0v,RSVPtest,94,r,true,654.5999999642372,2,r,,3,0,1,
a0v,RSVPtest,95,r,true,734.1999999880791,2,r,,2,2,2,
a0v,RSVPtest,96,r,true,934.9000000357628,0,b,,1,3,0,
a0v,RSVPtest,97,r,true,486.0999999642372,0,b,,1,3,0,
a0v,RSVPtest,98,r,null,null,2,r,,2,2,2,
a0v,RSVPtest,99,r,null,null,2,r,,3,2,1,
a0v,RSVPtest,100,r,true,1179,2,r,,0,0,2,
a0v,RSVPtest,101,r,null,null,2,r,,2,1,1,
a0v,RSVPtest,102,r,true,728.5999999642372,2,r,,2,0,1,
a0v,RSVPtest,103,r,null,null,2,r,,3,2,1,
a0v,RSVPtest,104,r,null,null,0,b,,3,3,0,
a0v,RSVPtest,105,r,false,402.69999998807907,0,b,,2,3,0,
a0v,RSVPtest,106,r,false,757.1999999880791,1,g,,3,0,1,
a0v,RSVPtest,107,r,true,805.1999999880791,0,b,,0,3,0,
a0v,RSVPtest,108,r,null,null,2,r,,0,0,2,
a0v,RSVPtest,109,r,null,null,0,b,,0,3,0,
a0v,RSVPtest,110,r,true,724.8000000119209,2,r,,1,2,1,
a0v,RSVPtest,111,r,true,797.6999999880791,1,g,,1,2,1,
a0v,RSVPtest,112,r,false,644.6000000238419,1,g,,3,2,1,
a0v,RSVPtest,113,r,true,2254.5,1,g,,2,0,1,
a0v,RSVPtest,114,r,true,2484.900000035763,2,r,,0,0,2,
a0v,RSVPtest,115,r,true,686.7000000476837,1,g,,0,1,1,
a0v,RSVPtest,116,r,null,null,2,r,,1,0,1,
a0v,RSVPtest,117,r,false,914.8000000119209,2,r,,1,1,2,
a0v,RSVPtest,118,r,false,789.8999999761581,2,r,,2,0,1,
a0v,RSVPtest,119,r,null,null,1,g,,3,2,1,
a0v,RSVPtest,120,r,true,713,2,r,,1,2,1,
brk,brk,brk,brk,brk,brk,brk,brk,brk,brk,brk,brk,
a0v,RSVPtest,121,r,true,805.3000000119209,0,b,,3,3,0,
a0v,RSVPtest,122,r,true,678,2,r,,3,1,1,
a0v,RSVPtest,123,r,true,856.2000000476837,1,g,,3,1,1,
a0v,RSVPtest,124,r,true,558.3000000119209,2,r,,3,2,1,
a0v,RSVPtest,125,r,false,630.6999999880791,1,g,,0,0,2,
a0v,RSVPtest,126,r,true,702.6000000238419,1,g,,2,0,1,
a0v,RSVPtest,127,r,null,null,2,r,,3,1,1,
a0v,RSVPtest,128,r,false,660.8000000119209,0,b,,0,3,0,
a0v,RSVPtest,129,r,true,558.2999999523163,1,g,,3,0,1,
a0v,RSVPtest,130,r,true,647.9000000357628,1,g,,3,1,1,
a0v,RSVPtest,131,r,true,875.4000000357628,2,r,,2,0,1,
a0v,RSVPtest,132,r,false,911.1999999880791,0,b,,3,3,0,
a0v,RSVPtest,133,r,true,661.3999999761581,1,g,,2,2,2,
a0v,RSVPtest,134,r,false,870.2000000476837,1,g,,0,0,2,
a0v,RSVPtest,135,r,true,518.3000000119209,0,b,,3,3,0,
a0v,RSVPtest,136,r,false,565.5,2,r,,1,0,1,
a0v,RSVPtest,137,r,true,384.30000001192093,2,r,,2,2,2,
a0v,RSVPtest,138,r,true,694.1999999880791,1,g,,2,1,1,
a0v,RSVPtest,139,r,null,null,0,b,,2,3,0,
a0v,RSVPtest,140,r,true,696.1999999880791,1,g,,1,0,1,
a0v,RSVPtest,141,r,true,638.5999999642372,1,g,,3,2,1,
a0v,RSVPtest,142,r,true,895.1999999880791,0,b,,2,3,0,
a0v,RSVPtest,143,r,true,598.6000000238419,0,b,,3,3,0,
a0v,RSVPtest,144,r,true,870.7999999523163,1,g,,0,2,1,
a0v,RSVPtest,145,r,true,572.7999999523163,1,g,,3,2,1,
a0v,RSVPtest,146,r,true,1885.8999999761581,2,r,,2,1,1,
a0v,RSVPtest,147,r,false,942.6000000238419,0,b,,3,3,0,
a0v,RSVPtest,148,r,true,589.1999999880791,0,b,,3,3,0,
a0v,RSVPtest,149,r,false,94.39999997615814,2,r,,3,0,1,
a0v,RSVPtest,150,r,true,677.3000000119209,2,r,,1,2,1,
a0v,RSVPtest,151,r,false,404.80000001192093,1,g,,1,0,1,
a0v,RSVPtest,152,r,true,752.1000000238419,2,r,,3,1,1,
a0v,RSVPtest,153,r,true,1524,1,g,,2,2,2,
a0v,RSVPtest,154,r,false,1757.5,0,b,,3,3,0,
a0v,RSVPtest,155,r,true,701.3999999761581,1,g,,1,0,1,
a0v,RSVPtest,156,r,true,756.3999999761581,1,g,,2,0,1,
a0v,RSVPtest,157,r,false,1228,2,r,,3,2,1,
a0v,RSVPtest,158,r,true,717.5,2,r,,3,1,1,
a0v,RSVPtest,159,r,true,717.5,0,b,,3,3,0,
a0v,RSVPtest,160,r,true,604.8000000119209,1,g,,3,0,1,
a0v,RSVPtest,161,r,false,677.6999999880791,1,g,,0,0,2,
a0v,RSVPtest,162,r,false,686.8999999761581,0,b,,0,3,0,
a0v,RSVPtest,163,r,true,674.8999999761581,2,r,,3,2,1,
a0v,RSVPtest,164,r,true,619.2999999523163,2,r,,3,0,1,
a0v,RSVPtest,165,r,true,886.8000000119209,2,r,,3,0,1,
a0v,RSVPtest,166,r,false,740.8999999761581,1,g,,1,1,2,
a0v,RSVPtest,167,r,false,542.3999999761581,2,r,,2,0,1,
a0v,RSVPtest,168,r,true,500,1,g,,3,2,1,
a0v,RSVPtest,169,r,false,595.6000000238419,2,r,,0,1,1,
a0v,RSVPtest,170,r,true,716.6000000238419,1,g,,0,0,2,
a0v,RSVPtest,171,r,false,740.3999999761581,0,b,,1,3,0,
a0v,RSVPtest,172,r,true,628.8000000119209,1,g,,3,2,1,
a0v,RSVPtest,173,r,true,552,0,b,,3,3,0,
a0v,RSVPtest,174,r,false,607.8000000119209,2,r,,0,0,2,
a0v,RSVPtest,175,r,false,2126.199999988079,1,g,,0,1,1,
a0v,RSVPtest,176,r,true,575.7000000476837,1,g,,3,1,1,
a0v,RSVPtest,177,r,true,611.1000000238419,1,g,,3,0,1,
a0v,RSVPtest,178,r,true,567,0,b,,3,3,0,
a0v,RSVPtest,179,r,false,804,1,g,,1,2,1,
a0v,RSVPtest,180,r,false,679,0,b,,1,3,0,
brk,brk,brk,brk,brk,brk,brk,brk,brk,brk,brk,brk,
a0v,RSVPtest,181,r,false,989.1999999880791,1,g,,1,2,1,
a0v,RSVPtest,182,r,true,573.7999999523163,1,g,,3,0,1,
a0v,RSVPtest,183,r,true,732,0,b,,0,3,0,
a0v,RSVPtest,184,r,null,null,0,b,,3,3,0,
a0v,RSVPtest,185,r,true,789.8999999761581,1,g,,0,0,2,
a0v,RSVPtest,186,r,true,652.9000000357628,2,r,,3,0,1,
a0v,RSVPtest,187,r,true,574,2,r,,3,1,1,
a0v,RSVPtest,188,r,true,654.8000000119209,1,g,,1,1,2,
a0v,RSVPtest,189,r,null,null,1,g,,1,2,1,
a0v,RSVPtest,190,r,true,630.1000000238419,1,g,,3,1,1,
a0v,RSVPtest,191,r,false,678.3000000119209,1,g,,2,2,2,
a0v,RSVPtest,192,r,false,668.9000000357628,2,r,,1,0,1,
a0v,RSVPtest,193,r,true,347.60000002384186,0,b,,0,3,0,
a0v,RSVPtest,194,r,null,null,1,g,,2,1,1,
a0v,RSVPtest,195,r,true,718.8999999761581,0,b,,0,3,0,
a0v,RSVPtest,196,r,true,605.3000000119209,1,g,,3,0,1,
a0v,RSVPtest,197,r,true,588.6000000238419,0,b,,2,3,0,
a0v,RSVPtest,198,r,false,958.9000000357628,2,r,,3,0,1,
a0v,RSVPtest,199,r,true,876,0,b,,2,3,0,
a0v,RSVPtest,200,r,true,1101.3999999761581,0,b,,0,3,0,
a0v,RSVPtest,201,r,null,null,0,b,,2,3,0,
a0v,RSVPtest,202,r,true,718.3999999761581,1,g,,2,2,2,
a0v,RSVPtest,203,r,true,729.2000000476837,1,g,,3,2,1,
a0v,RSVPtest,204,r,true,1788.8999999761581,1,g,,0,2,1,
a0v,RSVPtest,205,r,true,1044.5,0,b,,2,3,0,
a0v,RSVPtest,206,r,true,782.5,0,b,,0,3,0,
a0v,RSVPtest,207,r,true,2104,0,b,,1,3,0,
a0v,RSVPtest,208,r,true,734.1999999880791,1,g,,3,0,1,
a0v,RSVPtest,209,r,true,772.6999999880791,2,r,,0,1,1,
a0v,RSVPtest,210,r,true,916.7000000476837,2,r,,1,1,2,
a0v,RSVPtest,211,r,false,493.2999999523163,2,r,,3,2,1,
a0v,RSVPtest,212,r,false,1111.1000000238419,2,r,,2,1,1,
a0v,RSVPtest,213,r,false,2225.699999988079,1,g,,3,0,1,
a0v,RSVPtest,214,r,true,670.8000000119209,0,b,,3,3,0,
a0v,RSVPtest,215,r,null,null,0,b,,1,3,0,
a0v,RSVPtest,216,r,null,null,1,g,,2,0,1,
a0v,RSVPtest,217,r,true,774.1999999880791,1,g,,1,0,1,
a0v,RSVPtest,218,r,true,874.8000000119209,1,g,,2,1,1,
a0v,RSVPtest,219,r,null,null,2,r,,3,0,1,
a0v,RSVPtest,220,r,null,null,0,b,,3,3,0,
a0v,RSVPtest,221,r,null,null,0,b,,3,3,0,
a0v,RSVPtest,222,r,false,699.8999999761581,2,r,,0,1,1,
a0v,RSVPtest,223,r,null,null,0,b,,1,3,0,
a0v,RSVPtest,224,r,true,768.5,1,g,,3,0,1,
a0v,RSVPtest,225,r,true,899.5999999642372,1,g,,2,2,2,
a0v,RSVPtest,226,r,true,611.6000000238419,0,b,,3,3,0,
a0v,RSVPtest,227,r,true,1105.4000000357628,1,g,,3,0,1,
a0v,RSVPtest,228,r,null,null,2,r,,1,1,2,
a0v,RSVPtest,229,r,true,712.6000000238419,1,g,,3,0,1,
a0v,RSVPtest,230,r,null,null,1,g,,1,0,1,
a0v,RSVPtest,231,r,null,null,2,r,,2,2,2,
a0v,RSVPtest,232,r,true,746,0,b,,1,3,0,
a0v,RSVPtest,233,r,true,1733.300000011921,2,r,,3,1,1,
a0v,RSVPtest,234,r,null,null,1,g,,3,1,1,
a0v,RSVPtest,235,r,true,792.8000000119209,2,r,,1,2,1,
a0v,RSVPtest,236,r,true,507.4000000357628,1,g,,1,1,2,
a0v,RSVPtest,237,r,null,null,1,g,,3,1,1,
a0v,RSVPtest,238,r,true,540.9000000357628,0,b,,2,3,0,
a0v,RSVPtest,239,r,true,1828.300000011921,2,r,,0,1,1,
a0v,RSVPtest,240,r,true,540.0999999642372,1,g,,2,0,1,
